,unique_id,pair_id,sbj_id,wall_time,condition,block,rule_id,rule_num,trial,stimulus,choice,correct,points,reaction_time
0,2_24_1,24,1.0,23.1116871696,2_ND,training,05,1_B,1.0,01110,ignore,1.0,100.0,6.0630937429
1,2_24_1,24,1.0,28.3619466364,2_ND,training,05,1_B,2.0,11000,kill,1.0,200.0,3.09537571698
2,2_24_1,24,1.0,31.8027577253,2_ND,training,05,1_B,3.0,11011,ignore,1.0,300.0,1.33885601097
3,2_24_1,24,1.0,35.3185091913,2_ND,training,05,1_B,4.0,11111,ignore,1.0,400.0,1.35663798954
4,2_24_1,24,1.0,39.2922036144,2_ND,training,05,1_B,5.0,00010,kill,0.0,300.0,1.82115293085
5,2_24_1,24,1.0,43.1986255634,2_ND,training,05,1_B,6.0,10110,ignore,1.0,400.0,1.78013824548
6,2_24_1,24,1.0,46.4487840017,2_ND,training,05,1_B,7.0,10001,kill,1.0,500.0,1.12470541372
7,2_24_1,24,1.0,50.0426786088,2_ND,training,05,1_B,8.0,00000,kill,0.0,400.0,1.43117681848
8,2_24_1,24,1.0,53.4809091411,2_ND,training,05,1_B,9.0,00111,ignore,1.0,500.0,1.27637838157
9,2_24_1,24,1.0,56.6997888344,2_ND,training,05,1_B,10.0,11100,kill,1.0,600.0,1.06485292175
10,2_24_1,24,1.0,59.809333879,2_ND,training,05,1_B,11.0,11001,kill,1.0,700.0,0.982091976348
11,2_24_1,24,1.0,63.4657657704,2_ND,training,05,1_B,12.0,10111,ignore,1.0,800.0,1.51901356412
12,2_24_1,24,1.0,66.7940314285,2_ND,training,05,1_B,13.0,01011,ignore,1.0,900.0,1.16928784848
13,2_24_1,24,1.0,70.0160907935,2_ND,training,05,1_B,14.0,00011,ignore,1.0,1000.0,1.08980183019
14,2_24_1,24,1.0,73.2974426639,2_ND,training,05,1_B,15.0,10010,ignore,1.0,1100.0,1.17583321253
15,2_24_1,24,1.0,76.1257378288,2_ND,training,05,1_B,16.0,01010,ignore,1.0,1200.0,0.713634229354
16,2_24_1,24,1.0,79.1791546448,2_ND,training,05,1_B,17.0,10011,ignore,1.0,1300.0,0.967603847677
17,2_24_1,24,1.0,82.3667899107,2_ND,training,05,1_B,18.0,00100,kill,0.0,1200.0,1.08230134589
18,2_24_1,24,1.0,85.898222604,2_ND,training,05,1_B,19.0,01101,kill,1.0,1300.0,1.42373887564
19,2_24_1,24,1.0,89.242104382,2_ND,training,05,1_B,20.0,11110,ignore,1.0,1400.0,1.24859650563
20,2_24_1,24,1.0,93.1329461322,2_ND,training,05,1_B,21.0,01100,kill,1.0,1500.0,1.80057679257
21,2_24_1,24,1.0,96.3830670457,2_ND,training,05,1_B,22.0,10101,kill,1.0,1600.0,1.13653408734
22,2_24_1,24,1.0,99.2739078338,2_ND,training,05,1_B,23.0,01000,kill,1.0,1700.0,0.813439164165
23,2_24_1,24,1.0,102.289613436,2_ND,training,05,1_B,24.0,01111,ignore,1.0,1800.0,0.943452904039
24,2_24_1,24,1.0,105.399151104,2_ND,training,05,1_B,25.0,00110,ignore,1.0,1900.0,1.02772414536
25,2_24_1,24,1.0,109.196207935,2_ND,training,05,1_B,26.0,10100,kill,0.0,1800.0,1.70119585674
26,2_24_1,24,1.0,113.118372049,2_ND,training,05,1_B,27.0,11010,ignore,1.0,1900.0,1.85053490583
27,2_24_1,24,1.0,116.696711795,2_ND,training,05,1_B,28.0,00001,kill,1.0,2000.0,1.49883512533
28,2_24_1,24,1.0,120.243698708,2_ND,training,05,1_B,29.0,11101,kill,1.0,2100.0,1.45583771551
29,2_24_1,24,1.0,124.844075817,2_ND,training,05,1_B,30.0,00101,kill,1.0,2200.0,2.52754485986
30,2_24_1,24,1.0,128.516101377,2_ND,training,05,1_B,31.0,10000,kill,0.0,2100.0,1.62889088024
31,2_24_1,24,1.0,132.094422842,2_ND,training,05,1_B,32.0,01001,kill,1.0,2200.0,1.51071158704
32,2_24_1,24,1.0,135.172692349,2_ND,training,05,1_B,33.0,00101,kill,1.0,2300.0,0.996205177022
33,2_24_1,24,1.0,138.829079018,2_ND,training,05,1_B,34.0,01010,ignore,1.0,2400.0,1.58328212418
34,2_24_1,24,1.0,142.016748601,2_ND,training,05,1_B,35.0,01110,ignore,1.0,2500.0,1.12203537473
35,2_24_1,24,1.0,145.313778812,2_ND,training,05,1_B,36.0,11111,ignore,1.0,2600.0,1.23220390951
36,2_24_1,24,1.0,148.610804213,2_ND,training,05,1_B,37.0,00000,kill,0.0,2500.0,1.20873675244
37,2_24_1,24,1.0,151.735967622,2_ND,training,05,1_B,38.0,10110,ignore,1.0,2600.0,1.06738023793
38,2_24_1,24,1.0,154.907972015,2_ND,training,05,1_B,39.0,10000,kill,0.0,2500.0,1.11598104128
39,2_24_1,24,1.0,158.845700291,2_ND,training,05,1_B,40.0,10001,kill,1.0,2600.0,1.86614717704
40,2_24_1,24,1.0,162.408324171,2_ND,training,05,1_B,41.0,11101,kill,1.0,2700.0,1.53105455796
41,2_24_1,24,1.0,165.361668567,2_ND,training,05,1_B,42.0,10011,ignore,1.0,2800.0,0.904465523943
42,2_24_1,24,1.0,170.565050168,2_ND,training,05,1_B,43.0,00100,ignore,1.0,2900.0,3.16012568587
43,2_24_1,24,1.0,173.565179099,2_ND,training,05,1_B,44.0,00111,ignore,1.0,3000.0,0.915073195951
44,2_24_1,24,1.0,177.299749642,2_ND,training,05,1_B,45.0,01101,kill,1.0,3100.0,1.66540995762
45,2_24_1,24,1.0,180.268645051,2_ND,training,05,1_B,46.0,10111,ignore,1.0,3200.0,0.905077147288
46,2_24_1,24,1.0,184.409430353,2_ND,training,05,1_B,47.0,11001,kill,1.0,3300.0,2.0958494284
47,2_24_1,24,1.0,188.169712168,2_ND,training,05,1_B,48.0,10101,kill,1.0,3400.0,1.70307113818
48,2_24_1,24,1.0,191.576443617,2_ND,training,05,1_B,49.0,00001,kill,1.0,3500.0,1.29990391067
49,2_24_1,24,1.0,195.982879678,2_ND,training,05,1_B,50.0,11100,ignore,0.0,3400.0,2.35507541537
50,2_24_1,24,1.0,198.71736619,2_ND,training,05,1_B,51.0,11010,ignore,1.0,3500.0,0.687294334835
51,2_24_1,24,1.0,201.764381648,2_ND,training,05,1_B,52.0,01011,ignore,1.0,3600.0,0.991222387147
52,2_24_1,24,1.0,204.764529502,2_ND,training,05,1_B,53.0,00011,ignore,1.0,3700.0,0.955223205638
53,2_24_1,24,1.0,207.514682488,2_ND,training,05,1_B,54.0,01111,ignore,1.0,3800.0,0.721593671704
54,2_24_1,24,1.0,210.467937402,2_ND,training,05,1_B,55.0,00010,ignore,1.0,3900.0,0.895777393476
55,2_24_1,24,1.0,214.124376991,2_ND,training,05,1_B,56.0,01001,kill,1.0,4000.0,1.60019525763
56,2_24_1,24,1.0,217.046368875,2_ND,training,05,1_B,57.0,00110,ignore,1.0,4100.0,0.875106320471
57,2_24_1,24,1.0,220.452794352,2_ND,training,05,1_B,58.0,11000,kill,1.0,4200.0,1.33119356035
58,2_24_1,24,1.0,223.499818469,2_ND,training,05,1_B,59.0,10010,ignore,1.0,4300.0,1.02575232558
59,2_24_1,24,1.0,226.640533212,2_ND,training,05,1_B,60.0,01100,kill,1.0,4400.0,1.06794984624
60,2_24_1,24,1.0,229.84387376,2_ND,training,05,1_B,61.0,10100,kill,0.0,4300.0,1.14869952263
61,2_24_1,24,1.0,232.803381857,2_ND,training,05,1_B,62.0,11110,ignore,1.0,4400.0,0.938856267552
62,2_24_1,24,1.0,235.571521124,2_ND,training,05,1_B,63.0,11011,ignore,1.0,4500.0,0.745602854713
63,2_24_1,24,1.0,239.415484687,2_ND,training,05,1_B,64.0,01000,kill,1.0,4600.0,1.81717048351
64,2_24_1,24,1.0,242.446863819,2_ND,training,05,1_B,65.0,11010,ignore,1.0,4700.0,0.996167972875
65,2_24_1,24,1.0,245.712673015,2_ND,training,05,1_B,66.0,10000,kill,0.0,4600.0,1.22358890444
66,2_24_1,24,1.0,248.68153122,2_ND,training,05,1_B,67.0,11110,ignore,1.0,4700.0,0.955557401508
67,2_24_1,24,1.0,251.80248992,2_ND,training,05,1_B,68.0,00011,ignore,1.0,4800.0,1.08175418835
68,2_24_1,24,1.0,254.677631199,2_ND,training,05,1_B,69.0,01110,ignore,1.0,4900.0,0.859060749239
69,2_24_1,24,1.0,257.380884509,2_ND,training,05,1_B,70.0,00110,ignore,1.0,5000.0,0.669346220508
70,2_24_1,24,1.0,260.16224087,2_ND,training,05,1_B,71.0,01011,ignore,1.0,5100.0,0.759396612884
71,2_24_1,24,1.0,262.834245904,2_ND,training,05,1_B,72.0,01111,ignore,1.0,5200.0,0.662151066797
72,2_24_1,24,1.0,266.912606818,2_ND,training,05,1_B,73.0,11000,ignore,0.0,5100.0,2.07345573925
73,2_24_1,24,1.0,269.943995251,2_ND,training,05,1_B,74.0,11011,ignore,1.0,5200.0,0.994023282099
74,2_24_1,24,1.0,272.772222101,2_ND,training,05,1_B,75.0,00100,ignore,1.0,5300.0,0.790398571873
75,2_24_1,24,1.0,275.506731385,2_ND,training,05,1_B,76.0,01010,ignore,1.0,5400.0,0.707213627493
76,2_24_1,24,1.0,278.147452542,2_ND,training,05,1_B,77.0,10110,ignore,1.0,5500.0,0.645150696038
77,2_24_1,24,1.0,281.991433104,2_ND,training,05,1_B,78.0,00000,kill,0.0,5400.0,1.7904986382
78,2_24_1,24,1.0,285.538466201,2_ND,training,05,1_B,79.0,10001,kill,1.0,5500.0,1.49016271041
79,2_24_1,24,1.0,289.319884783,2_ND,training,05,1_B,80.0,10100,ignore,1.0,5600.0,1.73784899735
80,2_24_1,24,1.0,292.585668321,2_ND,training,05,1_B,81.0,11100,ignore,0.0,5500.0,1.24006970004
81,2_24_1,24,1.0,295.804548335,2_ND,training,05,1_B,82.0,11001,kill,1.0,5600.0,1.20323310451
82,2_24_1,24,1.0,299.24224935,2_ND,training,05,1_B,83.0,01000,ignore,0.0,5500.0,1.41614024937
83,2_24_1,24,1.0,303.398701447,2_ND,training,05,1_B,84.0,11101,kill,1.0,5600.0,2.12316464888
84,2_24_1,24,1.0,308.320780248,2_ND,training,05,1_B,85.0,00001,kill,1.0,5700.0,2.88955403774
85,2_24_1,24,1.0,315.0086041,2_ND,training,05,1_B,86.0,00010,ignore,1.0,5800.0,4.64840670034
86,2_24_1,24,1.0,317.915016428,2_ND,training,05,1_B,87.0,10111,ignore,1.0,5900.0,0.888885966724
87,2_24_1,24,1.0,321.227639987,2_ND,training,05,1_B,88.0,01001,kill,1.0,6000.0,1.26525626601
88,2_24_1,24,1.0,324.352810773,2_ND,training,05,1_B,89.0,10010,ignore,1.0,6100.0,1.08230262879
89,2_24_1,24,1.0,328.024854615,2_ND,training,05,1_B,90.0,10101,kill,1.0,6200.0,1.63505875048
90,2_24_1,24,1.0,331.134390038,2_ND,training,05,1_B,91.0,11111,ignore,1.0,6300.0,1.09333750704
91,2_24_1,24,1.0,334.790777028,2_ND,training,05,1_B,92.0,01101,kill,1.0,6400.0,1.61396431994
92,2_24_1,24,1.0,337.962824077,2_ND,training,05,1_B,93.0,10011,ignore,1.0,6500.0,1.13717521742
93,2_24_1,24,1.0,341.556741456,2_ND,training,05,1_B,94.0,00101,kill,1.0,6600.0,1.56783791308
94,2_24_1,24,1.0,346.166355135,2_ND,training,05,1_B,95.0,01100,kill,1.0,6700.0,2.60609147345
95,2_24_1,24,1.0,349.150862815,2_ND,training,05,1_B,96.0,00111,ignore,1.0,6800.0,0.944243171434
96,2_24_1,24,1.0,353.994829586,2_ND,training,05,1_B,97.0,11000,ignore,0.0,6700.0,2.81579585443
97,2_24_1,24,1.0,357.385631887,2_ND,training,05,1_B,98.0,00111,ignore,1.0,6800.0,1.3776708408
98,2_24_1,24,1.0,360.370166829,2_ND,training,05,1_B,99.0,01111,ignore,1.0,6900.0,0.967535212441
99,2_24_1,24,1.0,363.839078594,2_ND,training,05,1_B,100.0,11001,kill,1.0,7000.0,1.48751865018
100,2_24_1,24,1.0,371.386301882,2_ND,training,05,1_B,101.0,00100,kill,0.0,6900.0,5.49489084432
101,2_24_1,24,1.0,375.448995039,2_ND,training,05,1_B,102.0,01010,ignore,1.0,7000.0,2.05250916312
102,2_24_1,24,1.0,379.121036315,2_ND,training,05,1_B,103.0,11101,kill,1.0,7100.0,1.66322998705
103,2_24_1,24,1.0,382.246178878,2_ND,training,05,1_B,104.0,00011,ignore,1.0,7200.0,1.10507926408
104,2_24_1,24,1.0,385.465091606,2_ND,training,05,1_B,105.0,00110,ignore,1.0,7300.0,1.20954562191
105,2_24_1,24,1.0,388.480849165,2_ND,training,05,1_B,106.0,10010,ignore,1.0,7400.0,1.0065120086
106,2_24_1,24,1.0,392.496676323,2_ND,training,05,1_B,107.0,01100,ignore,0.0,7300.0,1.99453900855
107,2_24_1,24,1.0,396.184362905,2_ND,training,05,1_B,108.0,00101,kill,1.0,7400.0,1.67935445674
108,2_24_1,24,1.0,399.27826136,2_ND,training,05,1_B,109.0,11010,ignore,1.0,7500.0,1.10618352164
109,2_24_1,24,1.0,402.434620447,2_ND,training,05,1_B,110.0,10110,ignore,1.0,7600.0,1.11423982306
110,2_24_1,24,1.0,405.606659799,2_ND,training,05,1_B,111.0,01001,kill,1.0,7700.0,1.16149999423
111,2_24_1,24,1.0,408.559972443,2_ND,training,05,1_B,112.0,11110,ignore,1.0,7800.0,0.96099818726
112,2_24_1,24,1.0,412.169489905,2_ND,training,05,1_B,113.0,00000,kill,0.0,7700.0,1.60071643641
113,2_24_1,24,1.0,415.200881225,2_ND,training,05,1_B,114.0,01011,ignore,1.0,7800.0,1.01205670938
114,2_24_1,24,1.0,418.09161874,2_ND,training,05,1_B,115.0,00010,ignore,1.0,7900.0,0.87302128462
115,2_24_1,24,1.0,420.857361546,2_ND,training,05,1_B,116.0,01110,ignore,1.0,8000.0,0.764067016215
116,2_24_1,24,1.0,424.670069777,2_ND,training,05,1_B,117.0,10001,kill,1.0,8100.0,1.76951068849
117,2_24_1,24,1.0,427.513961498,2_ND,training,05,1_B,118.0,10011,ignore,1.0,8200.0,0.847855565806
118,2_24_1,24,1.0,430.842192517,2_ND,training,05,1_B,119.0,01101,kill,1.0,8300.0,1.29011793715
119,2_24_1,24,1.0,434.358003318,2_ND,training,05,1_B,120.0,10101,kill,1.0,8400.0,1.47401194125
120,2_24_1,24,1.0,438.592594066,2_ND,training,05,1_B,121.0,10100,kill,0.0,8300.0,2.21976746125
121,2_24_1,24,1.0,442.155903977,2_ND,training,05,1_B,122.0,10111,ignore,1.0,8400.0,1.54209937869
122,2_24_1,24,1.0,445.251210097,2_ND,training,05,1_B,123.0,11111,ignore,1.0,8500.0,1.11081736228
123,2_24_1,24,1.0,448.329455549,2_ND,training,05,1_B,124.0,00001,kill,1.0,8600.0,1.04675855663
124,2_24_1,24,1.0,451.751464111,2_ND,training,05,1_B,125.0,11011,ignore,1.0,8700.0,1.40937743351
125,2_24_1,24,1.0,455.470400573,2_ND,training,05,1_B,126.0,11100,kill,1.0,8800.0,1.75210524155
126,2_24_1,24,1.0,459.908123397,2_ND,training,05,1_B,127.0,10000,kill,0.0,8700.0,2.43098598686
127,2_24_1,24,1.0,465.799027047,2_ND,training,05,1_B,128.0,01000,kill,1.0,8800.0,3.87317394991
128,2_24_1,24,1.0,469.330452043,2_ND,training,05,1_B,129.0,01000,kill,1.0,8900.0,1.52088916628
129,2_24_1,24,1.0,472.674384496,2_ND,training,05,1_B,130.0,11101,kill,1.0,9000.0,1.32887214987
130,2_24_1,24,1.0,475.674513107,2_ND,training,05,1_B,131.0,00111,ignore,1.0,9100.0,0.984648157817
131,2_24_1,24,1.0,481.596650921,2_ND,training,05,1_B,132.0,11000,ignore,0.0,9000.0,3.92682874418
132,2_24_1,24,1.0,485.36248321,2_ND,training,05,1_B,133.0,01101,kill,1.0,9100.0,1.74845025485
133,2_24_1,24,1.0,488.221994899,2_ND,training,05,1_B,134.0,11010,ignore,1.0,9200.0,0.851300477369
134,2_24_1,24,1.0,491.644032647,2_ND,training,05,1_B,135.0,11111,ignore,1.0,9300.0,1.41443399022
135,2_24_1,24,1.0,494.472270082,2_ND,training,05,1_B,136.0,00110,ignore,1.0,9400.0,0.843450081657
136,2_24_1,24,1.0,500.144393463,2_ND,training,05,1_B,137.0,11110,ignore,1.0,9500.0,3.63867813666
137,2_24_1,24,1.0,503.644586219,2_ND,training,05,1_B,138.0,10001,kill,1.0,9600.0,1.47928145963
138,2_24_1,24,1.0,507.988517389,2_ND,training,05,1_B,139.0,00100,ignore,1.0,9700.0,2.32078409664
139,2_24_1,24,1.0,512.160615754,2_ND,training,05,1_B,140.0,01011,ignore,1.0,9800.0,2.15920360033
140,2_24_1,24,1.0,515.363979073,2_ND,training,05,1_B,141.0,11011,ignore,1.0,9900.0,1.23141043487
141,2_24_1,24,1.0,518.473413788,2_ND,training,05,1_B,142.0,00010,ignore,1.0,10000.0,1.08270834643
142,2_24_1,24,1.0,521.832924195,2_ND,training,05,1_B,143.0,10100,kill,0.0,9900.0,1.34003595973
143,2_24_1,24,1.0,524.926849912,2_ND,training,05,1_B,144.0,01110,ignore,1.0,10000.0,1.09973213014
144,2_24_1,24,1.0,528.130138502,2_ND,training,05,1_B,145.0,10010,ignore,1.0,10100.0,1.18067360032
145,2_24_1,24,1.0,530.94275276,2_ND,training,05,1_B,146.0,01010,ignore,1.0,10200.0,0.835461774022
146,2_24_1,24,1.0,534.024135228,2_ND,training,05,1_B,147.0,10110,ignore,1.0,10300.0,1.07981828982
147,2_24_1,24,1.0,538.276044506,2_ND,training,05,1_B,148.0,00000,ignore,1.0,10400.0,2.21693032433
148,2_24_1,24,1.0,541.151198615,2_ND,training,05,1_B,149.0,01111,ignore,1.0,10500.0,0.892970084018
149,2_24_1,24,1.0,547.510859121,2_ND,training,05,1_B,150.0,01100,ignore,0.0,10400.0,4.35117026285
150,2_24_1,24,1.0,550.604752766,2_ND,training,05,1_B,151.0,00001,kill,1.0,10500.0,1.07510811653
151,2_24_1,24,1.0,553.714287547,2_ND,training,05,1_B,152.0,00011,ignore,1.0,10600.0,1.10924035547
152,2_24_1,24,1.0,556.808188569,2_ND,training,05,1_B,153.0,10111,ignore,1.0,10700.0,1.07815564932
153,2_24_1,24,1.0,561.417796796,2_ND,training,05,1_B,154.0,10000,kill,0.0,10600.0,2.6169294263
154,2_24_1,24,1.0,564.308536556,2_ND,training,05,1_B,155.0,11100,ignore,0.0,10500.0,0.875703190448
155,2_24_1,24,1.0,569.277542294,2_ND,training,05,1_B,156.0,10011,ignore,1.0,10600.0,2.95796925655
156,2_24_1,24,1.0,572.574574429,2_ND,training,05,1_B,157.0,01001,kill,1.0,10700.0,1.300580962
157,2_24_1,24,1.0,575.69973399,2_ND,training,05,1_B,158.0,10101,kill,1.0,10800.0,1.10832821242
158,2_24_1,24,1.0,579.278015364,2_ND,training,05,1_B,159.0,11001,kill,1.0,10900.0,1.60708283568
159,2_24_1,24,1.0,582.531551362,2_ND,training,05,1_B,160.0,00101,kill,1.0,11000.0,1.22611140974
160,2_24_1,24,1.0,585.562952944,2_ND,training,05,1_B,161.0,11011,ignore,1.0,11100.0,1.0313858673
161,2_24_1,24,1.0,589.406862946,2_ND,training,05,1_B,162.0,01000,ignore,0.0,11000.0,1.85178669708
162,2_24_1,24,1.0,592.610147046,2_ND,training,05,1_B,163.0,01111,ignore,1.0,11100.0,1.20634157512
163,2_24_1,24,1.0,596.125928981,2_ND,training,05,1_B,164.0,00001,kill,1.0,11200.0,1.4998030746
164,2_24_1,24,1.0,599.032318537,2_ND,training,05,1_B,165.0,11110,ignore,1.0,11300.0,0.933472570923
165,2_24_1,24,1.0,602.657485154,2_ND,training,05,1_B,166.0,01100,ignore,0.0,11200.0,1.62184903327
166,2_24_1,24,1.0,606.798485663,2_ND,training,05,1_B,167.0,10000,ignore,1.0,11300.0,2.16365847619
167,2_24_1,24,1.0,610.299688062,2_ND,training,05,1_B,168.0,11001,kill,1.0,11400.0,1.5221152995
168,2_24_1,24,1.0,613.690507362,2_ND,training,05,1_B,169.0,11101,kill,1.0,11500.0,1.39433060118
169,2_24_1,24,1.0,617.987577022,2_ND,training,05,1_B,170.0,11100,kill,1.0,11600.0,2.30444474094
170,2_24_1,24,1.0,621.115466277,2_ND,training,05,1_B,171.0,00010,ignore,1.0,11700.0,1.12065497259
171,2_24_1,24,1.0,624.037453992,2_ND,training,05,1_B,172.0,10110,ignore,1.0,11800.0,0.96205337384
172,2_24_1,24,1.0,627.022088038,2_ND,training,05,1_B,173.0,00011,ignore,1.0,11900.0,0.968939027534
173,2_24_1,24,1.0,630.350274477,2_ND,training,05,1_B,174.0,01101,kill,1.0,12000.0,1.31989889452
174,2_24_1,24,1.0,633.45983203,2_ND,training,05,1_B,175.0,10101,kill,1.0,12100.0,1.1125069437
175,2_24_1,24,1.0,636.459949736,2_ND,training,05,1_B,176.0,10010,ignore,1.0,12200.0,1.00975550461
176,2_24_1,24,1.0,641.069562454,2_ND,training,05,1_B,177.0,00100,ignore,1.0,12300.0,2.62341417324
177,2_24_1,24,1.0,646.210391696,2_ND,training,05,1_B,178.0,10011,ignore,1.0,12400.0,3.13018853522
178,2_24_1,24,1.0,650.335608346,2_ND,training,05,1_B,179.0,10100,kill,0.0,12300.0,2.10492852314
179,2_24_1,24,1.0,657.757835642,2_ND,training,05,1_B,180.0,11111,ignore,1.0,12400.0,5.42504326586
180,2_24_1,24,1.0,660.914214935,2_ND,training,05,1_B,181.0,10001,kill,1.0,12500.0,1.12969686318
181,2_24_1,24,1.0,663.89877361,2_ND,training,05,1_B,182.0,00110,ignore,1.0,12600.0,1.00230826073
182,2_24_1,24,1.0,667.664568053,2_ND,training,05,1_B,183.0,01001,kill,1.0,12700.0,1.76798531847
183,2_24_1,24,1.0,671.055354318,2_ND,training,05,1_B,184.0,11010,ignore,1.0,12800.0,1.39001973103
184,2_24_1,24,1.0,674.243029996,2_ND,training,05,1_B,185.0,01011,ignore,1.0,12900.0,1.22071456337
185,2_24_1,24,1.0,678.602534949,2_ND,training,05,1_B,186.0,00101,kill,1.0,13000.0,2.34471534337
186,2_24_1,24,1.0,682.008985764,2_ND,training,05,1_B,187.0,10111,ignore,1.0,13100.0,1.43297833307
187,2_24_1,24,1.0,688.040537125,2_ND,training,05,1_B,188.0,00000,ignore,1.0,13200.0,4.02824564487
188,2_24_1,24,1.0,691.32193967,2_ND,training,05,1_B,189.0,00111,ignore,1.0,13300.0,1.27848105732
189,2_24_1,24,1.0,694.33770621,2_ND,training,05,1_B,190.0,01010,ignore,1.0,13400.0,1.03376019746
190,2_24_1,24,1.0,697.494083578,2_ND,training,05,1_B,191.0,01110,ignore,1.0,13500.0,1.17472895496
191,2_24_1,24,1.0,702.763092973,2_ND,training,05,1_B,192.0,11000,kill,1.0,13600.0,3.27658300438
192,2_24_1,24,1.0,705.638198331,2_ND,training,05,1_B,193.0,10111,ignore,1.0,13700.0,0.88624992463
193,2_24_1,24,1.0,709.98216446,2_ND,training,05,1_B,194.0,10010,ignore,1.0,13800.0,2.34478077136
194,2_24_1,24,1.0,713.482364272,2_ND,training,05,1_B,195.0,00001,kill,1.0,13900.0,1.52828316974
195,2_24_1,24,1.0,719.341994309,2_ND,training,05,1_B,196.0,01000,ignore,0.0,13800.0,3.83996411724
196,2_24_1,24,1.0,722.21710063,2_ND,training,05,1_B,197.0,00111,ignore,1.0,13900.0,0.873155668565
197,2_24_1,24,1.0,727.248641728,2_ND,training,05,1_B,198.0,00000,ignore,1.0,14000.0,3.02006490199
198,2_24_1,24,1.0,734.639569112,2_ND,training,05,1_B,199.0,10100,kill,0.0,13900.0,5.36661864338
199,2_24_1,24,1.0,738.155393383,2_ND,training,05,1_B,200.0,01010,ignore,1.0,14000.0,1.54731277013
200,2_24_1,24,1.0,741.139929607,2_ND,training,05,1_B,201.0,11010,ignore,1.0,14100.0,0.986296686395
201,2_24_1,24,1.0,744.186912672,2_ND,training,05,1_B,202.0,10011,ignore,1.0,14200.0,1.04837084324
202,2_24_1,24,1.0,747.54647247,2_ND,training,05,1_B,203.0,00010,ignore,1.0,14300.0,1.38133993942
203,2_24_1,24,1.0,750.952888966,2_ND,training,05,1_B,204.0,10101,kill,1.0,14400.0,1.39451373539
204,2_24_1,24,1.0,754.377998301,2_ND,training,05,1_B,205.0,11101,kill,1.0,14500.0,1.45692369173
205,2_24_1,24,1.0,757.56566147,2_ND,training,05,1_B,206.0,11001,kill,1.0,14600.0,1.20481845018
206,2_24_1,24,1.0,760.915983415,2_ND,training,05,1_B,207.0,00101,kill,1.0,14700.0,1.3295049411
207,2_24_1,24,1.0,764.07237297,2_ND,training,05,1_B,208.0,01110,ignore,1.0,14800.0,1.20337903456
208,2_24_1,24,1.0,767.525652259,2_ND,training,05,1_B,209.0,01101,kill,1.0,14900.0,1.46547326882
209,2_24_1,24,1.0,771.292168014,2_ND,training,05,1_B,210.0,01001,kill,1.0,15000.0,1.77189335752
210,2_24_1,24,1.0,775.636144406,2_ND,training,05,1_B,211.0,01100,ignore,0.0,14900.0,2.36267147584
211,2_24_1,24,1.0,779.089418884,2_ND,training,05,1_B,212.0,00011,ignore,1.0,15000.0,1.45703145547
212,2_24_1,24,1.0,782.277087185,2_ND,training,05,1_B,213.0,10001,kill,1.0,15100.0,1.22169277585
213,2_24_1,24,1.0,785.245956615,2_ND,training,05,1_B,214.0,01111,ignore,1.0,15200.0,0.953723172925
214,2_24_1,24,1.0,788.355469587,2_ND,training,05,1_B,215.0,11111,ignore,1.0,15300.0,1.12986845127
215,2_24_1,24,1.0,793.511971717,2_ND,training,05,1_B,216.0,11000,ignore,0.0,15200.0,3.19530509325
216,2_24_1,24,1.0,799.606004557,2_ND,training,05,1_B,217.0,11110,ignore,1.0,15300.0,4.10442338063
217,2_24_1,24,1.0,803.578365724,2_ND,training,05,1_B,218.0,11100,ignore,0.0,15200.0,2.02447840428
218,2_24_1,24,1.0,806.437904355,2_ND,training,05,1_B,219.0,01011,ignore,1.0,15300.0,0.860664696986
219,2_24_1,24,1.0,810.250527593,2_ND,training,05,1_B,220.0,10000,ignore,1.0,15400.0,1.80032919255
220,2_24_1,24,1.0,813.500717783,2_ND,training,05,1_B,221.0,00110,ignore,1.0,15500.0,1.269751874
221,2_24_1,24,1.0,819.141624962,2_ND,training,05,1_B,222.0,00100,ignore,1.0,15600.0,3.62401489192
222,2_24_1,24,1.0,822.157385408,2_ND,training,05,1_B,223.0,11011,ignore,1.0,15700.0,1.07645644613
223,2_24_1,24,1.0,824.940306909,2_ND,training,05,1_B,224.0,10110,ignore,1.0,15800.0,0.816541540997
224,2_24_1,24,1.0,828.377946344,2_ND,training,05,1_B,225.0,01010,ignore,1.0,15900.0,1.45429759212
225,2_24_1,24,1.0,836.159609959,2_ND,training,05,1_B,226.0,11000,ignore,0.0,15800.0,5.84343276249
226,2_24_1,24,1.0,839.159748834,2_ND,training,05,1_B,227.0,11111,ignore,1.0,15900.0,1.03776188833
227,2_24_1,24,1.0,842.019239355,2_ND,training,05,1_B,228.0,00011,ignore,1.0,16000.0,0.899277469809
228,2_24_1,24,1.0,936.961192547,2_ND,test,05,2,0.0,11010,ignore,1.0,100.0,2.83274619203
229,2_24_1,24,1.0,950.883900932,2_ND,test,05,2,1.0,10000,ignore,1.0,200.0,11.9235871725
230,2_24_1,24,1.0,962.118844478,2_ND,test,05,2,2.0,10010,ignore,1.0,300.0,9.27674978159
231,2_24_1,24,1.0,965.306470763,2_ND,test,05,2,3.0,01001,kill,0.0,200.0,1.22638434706
232,2_24_1,24,1.0,974.291294679,2_ND,test,05,2,4.0,01110,ignore,0.0,100.0,7.0155452396
233,2_24_1,24,1.0,984.854543332,2_ND,test,05,2,5.0,01111,kill,1.0,200.0,8.60141433489
234,2_24_1,24,1.0,988.839157814,2_ND,test,05,2,6.0,10011,kill,0.0,100.0,2.00996557975
235,2_24_1,24,1.0,1016.29359139,2_ND,test,05,2,7.0,11101,kill,0.0,0.0,25.5046299919
236,2_24_1,24,1.0,1029.85986866,2_ND,test,05,2,8.0,10110,kill,1.0,100.0,11.5823959599
237,2_24_1,24,1.0,1034.67259549,2_ND,test,05,2,9.0,11011,ignore,1.0,200.0,2.84597515276
238,2_24_1,24,1.0,1039.90720708,2_ND,test,05,2,10.0,00010,ignore,1.0,300.0,3.27498226389
239,2_24_1,24,1.0,1057.31430352,2_ND,test,05,2,11.0,10101,ignore,0.0,200.0,15.41166613
240,2_24_1,24,1.0,1065.39280587,2_ND,test,05,2,12.0,01101,kill,0.0,100.0,6.12719456358
241,2_24_1,24,1.0,1070.65865035,2_ND,test,05,2,13.0,11110,ignore,0.0,0.0,3.27565097635
242,2_24_1,24,1.0,1088.42515007,2_ND,test,05,2,14.0,01100,kill,0.0,0.0,15.7891371589
243,2_24_1,24,1.0,1100.50381086,2_ND,test,05,2,15.0,00101,ignore,0.0,0.0,10.1133209448
244,2_24_1,24,1.0,1105.20717354,2_ND,test,05,2,16.0,01000,kill,0.0,0.0,2.7161483958
245,2_24_1,24,1.0,1127.23949656,2_ND,test,05,2,17.0,10001,ignore,1.0,100.0,20.0684819297
246,2_24_1,24,1.0,1132.42723061,2_ND,test,05,2,18.0,01011,ignore,1.0,200.0,3.21786427671
247,2_24_1,24,1.0,1139.30253193,2_ND,test,05,2,19.0,00111,ignore,0.0,100.0,4.87674843454
248,2_24_1,24,1.0,1145.06842933,2_ND,test,05,2,20.0,11001,ignore,1.0,200.0,3.83026057015
249,2_24_1,24,1.0,1150.02179906,2_ND,test,05,2,21.0,00000,ignore,1.0,300.0,2.99456819456
250,2_24_1,24,1.0,1153.44381404,2_ND,test,05,2,22.0,10111,kill,1.0,400.0,1.43168901695
251,2_24_1,24,1.0,1158.81911087,2_ND,test,05,2,23.0,10100,ignore,0.0,300.0,3.3881155843
252,2_24_1,24,1.0,1163.31932031,2_ND,test,05,2,24.0,11100,kill,0.0,200.0,2.5288255164
253,2_24_1,24,1.0,1177.6637563,2_ND,test,05,2,25.0,00001,ignore,1.0,300.0,12.4022133902
254,2_24_1,24,1.0,1192.78948194,2_ND,test,05,2,26.0,00100,ignore,0.0,200.0,13.0936915879
255,2_24_1,24,1.0,1197.1865557,2_ND,test,05,2,27.0,00110,kill,1.0,300.0,2.43060175783
256,2_24_1,24,1.0,1202.03053466,2_ND,test,05,2,28.0,00000,ignore,1.0,400.0,2.87553256453
257,2_24_1,24,1.0,1205.70256632,2_ND,test,05,2,29.0,10011,ignore,1.0,500.0,1.68548929226
258,2_24_1,24,1.0,1209.56215819,2_ND,test,05,2,30.0,00110,kill,1.0,600.0,1.91323191141
259,2_24_1,24,1.0,1212.73414654,2_ND,test,05,2,31.0,10101,kill,1.0,700.0,1.17735216804
260,2_24_1,24,1.0,1216.0468057,2_ND,test,05,2,32.0,01011,ignore,1.0,800.0,1.33746791142
261,2_24_1,24,1.0,1219.28133872,2_ND,test,05,2,33.0,11010,ignore,1.0,900.0,1.29984233139
262,2_24_1,24,1.0,1222.32834392,2_ND,test,05,2,34.0,10100,kill,1.0,1000.0,1.07795487522
263,2_24_1,24,1.0,1230.14124426,2_ND,test,05,2,35.0,11100,kill,0.0,900.0,5.86725079316
264,2_24_1,24,1.0,1238.42287548,2_ND,test,05,2,36.0,11001,ignore,1.0,1000.0,6.33142159611
265,2_24_1,24,1.0,1248.5952439,2_ND,test,05,2,37.0,00111,kill,1.0,1100.0,8.20134242825
266,2_24_1,24,1.0,1253.14233248,2_ND,test,05,2,38.0,00010,ignore,1.0,1200.0,2.62837483306
267,2_24_1,24,1.0,1286.67522576,2_ND,test,05,2,39.0,01000,,,1100.0,
268,2_24_1,24,1.0,1293.55088052,2_ND,test,05,2,40.0,01001,ignore,1.0,1200.0,4.9044283198
269,2_24_1,24,1.0,1299.0824399,2_ND,test,05,2,41.0,01010,ignore,1.0,1300.0,3.56878373229
270,2_24_1,24,1.0,1305.98896993,2_ND,test,05,2,42.0,01101,kill,0.0,1200.0,4.9183449158
271,2_24_1,24,1.0,1313.37998423,2_ND,test,05,2,43.0,01100,kill,0.0,1100.0,5.46244401738
272,2_24_1,24,1.0,1319.86780693,2_ND,test,05,2,44.0,00101,kill,1.0,1200.0,4.53566017476
273,2_24_1,24,1.0,1323.32108205,2_ND,test,05,2,45.0,10111,kill,1.0,1300.0,1.47835328032
274,2_24_1,24,1.0,1331.3683419,2_ND,test,05,2,46.0,00001,ignore,1.0,1400.0,6.09014019549
275,2_24_1,24,1.0,1340.47815186,2_ND,test,05,2,47.0,11110,kill,1.0,1500.0,7.14527962765
276,2_24_1,24,1.0,1350.72863456,2_ND,test,05,2,48.0,11011,ignore,1.0,1600.0,8.30325484969
277,2_24_1,24,1.0,1354.40067134,2_ND,test,05,2,49.0,01111,kill,1.0,1700.0,1.67413625441
278,2_24_1,24,1.0,1360.21346168,2_ND,test,05,3,0.0,01110,kill,0.0,1600.0,3.83779633424
279,2_24_1,24,1.0,1365.11992468,2_ND,test,05,3,1.0,11101,kill,0.0,1500.0,2.96166946553
280,2_24_1,24,1.0,1372.22968044,2_ND,test,05,3,2.0,11000,ignore,0.0,1400.0,5.13690260083
281,2_24_1,24,1.0,1375.27670584,2_ND,test,05,3,3.0,00100,kill,0.0,1300.0,1.11155503071
282,2_24_1,24,1.0,1378.7456035,2_ND,test,05,3,4.0,10000,kill,1.0,1400.0,1.45637268548
283,2_24_1,24,1.0,1387.52727545,2_ND,test,05,3,5.0,10001,ignore,0.0,1300.0,6.81214632006
284,2_24_1,24,1.0,1392.76189282,2_ND,test,05,3,6.0,10010,ignore,0.0,1200.0,3.29547565502
285,2_24_1,24,1.0,1395.84013057,2_ND,test,05,3,7.0,10110,kill,1.0,1300.0,1.09659190771
286,2_24_1,24,1.0,1402.16859348,2_ND,test,05,3,8.0,00011,kill,0.0,1200.0,4.3885511294
287,2_24_1,24,1.0,1405.9500374,2_ND,test,05,3,9.0,11111,kill,0.0,1100.0,1.83416187396
288,2_24_1,24,1.0,1409.9658235,2_ND,test,05,3,10.0,11001,ignore,0.0,1000.0,2.06301644808
289,2_24_1,24,1.0,1418.599659,2_ND,test,05,3,11.0,00000,ignore,1.0,1100.0,6.7080760581
290,2_24_1,24,1.0,1433.49096805,2_ND,test,05,3,12.0,11101,kill,0.0,1000.0,12.9475662073
291,2_24_1,24,1.0,1437.18695886,2_ND,test,05,3,13.0,10000,ignore,0.0,900.0,1.72263282201
292,2_24_1,24,1.0,1441.28090863,2_ND,test,05,3,14.0,01010,ignore,1.0,1000.0,2.15758778575
293,2_24_1,24,1.0,1447.79680827,2_ND,test,05,3,15.0,11010,ignore,0.0,900.0,4.57431816986
294,2_24_1,24,1.0,1454.10964896,2_ND,test,05,3,16.0,00100,kill,0.0,800.0,4.37272717943
295,2_24_1,24,1.0,1463.4069303,2_ND,test,05,3,17.0,00101,ignore,1.0,900.0,7.29626720531
296,2_24_1,24,1.0,1468.21969273,2_ND,test,05,3,18.0,00111,ignore,1.0,1000.0,2.84649376574
297,2_24_1,24,1.0,1476.01692564,2_ND,test,05,3,19.0,00010,ignore,1.0,1100.0,5.86778929111
298,2_24_1,24,1.0,1481.59531125,2_ND,test,05,3,20.0,00110,ignore,1.0,1200.0,3.61182668512
299,2_24_1,24,1.0,1488.86127023,2_ND,test,05,3,21.0,10011,kill,1.0,1300.0,5.33796054565
300,2_24_1,24,1.0,1492.48645128,2_ND,test,05,3,22.0,01110,ignore,1.0,1400.0,1.63925961182
301,2_24_1,24,1.0,1496.81839758,2_ND,test,05,3,23.0,10110,kill,1.0,1500.0,2.36419043135
302,2_24_1,24,1.0,1499.99047125,2_ND,test,05,3,24.0,11011,kill,1.0,1600.0,1.24474972514
303,2_24_1,24,1.0,1502.6937531,2_ND,test,05,3,25.0,10111,kill,0.0,1500.0,0.738137008761
304,2_24_1,24,1.0,1506.43137984,2_ND,test,05,3,26.0,11000,kill,1.0,1600.0,1.86260123698
305,2_24_1,24,1.0,1510.54097492,2_ND,test,05,3,27.0,10101,ignore,1.0,1700.0,2.15595208619
306,2_24_1,24,1.0,1515.50993864,2_ND,test,05,3,28.0,11100,ignore,0.0,1600.0,3.00380155821
307,2_24_1,24,1.0,1519.37224256,2_ND,test,05,3,29.0,01001,ignore,1.0,1700.0,1.94667587362
308,2_24_1,24,1.0,1524.27871262,2_ND,test,05,3,30.0,10001,kill,1.0,1800.0,2.9727627158
309,2_24_1,24,1.0,1528.26329824,2_ND,test,05,3,31.0,00011,ignore,1.0,1900.0,2.02723985
310,2_24_1,24,1.0,1533.23226292,2_ND,test,05,3,32.0,00001,ignore,1.0,2000.0,3.03377847881
311,2_24_1,24,1.0,1539.74820907,2_ND,test,05,3,33.0,11110,kill,1.0,2100.0,4.5584034546
312,2_24_1,24,1.0,1544.90475001,2_ND,test,05,3,34.0,10010,ignore,0.0,2000.0,3.24620549774
313,2_24_1,24,1.0,1548.12362489,2_ND,test,05,3,35.0,11111,ignore,1.0,2100.0,1.28350522077
314,2_24_1,24,1.0,1553.81139294,2_ND,test,05,3,36.0,01011,ignore,1.0,2200.0,3.71864299798
315,2_24_1,24,1.0,1557.45845868,2_ND,test,05,3,37.0,10100,kill,1.0,2300.0,1.74405278884
316,2_24_1,24,1.0,1561.78674711,2_ND,test,05,3,38.0,01111,ignore,1.0,2400.0,2.36971749223
317,2_24_1,24,1.0,1570.95908698,2_ND,test,05,3,39.0,01100,ignore,1.0,2500.0,7.25924972065
318,2_24_1,24,1.0,1575.09991815,2_ND,test,05,3,40.0,01000,ignore,1.0,2600.0,2.15349051872
319,2_24_1,24,1.0,1578.81882446,2_ND,test,05,3,41.0,01101,ignore,1.0,2700.0,1.7617286073
320,2_24_1,24,1.0,1582.14710937,2_ND,test,05,3,42.0,01110,ignore,1.0,2800.0,1.40398571874
321,2_24_1,24,1.0,1585.03807107,2_ND,test,05,3,43.0,00101,ignore,1.0,2900.0,0.89765235419
322,2_24_1,24,1.0,1589.56953808,2_ND,test,05,3,44.0,00010,ignore,1.0,3000.0,2.6228670157
323,2_24_1,24,1.0,1592.56967567,2_ND,test,05,4,0.0,01101,ignore,1.0,3100.0,1.00246413328
324,2_24_1,24,1.0,1595.28850437,2_ND,test,05,4,1.0,11101,ignore,1.0,3200.0,0.770005567796
325,2_24_1,24,1.0,1611.33617058,2_ND,test,05,4,2.0,10110,kill,1.0,3300.0,14.1240148919
326,2_24_1,24,1.0,1614.46130737,2_ND,test,05,4,3.0,00001,ignore,1.0,3400.0,1.15574810483
327,2_24_1,24,1.0,1621.03976065,2_ND,test,05,4,4.0,10101,ignore,1.0,3500.0,4.6701906905
328,2_24_1,24,1.0,1624.10240602,2_ND,test,05,4,5.0,00011,ignore,0.0,3400.0,1.12080218555
329,2_24_1,24,1.0,1627.47754826,2_ND,test,05,4,6.0,11111,ignore,1.0,3500.0,1.41919419667
330,2_24_1,24,1.0,1630.79024559,2_ND,test,05,4,7.0,01010,ignore,0.0,3400.0,1.41137459059
331,2_24_1,24,1.0,1635.86856352,2_ND,test,05,4,8.0,00100,kill,0.0,3300.0,3.13856331697
332,2_24_1,24,1.0,1639.22827278,2_ND,test,05,4,9.0,11011,ignore,1.0,3400.0,1.41103237659
333,2_24_1,24,1.0,1642.79095984,2_ND,test,05,4,10.0,11110,ignore,1.0,3500.0,1.65976454907
334,2_24_1,24,1.0,1645.6660822,2_ND,test,05,4,11.0,10010,ignore,0.0,3400.0,0.920856516434
335,2_24_1,24,1.0,1654.5571507,2_ND,test,05,4,12.0,11000,ignore,1.0,3500.0,6.9975596004
336,2_24_1,24,1.0,1664.76075681,2_ND,test,05,4,13.0,00111,kill,1.0,3600.0,8.1988609758
337,2_24_1,24,1.0,1668.60470017,2_ND,test,05,4,14.0,11001,ignore,1.0,3700.0,1.89639960076
338,2_24_1,24,1.0,1673.01110351,2_ND,test,05,4,15.0,01001,kill,0.0,3600.0,2.48485791223
339,2_24_1,24,1.0,1676.88632145,2_ND,test,05,4,16.0,10111,ignore,0.0,3500.0,1.92769406132
340,2_24_1,24,1.0,1681.13654018,2_ND,test,05,4,17.0,11010,ignore,1.0,3600.0,2.34696779789
341,2_24_1,24,1.0,1686.42429501,2_ND,test,05,4,18.0,10000,kill,0.0,3500.0,3.30686653846
342,2_24_1,24,1.0,1689.54942571,2_ND,test,05,4,19.0,10011,ignore,0.0,3400.0,1.16453309437
343,2_24_1,24,1.0,1693.7215183,2_ND,test,05,4,20.0,00000,ignore,1.0,3500.0,2.24595469048
344,2_24_1,24,1.0,1700.5343112,2_ND,test,05,4,21.0,01000,ignore,1.0,3600.0,4.86705322631
345,2_24_1,24,1.0,1703.64383572,2_ND,test,05,4,22.0,01100,ignore,1.0,3700.0,1.19906720224
346,2_24_1,24,1.0,1708.11280073,2_ND,test,05,4,23.0,11100,ignore,1.0,3800.0,2.55142286618
347,2_24_1,24,1.0,1711.15983703,2_ND,test,05,4,24.0,10001,ignore,1.0,3900.0,1.11179974419
348,2_24_1,24,1.0,1716.06632345,2_ND,test,05,4,25.0,00110,ignore,0.0,3800.0,3.01328188042
349,2_24_1,24,1.0,1718.78514252,2_ND,test,05,4,26.0,10100,ignore,1.0,3900.0,0.812433690026
350,2_24_1,24,1.0,1722.39472862,2_ND,test,05,4,27.0,01111,kill,1.0,4000.0,1.66033095013
351,2_24_1,24,1.0,1725.42612347,2_ND,test,05,4,28.0,01011,ignore,0.0,3900.0,1.12263641413
352,2_24_1,24,1.0,1734.34843897,2_ND,test,05,4,29.0,10111,kill,1.0,4000.0,6.98145405352
353,2_24_1,24,1.0,1737.20794071,2_ND,test,05,4,30.0,01001,ignore,1.0,4100.0,0.955552269901
354,2_24_1,24,1.0,1740.19243332,2_ND,test,05,4,31.0,00010,ignore,0.0,4000.0,1.06149043661
355,2_24_1,24,1.0,1742.77075318,2_ND,test,05,4,32.0,11000,kill,0.0,3900.0,0.63529865308
356,2_24_1,24,1.0,1745.4739959,2_ND,test,05,4,33.0,01111,ignore,0.0,3800.0,0.778895434538
357,2_24_1,24,1.0,1749.16170077,2_ND,test,05,4,34.0,01000,ignore,1.0,3900.0,1.73944204043
358,2_24_1,24,1.0,1752.44307701,2_ND,test,05,4,35.0,00011,ignore,0.0,3800.0,1.38314818925
359,2_24_1,24,1.0,1755.86511765,2_ND,test,05,4,36.0,11011,ignore,1.0,3900.0,1.4543402486
360,2_24_1,24,1.0,1758.72464537,2_ND,test,05,4,37.0,01010,ignore,0.0,3800.0,0.907371937552
361,2_24_1,24,1.0,1763.6155657,2_ND,test,05,4,38.0,11101,ignore,1.0,3900.0,2.97634136986
362,2_24_1,24,1.0,1771.39717351,2_ND,test,05,4,39.0,01100,ignore,1.0,4000.0,5.83082119815
363,2_24_1,24,1.0,1775.50669578,2_ND,test,05,4,40.0,00001,kill,0.0,3900.0,2.20392619211
364,2_24_1,24,1.0,1779.30378725,2_ND,test,05,4,41.0,10010,ignore,0.0,3800.0,1.82523159581
365,2_24_1,24,1.0,1786.00718104,2_ND,test,05,4,42.0,01011,kill,1.0,3900.0,4.7593311849
366,2_24_1,24,1.0,1795.867093,2_ND,test,05,4,43.0,01110,ignore,0.0,3800.0,7.95188605781
367,2_24_1,24,1.0,1800.97670603,2_ND,test,05,4,44.0,00111,ignore,0.0,3700.0,3.13073312696
368,2_24_1,24,1.0,1805.77380071,2_ND,test,05,4,45.0,10100,kill,0.0,3600.0,2.901397144
369,2_24_1,24,1.0,1809.19585129,2_ND,test,05,4,46.0,11111,ignore,1.0,3700.0,1.49670999881
370,2_24_1,24,1.0,1811.88346186,2_ND,test,05,4,47.0,01101,ignore,1.0,3800.0,0.739848078789
371,2_24_1,24,1.0,1814.55548325,2_ND,test,05,4,48.0,00100,ignore,1.0,3900.0,0.768349341804
372,2_24_1,24,1.0,1817.3055583,2_ND,test,05,4,49.0,10000,ignore,1.0,4000.0,0.842837816861
373,2_24_1,24,1.0,1820.05573662,2_ND,test,05,4,50.0,10011,ignore,0.0,3900.0,0.801365777061
374,2_24_1,24,1.0,1822.68085962,2_ND,test,05,4,51.0,10001,ignore,1.0,4000.0,0.689574371729
375,2_24_1,24,1.0,1825.27472665,2_ND,test,05,4,52.0,00101,ignore,1.0,4100.0,0.637247059913
376,2_24_1,24,1.0,1827.79046047,2_ND,test,05,4,53.0,00110,ignore,0.0,4000.0,0.638604690543
377,2_24_1,24,1.0,1830.27497521,2_ND,test,05,4,54.0,00000,ignore,1.0,4100.0,0.507637434042
378,2_24_1,24,1.0,1832.82195154,2_ND,test,05,4,55.0,10110,ignore,0.0,4000.0,0.583577512276
379,2_24_1,24,1.0,1835.16579547,2_ND,test,05,4,56.0,11110,ignore,1.0,4100.0,0.458407688173
380,2_24_1,24,1.0,1837.52529305,2_ND,test,05,4,57.0,11001,ignore,1.0,4200.0,0.400167482807
381,2_24_1,24,1.0,1839.96292029,2_ND,test,05,4,58.0,11010,ignore,1.0,4300.0,0.547113278928
382,2_24_1,24,1.0,1842.49428243,2_ND,test,05,4,59.0,11100,ignore,1.0,4400.0,0.547842929223
383,2_24_1,24,1.0,1844.96527634,2_ND,test,05,4,60.0,10101,ignore,1.0,4500.0,0.500928500045
384,2_24_1,24,1.0,1847.2309951,2_ND,test,05,4,61.0,00001,ignore,1.0,4600.0,0.354270073884
385,2_24_1,24,1.0,1849.52800606,2_ND,test,05,4,62.0,11111,ignore,1.0,4700.0,0.348327994321
386,2_24_1,24,1.0,1851.80936756,2_ND,test,05,4,63.0,10010,ignore,0.0,4600.0,0.409120853183
387,2_24_1,24,1.0,1853.99697235,2_ND,test,05,4,64.0,10001,ignore,1.0,4700.0,0.274511759719
388,2_24_1,24,1.0,1856.24707306,2_ND,test,05,4,65.0,11101,ignore,1.0,4800.0,0.311913473415
389,2_24_1,24,1.0,1858.52841531,2_ND,test,05,4,66.0,00100,ignore,1.0,4900.0,0.390774397903
390,2_24_1,24,1.0,1860.71601529,2_ND,test,05,4,67.0,11001,ignore,1.0,5000.0,0.305684665345
391,2_24_1,24,1.0,1862.91928368,2_ND,test,05,4,68.0,01001,ignore,1.0,5100.0,0.270325010297
392,2_24_1,24,1.0,1865.13809794,2_ND,test,05,4,69.0,01000,ignore,1.0,5200.0,0.301299066174
393,2_24_1,24,1.0,1867.59136761,2_ND,test,05,4,70.0,11110,ignore,1.0,5300.0,0.522004007784
394,2_24_1,24,1.0,1869.76333127,2_ND,test,05,4,71.0,00101,ignore,1.0,5400.0,0.28802135518
395,2_24_1,24,1.0,1871.98530917,2_ND,test,05,4,72.0,00010,ignore,0.0,5300.0,0.268119381693
396,2_24_1,24,1.0,1874.50107026,2_ND,test,05,4,73.0,01011,ignore,0.0,5200.0,0.570300442731
397,2_24_1,24,1.0,1876.90742646,2_ND,test,05,4,74.0,11011,ignore,1.0,5300.0,0.526360100223
398,2_24_1,24,1.0,1879.26693911,2_ND,test,05,4,75.0,10110,ignore,0.0,5200.0,0.417588645298
399,2_24_1,24,1.0,1881.87643669,2_ND,test,05,4,76.0,00000,ignore,1.0,5300.0,0.724072237626
400,2_24_1,24,1.0,1884.41093969,2_ND,test,05,4,77.0,10100,ignore,1.0,5400.0,0.565559479812
401,2_24_1,24,1.0,1886.73917263,2_ND,test,05,4,78.0,10000,ignore,1.0,5500.0,0.391452732129
402,2_24_1,24,1.0,1888.98925025,2_ND,test,05,4,79.0,01110,ignore,0.0,5400.0,0.362920358752
403,2_24_1,24,1.0,1891.33312497,2_ND,test,05,4,80.0,10111,ignore,0.0,5300.0,0.396888065552
404,2_24_1,24,1.0,1893.692645,2_ND,test,05,4,81.0,01111,ignore,0.0,5200.0,0.487598831533
405,2_24_1,24,1.0,1896.27085806,2_ND,test,05,4,82.0,00011,kill,1.0,5300.0,0.595487650149
406,2_24_1,24,1.0,1898.84910768,2_ND,test,05,4,83.0,11000,kill,0.0,5200.0,0.652278497415
407,2_24_1,24,1.0,1901.17734126,2_ND,test,05,4,84.0,11100,kill,0.0,5100.0,0.444676150732
408,2_24_1,24,1.0,1904.41188262,2_ND,test,05,4,85.0,00110,kill,1.0,5200.0,1.29141430923
409,2_24_1,24,1.0,1908.39645701,2_ND,test,05,4,86.0,00111,kill,1.0,5300.0,2.09837129225
410,2_24_1,24,1.0,1910.92776975,2_ND,test,05,4,87.0,10011,kill,1.0,5400.0,0.622320499613
411,2_24_1,24,1.0,1914.09984855,2_ND,test,05,4,88.0,01101,kill,0.0,5300.0,1.23011117625
412,2_24_1,24,1.0,1917.39687652,2_ND,test,05,4,89.0,10101,ignore,1.0,5400.0,1.41496062134
413,2_24_1,24,1.0,1921.25643792,2_ND,test,05,4,90.0,01010,kill,1.0,5500.0,1.97588561906
414,2_24_1,24,1.0,1924.28779556,2_ND,test,05,4,91.0,01100,kill,0.0,5400.0,1.08794643373
415,2_24_1,24,1.0,1927.63173796,2_ND,test,05,4,92.0,11010,ignore,1.0,5500.0,1.43026884486
416,2_24_1,24,1.0,1930.11622062,2_ND,test,05,4,93.0,01000,kill,0.0,5400.0,0.532088255932
417,2_24_1,24,1.0,1932.49133849,2_ND,test,05,4,94.0,10011,ignore,0.0,5300.0,0.505507496637
418,2_24_1,24,1.0,1934.85083895,2_ND,test,05,4,95.0,00101,ignore,1.0,5400.0,0.380772255456
419,2_24_1,24,1.0,1937.35093004,2_ND,test,05,4,96.0,11101,ignore,1.0,5500.0,0.557573737977
420,2_24_1,24,1.0,1939.71043884,2_ND,test,05,4,97.0,01001,ignore,1.0,5600.0,0.366262638185
421,2_24_1,24,1.0,1941.97617652,2_ND,test,05,4,98.0,00110,ignore,0.0,5500.0,0.319452444761
422,2_24_1,24,1.0,1944.16378356,2_ND,test,05,4,99.0,11010,ignore,1.0,5600.0,0.326171641973
423,2_24_1,24,1.0,1946.47639269,2_ND,test,05,4,100.0,01110,ignore,0.0,5500.0,0.353135347403
424,2_24_1,24,1.0,1949.00771569,2_ND,test,05,4,101.0,11100,ignore,1.0,5600.0,0.611622383043
425,2_24_1,24,1.0,1952.02353226,2_ND,test,05,4,102.0,00100,ignore,1.0,5700.0,1.10878620829
426,2_24_1,24,1.0,1954.32051084,2_ND,test,05,4,103.0,10111,ignore,0.0,5600.0,0.344629709693
427,2_24_1,24,1.0,1956.50809351,2_ND,test,05,4,104.0,00010,ignore,0.0,5500.0,0.310103299238
428,2_24_1,24,1.0,1958.74260471,2_ND,test,05,4,105.0,00001,ignore,1.0,5600.0,0.306910477844
429,2_24_1,24,1.0,1961.11771071,2_ND,test,05,4,106.0,10110,ignore,0.0,5500.0,0.431051414849
430,2_24_1,24,1.0,1963.21151905,2_ND,test,05,4,107.0,11111,ignore,1.0,5600.0,0.216984206199
431,2_24_1,24,1.0,1965.47724742,2_ND,test,05,4,108.0,10010,ignore,0.0,5500.0,0.362545751479
432,2_24_1,24,1.0,1967.82114555,2_ND,test,05,4,109.0,01101,ignore,1.0,5600.0,0.412123163685
433,2_24_1,24,1.0,1970.11814016,2_ND,test,05,4,110.0,10001,ignore,1.0,5700.0,0.365380322601
434,2_24_1,24,1.0,1972.52446493,2_ND,test,05,4,111.0,11000,ignore,1.0,5800.0,0.478934114024
435,2_24_1,24,1.0,1974.93086892,2_ND,test,05,4,112.0,00000,ignore,1.0,5900.0,0.53578846492
436,2_24_1,24,1.0,1977.55594092,2_ND,test,05,4,113.0,01100,ignore,1.0,6000.0,0.657529413726
437,2_24_1,24,1.0,1979.89985061,2_ND,test,05,4,114.0,01010,ignore,0.0,5900.0,0.399429493653
438,2_24_1,24,1.0,1982.14994779,2_ND,test,05,4,115.0,11110,ignore,1.0,6000.0,0.378305556376
439,2_24_1,24,1.0,1984.68131762,2_ND,test,05,4,116.0,00011,ignore,0.0,5900.0,0.563429221675
440,2_24_1,24,1.0,1986.83764816,2_ND,test,05,4,117.0,10101,ignore,1.0,6000.0,0.2787244879
441,2_24_1,24,1.0,1989.22839497,2_ND,test,05,4,118.0,11001,ignore,1.0,6100.0,0.419536731399
442,2_24_1,24,1.0,1991.60351284,2_ND,test,05,4,119.0,11011,ignore,1.0,6200.0,0.443880110281
443,2_24_1,24,1.0,1993.96298861,2_ND,test,05,4,120.0,00111,ignore,0.0,6100.0,0.45173403397
444,2_24_1,24,1.0,1996.1818481,2_ND,test,05,4,121.0,10000,ignore,1.0,6200.0,0.273630406307
445,2_24_1,24,1.0,2000.8539904,2_ND,test,05,4,122.0,10100,ignore,1.0,6300.0,2.78586191103
446,2_24_1,24,1.0,2003.40098405,2_ND,test,05,4,123.0,01111,ignore,0.0,6200.0,0.568080702207
447,2_24_1,24,1.0,2005.88545485,2_ND,test,05,4,124.0,01011,ignore,0.0,6100.0,0.561258872869
448,2_24_1,24,1.0,2008.02614361,2_ND,test,05,4,125.0,11011,ignore,1.0,6200.0,0.27847656716
449,2_24_1,24,1.0,2010.24503004,2_ND,test,05,4,126.0,01011,ignore,0.0,6100.0,0.292652630014
450,2_24_1,24,1.0,2012.49512369,2_ND,test,05,5,0.0,10101,ignore,0.0,6000.0,0.389126831502
451,2_24_1,24,1.0,2014.68587705,2_ND,test,05,5,1.0,11111,ignore,0.0,5900.0,0.278879398269
452,2_24_1,24,1.0,2017.18598225,2_ND,test,05,5,2.0,10110,kill,1.0,6000.0,0.565044074086
453,2_24_1,24,1.0,2019.36109319,2_ND,test,05,5,3.0,01101,ignore,1.0,6100.0,0.31390966833
454,2_24_1,24,1.0,2021.51743688,2_ND,test,05,5,4.0,01000,ignore,1.0,6200.0,0.272108564266
455,2_24_1,24,1.0,2024.22071104,2_ND,test,05,5,5.0,00110,ignore,0.0,6100.0,0.766063211126
456,2_24_1,24,1.0,2026.39269202,2_ND,test,05,5,6.0,11000,kill,0.0,6000.0,0.273195502661
457,2_24_1,24,1.0,2028.67403234,2_ND,test,05,5,7.0,10111,ignore,0.0,5900.0,0.359266654948
458,2_24_1,24,1.0,2030.92413273,2_ND,test,05,5,8.0,10011,ignore,1.0,6000.0,0.380847625926
459,2_24_1,24,1.0,2033.17425941,2_ND,test,05,5,9.0,01010,ignore,1.0,6100.0,0.309702392482
460,2_24_1,24,1.0,2035.40873919,2_ND,test,05,5,10.0,10000,ignore,1.0,6200.0,0.306411429116
461,2_24_1,24,1.0,2037.69010549,2_ND,test,05,5,11.0,11010,ignore,1.0,6300.0,0.402182921243
462,2_24_1,24,1.0,2039.89965913,2_ND,test,05,5,12.0,11100,ignore,1.0,6400.0,0.290819363603
463,2_24_1,24,1.0,2042.05597204,2_ND,test,05,5,13.0,01111,ignore,0.0,6300.0,0.307547759217
464,2_24_1,24,1.0,2044.290464,2_ND,test,05,5,14.0,11110,ignore,0.0,6200.0,0.279844140281
465,2_24_1,24,1.0,2046.52496398,2_ND,test,05,5,15.0,01100,ignore,1.0,6300.0,0.301330497266
466,2_24_1,24,1.0,2048.74380808,2_ND,test,05,5,16.0,00101,ignore,0.0,6200.0,0.315348763219
467,2_24_1,24,1.0,2050.96267879,2_ND,test,05,5,17.0,10100,ignore,0.0,6100.0,0.27877933194
468,2_24_1,24,1.0,2053.24402745,2_ND,test,05,5,18.0,11001,ignore,1.0,6200.0,0.432494679164
469,2_24_1,24,1.0,2055.44727467,2_ND,test,05,5,19.0,00001,ignore,1.0,6300.0,0.288320591982
470,2_24_1,24,1.0,2057.69737185,2_ND,test,05,5,20.0,00000,ignore,1.0,6400.0,0.325888762167
471,2_24_1,24,1.0,2060.04122668,2_ND,test,05,5,21.0,00100,ignore,0.0,6300.0,0.476784291637
472,2_24_1,24,1.0,2062.18194335,2_ND,test,05,5,22.0,10001,ignore,1.0,6400.0,0.252127371605
473,2_24_1,24,1.0,2064.38515336,2_ND,test,05,5,23.0,00111,ignore,0.0,6300.0,0.250437790175
474,2_24_1,24,1.0,2066.54147878,2_ND,test,05,5,24.0,00011,ignore,1.0,6400.0,0.242084176305
475,2_24_1,24,1.0,2068.74479078,2_ND,test,05,5,25.0,11101,ignore,1.0,6500.0,0.273333093861
476,2_24_1,24,1.0,2070.85423576,2_ND,test,05,5,26.0,00010,ignore,1.0,6600.0,0.250361778257
477,2_24_1,24,1.0,2072.979344,2_ND,test,05,5,27.0,10010,ignore,1.0,6700.0,0.243285292945
478,2_24_1,24,1.0,2075.16694335,2_ND,test,05,5,28.0,01110,ignore,0.0,6600.0,0.250691804697
479,2_24_1,24,1.0,2077.43267653,2_ND,test,05,5,29.0,01001,ignore,1.0,6700.0,0.387587670288
480,2_24_1,24,1.0,2079.65153217,2_ND,test,05,5,30.0,11000,ignore,1.0,6800.0,0.28494463638
481,2_24_1,24,1.0,2081.71412718,2_ND,test,05,5,31.0,01011,ignore,1.0,6900.0,0.222016387786
482,2_24_1,24,1.0,2083.93297577,2_ND,test,05,5,32.0,01110,ignore,0.0,6800.0,0.294216487084
483,2_24_1,24,1.0,2086.13620085,2_ND,test,05,5,33.0,10000,ignore,1.0,6900.0,0.275536798108
484,2_24_1,24,1.0,2088.30819017,2_ND,test,05,5,34.0,11001,ignore,1.0,7000.0,0.284029606806
485,2_24_1,24,1.0,2090.51141045,2_ND,test,05,5,35.0,00011,ignore,1.0,7100.0,0.256827923124
486,2_24_1,24,1.0,2092.63653056,2_ND,test,05,5,36.0,11110,ignore,0.0,7000.0,0.267114228278
487,2_24_1,24,1.0,2094.87099815,2_ND,test,05,5,37.0,00010,ignore,1.0,7100.0,0.263642375779
488,2_24_1,24,1.0,2097.08986116,2_ND,test,05,5,38.0,00111,ignore,0.0,7000.0,0.277263583685
489,2_24_1,24,1.0,2099.24620037,2_ND,test,05,5,39.0,10010,ignore,1.0,7100.0,0.293609353892
490,2_24_1,24,1.0,2101.46507236,2_ND,test,05,5,40.0,01001,ignore,1.0,7200.0,0.291059907657
491,2_24_1,24,1.0,2103.91829777,2_ND,test,05,5,41.0,11100,ignore,1.0,7300.0,0.595861936694
492,2_24_1,24,1.0,2106.0902996,2_ND,test,05,5,42.0,01000,ignore,1.0,7400.0,0.252949070087
493,2_24_1,24,1.0,2108.40290423,2_ND,test,05,5,43.0,10011,ignore,1.0,7500.0,0.388023536114
494,2_24_1,24,1.0,2110.54361673,2_ND,test,05,5,44.0,10001,ignore,1.0,7600.0,0.272213762197
495,2_24_1,24,1.0,2112.73118304,2_ND,test,05,5,45.0,10101,ignore,0.0,7500.0,0.279756582248
496,2_24_1,24,1.0,2114.93445848,2_ND,test,05,5,46.0,01101,ignore,1.0,7600.0,0.260316453343
497,2_24_1,24,1.0,2117.27832551,2_ND,test,05,5,47.0,10111,ignore,0.0,7500.0,0.427167109483
498,2_24_1,24,1.0,2119.41902165,2_ND,test,05,5,48.0,11101,ignore,1.0,7600.0,0.21120473442
499,2_24_1,24,1.0,2121.63789428,2_ND,test,05,5,49.0,00110,ignore,0.0,7500.0,0.350970771655
500,2_24_1,24,1.0,2123.95051175,2_ND,test,05,5,50.0,00101,ignore,0.0,7400.0,0.360392721843
501,2_24_1,24,1.0,2126.12245392,2_ND,test,05,5,51.0,01010,ignore,1.0,7500.0,0.259735940359
502,2_24_1,24,1.0,2128.43511212,2_ND,test,05,5,52.0,01111,ignore,0.0,7400.0,0.444578650207
503,2_24_1,24,1.0,2130.57582718,2_ND,test,05,5,53.0,11011,ignore,1.0,7500.0,0.228605049757
504,2_24_1,24,1.0,2132.81031498,2_ND,test,05,5,54.0,11010,ignore,1.0,7600.0,0.409216429351
505,2_24_1,24,1.0,2135.11980184,2_ND,test,05,5,55.0,01100,ignore,1.0,7700.0,0.377124645438
506,2_24_1,24,1.0,2137.33863728,2_ND,test,05,5,56.0,10110,ignore,0.0,7600.0,0.267144376463
507,2_24_1,24,1.0,2139.47936806,2_ND,test,05,5,57.0,00000,ignore,1.0,7700.0,0.25874169161
508,2_24_1,24,1.0,2141.90135128,2_ND,test,05,5,58.0,00001,ignore,1.0,7800.0,0.481412038491
509,2_24_1,24,1.0,2144.10456867,2_ND,test,05,5,59.0,10100,ignore,0.0,7700.0,0.329604365972
510,2_24_1,24,1.0,2146.24529752,2_ND,test,05,5,60.0,00100,ignore,0.0,7600.0,0.238261770945
511,2_24_1,24,1.0,2148.45166572,2_ND,test,05,5,61.0,11111,ignore,0.0,7500.0,0.285779163882
512,2_24_1,24,1.0,2150.5767653,2_ND,test,05,5,62.0,10101,ignore,0.0,7400.0,0.262683086097
513,2_24_1,24,1.0,2152.88939175,2_ND,test,05,5,63.0,01000,ignore,1.0,7500.0,0.472256931836
514,2_24_1,24,1.0,2155.5457704,2_ND,test,05,5,64.0,11001,ignore,1.0,7600.0,0.809810476945
515,2_24_1,24,1.0,2158.01472514,2_ND,test,05,5,65.0,00000,ignore,1.0,7700.0,0.554896322308
516,2_24_1,24,1.0,2160.40537927,2_ND,test,05,5,66.0,01010,ignore,1.0,7800.0,0.445581879274
517,2_24_1,24,1.0,2162.67110572,2_ND,test,05,5,67.0,00111,ignore,0.0,7700.0,0.406885076391
518,2_24_1,24,1.0,2165.09310626,2_ND,test,05,5,68.0,00011,ignore,1.0,7800.0,0.529665496229
519,2_24_1,24,1.0,2167.35881604,2_ND,test,05,5,69.0,10011,ignore,1.0,7900.0,0.324297001986
520,2_24_1,24,1.0,2169.78080856,2_ND,test,05,5,70.0,10010,ignore,1.0,8000.0,0.49708396463
521,2_24_1,24,1.0,2171.96842138,2_ND,test,05,5,71.0,11100,ignore,1.0,8100.0,0.261571131119
522,2_24_1,24,1.0,2174.37477277,2_ND,test,05,5,72.0,10001,ignore,1.0,8200.0,0.559435548945
523,2_24_1,24,1.0,2176.56241348,2_ND,test,05,5,73.0,11011,ignore,1.0,8300.0,0.249851183413
524,2_24_1,24,1.0,2178.74065855,2_ND,test,05,5,74.0,10110,ignore,0.0,8200.0,0.248649104597
525,2_24_1,24,1.0,2180.97512646,2_ND,test,05,5,75.0,01001,ignore,1.0,8300.0,0.354318182694
526,2_24_1,24,1.0,2183.19399397,2_ND,test,05,5,76.0,01111,ignore,0.0,8200.0,0.28504181618
527,2_24_1,24,1.0,2186.35035594,2_ND,test,05,5,77.0,00010,ignore,1.0,8300.0,1.31795080842
