,unique_id,pair_id,sbj_id,wall_time,condition,block,rule_id,rule_num,trial,stimulus,choice,correct,points,reaction_time
0,2_23_1,23,1.0,53.023452083,2_ND,training,03,1_A,1.0,10000,ignore,1.0,100.0,2.63035691606
1,2_23_1,23,1.0,58.5081201258,2_ND,training,03,1_A,2.0,00100,kill,0.0,0.0,3.34575256933
2,2_23_1,23,1.0,64.664636368,2_ND,training,03,1_A,3.0,01001,ignore,0.0,0.0,4.01844491798
3,2_23_1,23,1.0,72.2118577313,2_ND,training,03,1_A,4.0,01111,ignore,0.0,0.0,5.41536216954
4,2_23_1,23,1.0,75.8683005274,2_ND,training,03,1_A,5.0,10111,kill,0.0,0.0,1.49041576276
5,2_23_1,23,1.0,81.8216840521,2_ND,training,03,1_A,6.0,01011,kill,1.0,100.0,3.78945243193
6,2_23_1,23,1.0,88.4938805593,2_ND,training,03,1_A,7.0,11001,ignore,1.0,200.0,4.49842010666
7,2_23_1,23,1.0,105.4322211,2_ND,training,03,1_A,8.0,11101,kill,0.0,100.0,14.7949166306
8,2_23_1,23,1.0,116.495223116,2_ND,training,03,1_A,9.0,00011,kill,0.0,0.0,8.92038472937
9,2_23_1,23,1.0,126.167557535,2_ND,training,03,1_A,10.0,01100,ignore,0.0,0.0,7.53242341398
10,2_23_1,23,1.0,129.298978939,2_ND,training,03,1_A,11.0,10010,ignore,1.0,100.0,1.01028758806
11,2_23_1,23,1.0,147.346744894,2_ND,training,03,1_A,12.0,00110,kill,0.0,0.0,15.9143457907
12,2_23_1,23,1.0,152.128199717,2_ND,training,03,1_A,13.0,00010,kill,0.0,0.0,2.62540138784
13,2_23_1,23,1.0,155.581505947,2_ND,training,03,1_A,14.0,01110,ignore,0.0,0.0,1.23688682114
14,2_23_1,23,1.0,164.644414631,2_ND,training,03,1_A,15.0,11011,ignore,1.0,100.0,6.96342832365
15,2_23_1,23,1.0,169.847780516,2_ND,training,03,1_A,16.0,00000,kill,0.0,0.0,3.11395854688
16,2_23_1,23,1.0,174.551144477,2_ND,training,03,1_A,17.0,10001,ignore,1.0,100.0,2.63039091295
17,2_23_1,23,1.0,177.541930998,2_ND,training,03,1_A,18.0,00001,kill,0.0,0.0,0.910450580706
18,2_23_1,23,1.0,181.229578131,2_ND,training,03,1_A,19.0,10110,kill,0.0,0.0,1.57127769303
19,2_23_1,23,1.0,185.354825891,2_ND,training,03,1_A,20.0,10101,kill,0.0,0.0,2.02972001955
20,2_23_1,23,1.0,189.81937964,2_ND,training,03,1_A,21.0,11110,kill,1.0,100.0,2.40677763338
21,2_23_1,23,1.0,193.835185629,2_ND,training,03,1_A,22.0,01010,ignore,0.0,0.0,1.95246721224
22,2_23_1,23,1.0,198.964445665,2_ND,training,03,1_A,23.0,10011,kill,0.0,0.0,3.09304500547
23,2_23_1,23,1.0,204.12090578,2_ND,training,03,1_A,24.0,11100,ignore,0.0,0.0,3.07506770513
24,2_23_1,23,1.0,206.952345016,2_ND,training,03,1_A,25.0,01000,ignore,0.0,0.0,0.776548366032
25,2_23_1,23,1.0,217.499687934,2_ND,training,03,1_A,26.0,00111,ignore,1.0,100.0,8.46961672031
26,2_23_1,23,1.0,221.624900735,2_ND,training,03,1_A,27.0,11010,kill,1.0,200.0,2.08826331042
27,2_23_1,23,1.0,229.859634206,2_ND,training,03,1_A,28.0,10100,kill,0.0,100.0,6.15008184912
28,2_23_1,23,1.0,235.563029598,2_ND,training,03,1_A,29.0,11111,kill,0.0,0.0,3.64735311739
29,2_23_1,23,1.0,238.641311613,2_ND,training,03,1_A,30.0,11000,ignore,0.0,0.0,1.01468441262
30,2_23_1,23,1.0,260.814245468,2_ND,training,03,1_A,31.0,01101,ignore,0.0,0.0,20.1132943246
31,2_23_1,23,1.0,265.408231802,2_ND,training,03,1_A,32.0,00101,kill,0.0,0.0,2.52776968837
32,2_23_1,23,1.0,271.627299441,2_ND,training,03,1_A,33.0,11101,ignore,1.0,100.0,4.16525504726
33,2_23_1,23,1.0,278.643240456,2_ND,training,03,1_A,34.0,00011,ignore,1.0,200.0,4.96805671195
34,2_23_1,23,1.0,282.243388246,2_ND,training,03,1_A,35.0,10010,kill,0.0,100.0,1.56148626718
35,2_23_1,23,1.0,294.837749188,2_ND,training,03,1_A,36.0,10101,kill,0.0,0.0,10.5673908219
36,2_23_1,23,1.0,306.478912305,2_ND,training,03,1_A,37.0,10110,kill,0.0,0.0,9.58032760176
37,2_23_1,23,1.0,311.322889338,2_ND,training,03,1_A,38.0,11010,kill,1.0,100.0,2.80255630976
38,2_23_1,23,1.0,314.573078566,2_ND,training,03,1_A,39.0,11000,kill,1.0,200.0,1.22941776793
39,2_23_1,23,1.0,317.495086487,2_ND,training,03,1_A,40.0,10100,ignore,1.0,300.0,0.872032808926
40,2_23_1,23,1.0,320.333747497,2_ND,training,03,1_A,41.0,00100,ignore,1.0,400.0,0.80088917911
41,2_23_1,23,1.0,323.443228076,2_ND,training,03,1_A,42.0,01010,kill,1.0,500.0,1.07712002699
42,2_23_1,23,1.0,327.084062128,2_ND,training,03,1_A,43.0,01001,kill,1.0,600.0,1.58194983085
43,2_23_1,23,1.0,330.224824659,2_ND,training,03,1_A,44.0,11110,ignore,0.0,500.0,1.11491623294
44,2_23_1,23,1.0,334.037483499,2_ND,training,03,1_A,45.0,01000,kill,1.0,600.0,1.79433258968
45,2_23_1,23,1.0,337.209538245,2_ND,training,03,1_A,46.0,10001,kill,0.0,500.0,1.10911046168
46,2_23_1,23,1.0,341.181583819,2_ND,training,03,1_A,47.0,00101,ignore,1.0,600.0,1.9325443916
47,2_23_1,23,1.0,345.041142013,2_ND,training,03,1_A,48.0,00001,kill,0.0,500.0,1.8265305337
48,2_23_1,23,1.0,348.478796523,2_ND,training,03,1_A,49.0,00010,kill,0.0,400.0,1.41404687466
49,2_23_1,23,1.0,360.46372275,2_ND,training,03,1_A,50.0,11001,kill,0.0,300.0,9.92040750087
50,2_23_1,23,1.0,363.760897608,2_ND,training,03,1_A,51.0,00000,kill,0.0,200.0,1.2558404096
51,2_23_1,23,1.0,367.510945396,2_ND,training,03,1_A,52.0,00111,ignore,1.0,300.0,1.72170752922
52,2_23_1,23,1.0,370.448597981,2_ND,training,03,1_A,53.0,00110,ignore,1.0,400.0,0.896794734459
53,2_23_1,23,1.0,374.901920247,2_ND,training,03,1_A,54.0,11111,kill,0.0,300.0,2.44160520499
54,2_23_1,23,1.0,378.558384532,2_ND,training,03,1_A,55.0,11011,kill,0.0,200.0,1.61929766268
55,2_23_1,23,1.0,381.527328691,2_ND,training,03,1_A,56.0,11100,ignore,0.0,100.0,0.942255315382
56,2_23_1,23,1.0,386.183805163,2_ND,training,03,1_A,57.0,01011,kill,1.0,200.0,2.63766785164
57,2_23_1,23,1.0,389.933943717,2_ND,training,03,1_A,58.0,10000,ignore,1.0,300.0,1.71069959191
58,2_23_1,23,1.0,393.340363741,2_ND,training,03,1_A,59.0,10111,ignore,1.0,400.0,1.38318507267
59,2_23_1,23,1.0,397.528085924,2_ND,training,03,1_A,60.0,01110,ignore,0.0,300.0,2.17988814381
60,2_23_1,23,1.0,403.668991819,2_ND,training,03,1_A,61.0,01111,ignore,0.0,200.0,4.11262400848
61,2_23_1,23,1.0,406.528510564,2_ND,training,03,1_A,62.0,10011,kill,0.0,100.0,0.854845775982
62,2_23_1,23,1.0,410.406840816,2_ND,training,03,1_A,63.0,01100,ignore,0.0,0.0,1.88244483844
63,2_23_1,23,1.0,413.735116096,2_ND,training,03,1_A,64.0,01101,ignore,0.0,0.0,1.31585390573
64,2_23_1,23,1.0,416.735249197,2_ND,training,03,1_A,65.0,01001,ignore,0.0,0.0,0.971002895509
65,2_23_1,23,1.0,419.876034179,2_ND,training,03,1_A,66.0,00111,ignore,1.0,100.0,1.08802244565
66,2_23_1,23,1.0,423.032450676,2_ND,training,03,1_A,67.0,10110,ignore,1.0,200.0,1.14527064734
67,2_23_1,23,1.0,426.720071509,2_ND,training,03,1_A,68.0,10101,kill,0.0,100.0,1.63166002337
68,2_23_1,23,1.0,430.09525769,2_ND,training,03,1_A,69.0,10010,kill,0.0,0.0,1.34491451385
69,2_23_1,23,1.0,433.579823101,2_ND,training,03,1_A,70.0,01000,kill,1.0,100.0,1.45573187613
70,2_23_1,23,1.0,439.330072946,2_ND,training,03,1_A,71.0,11010,kill,1.0,200.0,3.74671416824
71,2_23_1,23,1.0,446.158535529,2_ND,training,03,1_A,72.0,00001,ignore,1.0,300.0,4.82418250302
72,2_23_1,23,1.0,451.002595951,2_ND,training,03,1_A,73.0,01011,kill,1.0,400.0,2.80042797598
73,2_23_1,23,1.0,455.969714221,2_ND,training,03,1_A,74.0,11110,ignore,0.0,300.0,2.94779520528
74,2_23_1,23,1.0,459.188628873,2_ND,training,03,1_A,75.0,10011,ignore,1.0,400.0,1.22539907862
75,2_23_1,23,1.0,462.079394291,2_ND,training,03,1_A,76.0,10001,ignore,1.0,500.0,0.860847510465
76,2_23_1,23,1.0,465.079522902,2_ND,training,03,1_A,77.0,10100,ignore,1.0,600.0,1.00044452541
77,2_23_1,23,1.0,468.142175968,2_ND,training,03,1_A,78.0,11000,kill,1.0,700.0,1.04451187518
78,2_23_1,23,1.0,471.095420298,2_ND,training,03,1_A,79.0,10000,ignore,1.0,800.0,0.943958367277
79,2_23_1,23,1.0,474.376861651,2_ND,training,03,1_A,80.0,01010,kill,1.0,900.0,1.26425848928
80,2_23_1,23,1.0,477.45509684,2_ND,training,03,1_A,81.0,11011,kill,0.0,800.0,1.04950075884
81,2_23_1,23,1.0,482.502204346,2_ND,training,03,1_A,82.0,01100,ignore,0.0,700.0,3.04452887363
82,2_23_1,23,1.0,486.080506246,2_ND,training,03,1_A,83.0,01101,kill,1.0,800.0,1.55809652039
83,2_23_1,23,1.0,488.956310144,2_ND,training,03,1_A,84.0,11101,kill,0.0,700.0,0.83613882535
84,2_23_1,23,1.0,491.815823758,2_ND,training,03,1_A,85.0,00000,ignore,1.0,800.0,0.855553937674
85,2_23_1,23,1.0,495.800361265,2_ND,training,03,1_A,86.0,11001,kill,0.0,700.0,1.98719920768
86,2_23_1,23,1.0,498.644224441,2_ND,training,03,1_A,87.0,00011,ignore,1.0,800.0,0.815987968949
87,2_23_1,23,1.0,505.988365045,2_ND,training,03,1_A,88.0,11111,ignore,1.0,900.0,5.34003948771
88,2_23_1,23,1.0,510.160421395,2_ND,training,03,1_A,89.0,00010,ignore,1.0,1000.0,2.15222429482
89,2_23_1,23,1.0,514.995050245,2_ND,training,03,1_A,90.0,01110,ignore,0.0,900.0,2.86326898726
90,2_23_1,23,1.0,519.120221352,2_ND,training,03,1_A,91.0,01111,ignore,0.0,800.0,2.07928748927
91,2_23_1,23,1.0,522.042270967,2_ND,training,03,1_A,92.0,10111,ignore,1.0,900.0,0.880072432625
92,2_23_1,23,1.0,526.292441593,2_ND,training,03,1_A,93.0,00101,ignore,1.0,1000.0,2.21686906578
93,2_23_1,23,1.0,529.933254157,2_ND,training,03,1_A,94.0,00100,ignore,1.0,1100.0,1.58662985594
94,2_23_1,23,1.0,533.167777232,2_ND,training,03,1_A,95.0,11100,kill,1.0,1200.0,1.24062166846
95,2_23_1,23,1.0,536.667941443,2_ND,training,03,1_A,96.0,00110,ignore,1.0,1300.0,1.46692711708
96,2_23_1,23,1.0,539.886864755,2_ND,training,03,1_A,97.0,11001,kill,0.0,1200.0,1.20495924863
97,2_23_1,23,1.0,544.058911804,2_ND,training,03,1_A,98.0,11000,kill,1.0,1300.0,2.17817258362
98,2_23_1,23,1.0,550.652967095,2_ND,training,03,1_A,99.0,01010,kill,1.0,1400.0,4.56727536072
99,2_23_1,23,1.0,554.137515828,2_ND,training,03,1_A,100.0,11111,ignore,1.0,1500.0,1.48311284531
100,2_23_1,23,1.0,559.700262546,2_ND,training,03,1_A,101.0,10101,ignore,1.0,1600.0,3.53950663453
101,2_23_1,23,1.0,563.841128992,2_ND,training,03,1_A,102.0,11100,ignore,0.0,1500.0,2.12098147105
102,2_23_1,23,1.0,566.825634748,2_ND,training,03,1_A,103.0,00100,ignore,1.0,1600.0,0.976229436691
103,2_23_1,23,1.0,571.747716435,2_ND,training,03,1_A,104.0,11101,ignore,1.0,1700.0,2.91896135002
104,2_23_1,23,1.0,577.169872852,2_ND,training,03,1_A,105.0,10011,kill,0.0,1600.0,3.40592546598
105,2_23_1,23,1.0,580.420018782,2_ND,training,03,1_A,106.0,00101,ignore,1.0,1700.0,1.24036893685
106,2_23_1,23,1.0,588.389148641,2_ND,training,03,1_A,107.0,01110,ignore,0.0,1600.0,5.98052266695
107,2_23_1,23,1.0,591.420578127,2_ND,training,03,1_A,108.0,00110,ignore,1.0,1700.0,1.03976321485
108,2_23_1,23,1.0,594.998831597,2_ND,training,03,1_A,109.0,00011,ignore,1.0,1800.0,1.55477669173
109,2_23_1,23,1.0,598.73339348,2_ND,training,03,1_A,110.0,00001,ignore,1.0,1900.0,1.72923078502
110,2_23_1,23,1.0,603.358618469,2_ND,training,03,1_A,111.0,01000,kill,1.0,2000.0,2.61739800611
111,2_23_1,23,1.0,607.21690627,2_ND,training,03,1_A,112.0,01111,ignore,0.0,1900.0,1.84427402522
112,2_23_1,23,1.0,610.217027183,2_ND,training,03,1_A,113.0,00111,ignore,1.0,2000.0,0.999519553345
113,2_23_1,23,1.0,614.217250729,2_ND,training,03,1_A,114.0,01101,ignore,0.0,1900.0,1.96374071019
114,2_23_1,23,1.0,617.748605807,2_ND,training,03,1_A,115.0,11011,kill,0.0,1800.0,1.54587303379
115,2_23_1,23,1.0,620.780052933,2_ND,training,03,1_A,116.0,00010,ignore,1.0,1900.0,1.01741410653
116,2_23_1,23,1.0,625.233392197,2_ND,training,03,1_A,117.0,10000,ignore,1.0,2000.0,2.44579772747
117,2_23_1,23,1.0,629.921115342,2_ND,training,03,1_A,118.0,01100,kill,1.0,2100.0,2.68853939085
118,2_23_1,23,1.0,632.936868411,2_ND,training,03,1_A,119.0,01001,kill,1.0,2200.0,1.02548933075
119,2_23_1,23,1.0,635.811996541,2_ND,training,03,1_A,120.0,10001,ignore,1.0,2300.0,0.861128145194
120,2_23_1,23,1.0,638.921534851,2_ND,training,03,1_A,121.0,10110,ignore,1.0,2400.0,1.09596168229
121,2_23_1,23,1.0,641.8279305,2_ND,training,03,1_A,122.0,11010,kill,1.0,2500.0,0.897897067672
122,2_23_1,23,1.0,644.609305463,2_ND,training,03,1_A,123.0,10100,ignore,1.0,2600.0,0.77950032265
123,2_23_1,23,1.0,651.109624905,2_ND,training,03,1_A,124.0,11110,kill,1.0,2700.0,4.50595587075
124,2_23_1,23,1.0,654.219143009,2_ND,training,03,1_A,125.0,10010,ignore,1.0,2800.0,1.09660698181
125,2_23_1,23,1.0,657.1567539,2_ND,training,03,1_A,126.0,00000,ignore,1.0,2900.0,0.954574378145
126,2_23_1,23,1.0,660.125649629,2_ND,training,03,1_A,127.0,01011,kill,1.0,3000.0,0.98696539886
127,2_23_1,23,1.0,662.953915287,2_ND,training,03,1_A,128.0,10111,ignore,1.0,3100.0,0.824565128425
128,2_23_1,23,1.0,665.829056567,2_ND,training,03,1_A,129.0,01101,kill,1.0,3200.0,0.877470387423
129,2_23_1,23,1.0,668.829211157,2_ND,training,03,1_A,130.0,01110,kill,1.0,3300.0,1.0083186548
130,2_23_1,23,1.0,672.157472966,2_ND,training,03,1_A,131.0,11001,kill,0.0,3200.0,1.3752884925
131,2_23_1,23,1.0,676.595189696,2_ND,training,03,1_A,132.0,11101,kill,0.0,3100.0,2.42101206826
132,2_23_1,23,1.0,679.485954472,2_ND,training,03,1_A,133.0,10010,ignore,1.0,3200.0,0.880615741459
133,2_23_1,23,1.0,682.970483641,2_ND,training,03,1_A,134.0,10111,ignore,1.0,3300.0,1.49990634818
134,2_23_1,23,1.0,688.298884645,2_ND,training,03,1_A,135.0,01000,kill,1.0,3400.0,3.32494454658
135,2_23_1,23,1.0,693.814735857,2_ND,training,03,1_A,136.0,01011,kill,1.0,3500.0,3.54046303768
136,2_23_1,23,1.0,697.783701505,2_ND,training,03,1_A,137.0,11110,kill,1.0,3600.0,1.97059846077
137,2_23_1,23,1.0,701.502645022,2_ND,training,03,1_A,138.0,00101,ignore,1.0,3700.0,1.71189236969
138,2_23_1,23,1.0,704.409034899,2_ND,training,03,1_A,139.0,11100,kill,1.0,3800.0,0.913700811948
139,2_23_1,23,1.0,707.75293143,2_ND,training,03,1_A,140.0,11000,kill,1.0,3900.0,1.34629074656
140,2_23_1,23,1.0,710.706167421,2_ND,training,03,1_A,141.0,11010,kill,1.0,4000.0,1.00356197634
141,2_23_1,23,1.0,713.62821447,2_ND,training,03,1_A,142.0,10000,ignore,1.0,4100.0,0.94568034197
142,2_23_1,23,1.0,716.831473554,2_ND,training,03,1_A,143.0,00010,ignore,1.0,4200.0,1.20214327958
143,2_23_1,23,1.0,719.925392215,2_ND,training,03,1_A,144.0,01100,kill,1.0,4300.0,1.12092951354
144,2_23_1,23,1.0,723.847420341,2_ND,training,03,1_A,145.0,00011,ignore,1.0,4400.0,1.92137192216
145,2_23_1,23,1.0,727.44138198,2_ND,training,03,1_A,146.0,01111,kill,1.0,4500.0,1.6097445358
146,2_23_1,23,1.0,730.566515242,2_ND,training,03,1_A,147.0,00111,ignore,1.0,4600.0,1.12647838375
147,2_23_1,23,1.0,734.854336785,2_ND,training,03,1_A,148.0,11011,kill,0.0,4500.0,2.3202180163
148,2_23_1,23,1.0,738.213917751,2_ND,training,03,1_A,149.0,00000,kill,0.0,4400.0,1.39316700942
149,2_23_1,23,1.0,743.345578415,2_ND,training,03,1_A,150.0,01010,kill,1.0,4500.0,3.13506933442
150,2_23_1,23,1.0,746.78320406,2_ND,training,03,1_A,151.0,00001,ignore,1.0,4600.0,1.4214242004
151,2_23_1,23,1.0,749.627114382,2_ND,training,03,1_A,152.0,10011,ignore,1.0,4700.0,0.874572312674
152,2_23_1,23,1.0,753.064765043,2_ND,training,03,1_A,153.0,10101,ignore,1.0,4800.0,1.4290055075
153,2_23_1,23,1.0,756.564917067,2_ND,training,03,1_A,154.0,01001,ignore,0.0,4700.0,1.53083005017
154,2_23_1,23,1.0,760.518243823,2_ND,training,03,1_A,155.0,11111,kill,0.0,4600.0,1.93784020947
155,2_23_1,23,1.0,763.433200275,2_ND,training,03,1_A,156.0,10110,ignore,1.0,4700.0,0.913314979287
156,2_23_1,23,1.0,766.214550221,2_ND,training,03,1_A,157.0,00100,ignore,1.0,4800.0,0.794916630638
157,2_23_1,23,1.0,768.808422057,2_ND,training,03,1_A,158.0,00110,ignore,1.0,4900.0,0.601291497056
158,2_23_1,23,1.0,771.761722514,2_ND,training,03,1_A,159.0,10100,ignore,1.0,5000.0,0.984648157817
159,2_23_1,23,1.0,774.402458104,2_ND,training,03,1_A,160.0,10001,ignore,1.0,5100.0,0.630554803633
160,2_23_1,23,1.0,777.011931947,2_ND,training,03,1_A,161.0,10000,ignore,1.0,5200.0,0.62700725994
161,2_23_1,23,1.0,779.449553743,2_ND,training,03,1_A,162.0,10011,ignore,1.0,5300.0,0.473744135536
162,2_23_1,23,1.0,782.418459094,2_ND,training,03,1_A,163.0,11110,kill,1.0,5400.0,1.00626216351
163,2_23_1,23,1.0,785.184196127,2_ND,training,03,1_A,164.0,01100,kill,1.0,5500.0,0.771835626947
164,2_23_1,23,1.0,788.856273325,2_ND,training,03,1_A,165.0,10010,ignore,1.0,5600.0,1.69135054902
165,2_23_1,23,1.0,793.059589818,2_ND,training,03,1_A,166.0,01010,kill,1.0,5700.0,2.22973239955
166,2_23_1,23,1.0,796.356621312,2_ND,training,03,1_A,167.0,01110,kill,1.0,5800.0,1.33157458213
167,2_23_1,23,1.0,799.669272454,2_ND,training,03,1_A,168.0,11101,kill,0.0,5700.0,1.33240910963
168,2_23_1,23,1.0,803.200683017,2_ND,training,03,1_A,169.0,10110,ignore,1.0,5800.0,1.55669559182
169,2_23_1,23,1.0,807.419645457,2_ND,training,03,1_A,170.0,11000,kill,1.0,5900.0,2.26111024872
170,2_23_1,23,1.0,812.216726984,2_ND,training,03,1_A,171.0,01111,kill,1.0,6000.0,2.80841243491
171,2_23_1,23,1.0,816.01381204,2_ND,training,03,1_A,172.0,11010,kill,1.0,6100.0,1.86255697687
172,2_23_1,23,1.0,819.467124363,2_ND,training,03,1_A,173.0,10111,ignore,1.0,6200.0,1.42377447616
173,2_23_1,23,1.0,822.857855463,2_ND,training,03,1_A,174.0,01011,ignore,0.0,6100.0,1.39711770494
174,2_23_1,23,1.0,826.201794651,2_ND,training,03,1_A,175.0,01000,kill,1.0,6200.0,1.38753186407
175,2_23_1,23,1.0,828.998779961,2_ND,training,03,1_A,176.0,00001,ignore,1.0,6300.0,0.802079070358
176,2_23_1,23,1.0,831.702042893,2_ND,training,03,1_A,177.0,00010,ignore,1.0,6400.0,0.729422578812
177,2_23_1,23,1.0,834.264644322,2_ND,training,03,1_A,178.0,00110,ignore,1.0,6500.0,0.552873827909
178,2_23_1,23,1.0,836.70228055,2_ND,training,03,1_A,179.0,00100,ignore,1.0,6600.0,0.440930398739
179,2_23_1,23,1.0,839.139903628,2_ND,training,03,1_A,180.0,10100,ignore,1.0,6700.0,0.454133380715
180,2_23_1,23,1.0,841.655648359,2_ND,training,03,1_A,181.0,10001,ignore,1.0,6800.0,0.514424945765
181,2_23_1,23,1.0,953.910961817,2_ND,test,03,2,0.0,11111,kill,1.0,100.0,4.17956966348
182,2_23_1,23,1.0,962.289533575,2_ND,test,03,2,1.0,01101,kill,0.0,0.0,6.38302214416
183,2_23_1,23,1.0,966.867849587,2_ND,test,03,2,2.0,11001,ignore,0.0,0.0,2.5603489749
184,2_23_1,23,1.0,970.352430393,2_ND,test,03,2,3.0,00011,ignore,0.0,0.0,1.49465350752
185,2_23_1,23,1.0,985.243734629,2_ND,test,03,2,4.0,00000,kill,0.0,0.0,12.8086266795
186,2_23_1,23,1.0,992.337837387,2_ND,test,03,2,5.0,00101,ignore,1.0,100.0,5.05549800316
187,2_23_1,23,1.0,1000.21321664,2_ND,test,03,2,6.0,11100,ignore,1.0,200.0,5.8796125124
188,2_23_1,23,1.0,1009.63556678,2_ND,test,03,2,7.0,00111,ignore,0.0,100.0,7.396983321
189,2_23_1,23,1.0,1015.51080364,2_ND,test,03,2,8.0,11011,kill,1.0,200.0,3.90331700627
190,2_23_1,23,1.0,1022.66738851,2_ND,test,03,2,9.0,01001,ignore,0.0,100.0,5.12503415726
191,2_23_1,23,1.0,1030.62088461,2_ND,test,03,2,10.0,10101,ignore,1.0,200.0,5.92114420712
192,2_23_1,23,1.0,1043.21523657,2_ND,test,03,2,11.0,00000,kill,0.0,100.0,10.6142378987
193,2_23_1,23,1.0,1048.91862138,2_ND,test,03,2,12.0,10011,kill,1.0,200.0,3.70801704463
194,2_23_1,23,1.0,1052.12193723,2_ND,test,03,2,13.0,11010,kill,0.0,100.0,1.25345838203
195,2_23_1,23,1.0,1057.27842493,2_ND,test,03,2,14.0,01010,ignore,1.0,200.0,3.14395150375
196,2_23_1,23,1.0,1061.57545642,2_ND,test,03,2,15.0,11110,ignore,1.0,300.0,2.31045321065
197,2_23_1,23,1.0,1066.18509448,2_ND,test,03,2,16.0,11101,ignore,1.0,400.0,2.64027759425
198,2_23_1,23,1.0,1069.3727554,2_ND,test,03,2,17.0,10100,kill,0.0,300.0,1.1868507716
199,2_23_1,23,1.0,1072.79477455,2_ND,test,03,2,18.0,11001,ignore,0.0,200.0,1.45820210319
200,2_23_1,23,1.0,1082.1545967,2_ND,test,03,2,19.0,11000,kill,0.0,100.0,7.36569687857
201,2_23_1,23,1.0,1094.57706294,2_ND,test,03,2,20.0,11100,kill,0.0,0.0,10.4316056283
202,2_23_1,23,1.0,1099.78065654,2_ND,test,03,2,21.0,00111,kill,1.0,100.0,3.23802315124
203,2_23_1,23,1.0,1103.07772107,2_ND,test,03,2,22.0,11011,kill,1.0,200.0,1.33835632079
204,2_23_1,23,1.0,1106.4372071,2_ND,test,03,2,23.0,00011,kill,1.0,300.0,1.35380470132
205,2_23_1,23,1.0,1109.84363418,2_ND,test,03,2,24.0,01001,ignore,0.0,200.0,1.41796229039
206,2_23_1,23,1.0,1117.82838144,2_ND,test,03,2,25.0,10001,ignore,0.0,100.0,5.98994782439
207,2_23_1,23,1.0,1122.1751289,2_ND,test,03,2,26.0,10101,kill,0.0,0.0,2.36933614973
208,2_23_1,23,1.0,1129.81923179,2_ND,test,03,2,27.0,00010,ignore,1.0,100.0,5.65475417681
209,2_23_1,23,1.0,1135.02261916,2_ND,test,03,2,28.0,01000,ignore,1.0,200.0,3.22333200339
210,2_23_1,23,1.0,1139.19466011,2_ND,test,03,2,29.0,01101,kill,0.0,100.0,2.22853930105
211,2_23_1,23,1.0,1143.72612264,2_ND,test,03,2,30.0,11111,kill,1.0,200.0,2.57772651873
212,2_23_1,23,1.0,1147.13254587,2_ND,test,03,2,31.0,10110,ignore,1.0,300.0,1.465894702
213,2_23_1,23,1.0,1151.88279956,2_ND,test,03,2,32.0,00100,kill,0.0,200.0,2.74782580249
214,2_23_1,23,1.0,1156.77360763,2_ND,test,03,2,33.0,00001,ignore,0.0,100.0,2.89918125219
215,2_23_1,23,1.0,1166.86787364,2_ND,test,03,2,34.0,00101,ignore,1.0,200.0,8.12452580749
216,2_23_1,23,1.0,1171.88371459,2_ND,test,03,2,35.0,01110,ignore,1.0,300.0,3.06460660463
217,2_23_1,23,1.0,1176.05581231,2_ND,test,03,2,36.0,01100,kill,0.0,200.0,2.24519970288
218,2_23_1,23,1.0,1180.79042712,2_ND,test,03,2,37.0,01011,kill,1.0,300.0,2.79463856171
219,2_23_1,23,1.0,1185.04062885,2_ND,test,03,2,38.0,10111,kill,1.0,400.0,2.27276188191
220,2_23_1,23,1.0,1190.74399859,2_ND,test,03,2,39.0,10010,ignore,1.0,500.0,3.75619545263
221,2_23_1,23,1.0,1194.30665518,2_ND,test,03,2,40.0,01111,kill,1.0,600.0,1.60298043703
222,2_23_1,23,1.0,1197.90058122,2_ND,test,03,2,41.0,00110,ignore,1.0,700.0,1.65888544073
223,2_23_1,23,1.0,1204.60406289,2_ND,test,03,2,42.0,10000,ignore,1.0,800.0,4.74293153282
224,2_23_1,23,1.0,1211.11995547,2_ND,test,03,2,43.0,01000,kill,0.0,700.0,4.56544498084
225,2_23_1,23,1.0,1221.47982894,2_ND,test,03,2,44.0,10001,kill,1.0,800.0,8.42076446824
226,2_23_1,23,1.0,1225.49567566,2_ND,test,03,2,45.0,00001,kill,1.0,900.0,2.06943640849
227,2_23_1,23,1.0,1228.74579914,2_ND,test,03,2,46.0,10101,kill,0.0,800.0,1.28892515937
228,2_23_1,23,1.0,1232.88672748,2_ND,test,03,2,47.0,00110,ignore,1.0,900.0,2.18081920966
229,2_23_1,23,1.0,1235.85554752,2_ND,test,03,2,48.0,10111,kill,1.0,1000.0,1.00342727167
230,2_23_1,23,1.0,1241.46514517,2_ND,test,03,2,49.0,01101,ignore,1.0,1100.0,3.67544064463
231,2_23_1,23,1.0,1247.46545819,2_ND,test,03,2,50.0,10000,kill,0.0,1000.0,4.0122690296
232,2_23_1,23,1.0,1252.04379056,2_ND,test,03,2,51.0,10110,ignore,1.0,1100.0,2.60038608924
233,2_23_1,23,1.0,1255.13769383,2_ND,test,03,2,52.0,01111,kill,1.0,1200.0,1.15104370461
234,2_23_1,23,1.0,1258.73161955,2_ND,test,03,2,53.0,11010,ignore,1.0,1300.0,1.64045046524
235,2_23_1,23,1.0,1261.41924295,2_ND,test,03,2,54.0,01110,ignore,1.0,1400.0,0.77538669862
236,2_23_1,23,1.0,1264.31001093,2_ND,test,03,2,55.0,00010,ignore,1.0,1500.0,0.910250768779
237,2_23_1,23,1.0,1267.73203938,2_ND,test,03,2,56.0,11011,kill,1.0,1600.0,1.4658177279
238,2_23_1,23,1.0,1271.56033935,2_ND,test,03,2,57.0,11001,ignore,0.0,1500.0,1.89520233283
239,2_23_1,23,1.0,1276.51370716,2_ND,test,03,2,58.0,01001,ignore,0.0,1400.0,2.99403514894
240,2_23_1,23,1.0,1280.65454025,2_ND,test,03,2,59.0,01011,kill,1.0,1500.0,2.23389413239
241,2_23_1,23,1.0,1283.98286974,2_ND,test,03,2,60.0,11111,kill,1.0,1600.0,1.39181034096
242,2_23_1,23,1.0,1288.39123945,2_ND,test,03,2,61.0,00101,kill,0.0,1500.0,2.41468383531
243,2_23_1,23,1.0,1295.0790617,2_ND,test,03,2,62.0,00100,kill,0.0,1400.0,4.76474118101
244,2_23_1,23,1.0,1304.01699556,2_ND,test,03,2,63.0,11101,ignore,1.0,1500.0,6.99489725882
245,2_23_1,23,1.0,1312.43928508,2_ND,test,03,2,64.0,11100,ignore,1.0,1600.0,6.46189461476
246,2_23_1,23,1.0,1316.23633549,2_ND,test,03,2,65.0,00111,kill,1.0,1700.0,1.84666407093
247,2_23_1,23,1.0,1319.9396382,2_ND,test,03,2,66.0,11000,ignore,1.0,1800.0,1.75570795001
248,2_23_1,23,1.0,1324.33047738,2_ND,test,03,2,67.0,00000,kill,0.0,1700.0,2.4699031281
249,2_23_1,23,1.0,1329.69010902,2_ND,test,03,2,68.0,10100,ignore,1.0,1800.0,3.36817287869
250,2_23_1,23,1.0,1339.3723205,2_ND,test,03,2,69.0,01100,ignore,1.0,1900.0,7.72612680456
251,2_23_1,23,1.0,1342.7005945,2_ND,test,03,2,70.0,11110,ignore,1.0,2000.0,1.42973932722
252,2_23_1,23,1.0,1345.81010394,2_ND,test,03,2,71.0,00011,kill,1.0,2100.0,1.14758019097
253,2_23_1,23,1.0,1348.70096975,2_ND,test,03,2,72.0,10011,kill,1.0,2200.0,0.966228577146
254,2_23_1,23,1.0,1351.57610974,2_ND,test,03,2,73.0,01010,ignore,1.0,2300.0,0.869052628473
255,2_23_1,23,1.0,1354.46687676,2_ND,test,03,2,74.0,10010,ignore,1.0,2400.0,0.937495429663
256,2_23_1,23,1.0,1357.37321885,2_ND,test,03,2,75.0,00110,ignore,1.0,2500.0,0.972514474337
257,2_23_1,23,1.0,1360.62342764,2_ND,test,03,2,76.0,11100,ignore,1.0,2600.0,1.29255384659
258,2_23_1,23,1.0,1363.46730782,2_ND,test,03,2,77.0,01101,kill,0.0,2500.0,0.913970221288
259,2_23_1,23,1.0,1371.71765035,2_ND,test,03,2,78.0,10001,kill,1.0,2600.0,6.31684173997
260,2_23_1,23,1.0,1374.73341882,2_ND,test,03,3,0.0,01110,ignore,1.0,2700.0,1.06803451775
261,2_23_1,23,1.0,1379.65510313,2_ND,test,03,3,1.0,11101,ignore,0.0,2600.0,3.01041042588
262,2_23_1,23,1.0,1383.20221256,2_ND,test,03,3,2.0,11111,kill,1.0,2700.0,1.59222394844
263,2_23_1,23,1.0,1388.15558325,2_ND,test,03,3,3.0,00100,ignore,1.0,2800.0,3.02470611931
264,2_23_1,23,1.0,1391.81200584,2_ND,test,03,3,4.0,11010,ignore,0.0,2700.0,1.73469241792
265,2_23_1,23,1.0,1396.18724526,2_ND,test,03,3,5.0,00111,ignore,1.0,2800.0,2.40753230026
266,2_23_1,23,1.0,1399.17689096,2_ND,test,03,3,6.0,11011,ignore,0.0,2700.0,1.10395768734
267,2_23_1,23,1.0,1404.80219453,2_ND,test,03,3,7.0,10000,kill,1.0,2800.0,3.6927277439
268,2_23_1,23,1.0,1408.75550621,2_ND,test,03,3,8.0,10010,kill,1.0,2900.0,1.98194893282
269,2_23_1,23,1.0,1416.47461555,2_ND,test,03,3,9.0,01000,kill,0.0,2800.0,5.78130247869
270,2_23_1,23,1.0,1420.365448,2_ND,test,03,3,10.0,00010,kill,0.0,2700.0,1.92963092203
271,2_23_1,23,1.0,1424.88124436,2_ND,test,03,3,11.0,01010,ignore,1.0,2800.0,2.61296461886
272,2_23_1,23,1.0,1431.53785041,2_ND,test,03,3,12.0,10011,ignore,1.0,2900.0,4.6493708009
273,2_23_1,23,1.0,1436.08493835,2_ND,test,03,3,13.0,11000,ignore,0.0,2800.0,2.60377711894
274,2_23_1,23,1.0,1440.88206574,2_ND,test,03,3,14.0,01100,ignore,1.0,2900.0,2.85082901102
275,2_23_1,23,1.0,1445.13227197,2_ND,test,03,3,15.0,10111,kill,0.0,2800.0,2.2941132135
276,2_23_1,23,1.0,1456.71095232,2_ND,test,03,3,16.0,11001,ignore,0.0,2700.0,9.66660786701
277,2_23_1,23,1.0,1472.27417372,2_ND,test,03,3,17.0,00101,ignore,1.0,2800.0,13.5666024788
278,2_23_1,23,1.0,1477.49318106,2_ND,test,03,3,18.0,10110,kill,1.0,2900.0,3.25356742867
279,2_23_1,23,1.0,1482.3903706,2_ND,test,03,3,19.0,10101,ignore,1.0,3000.0,2.97764223209
280,2_23_1,23,1.0,1491.43767055,2_ND,test,03,3,20.0,01001,kill,0.0,2900.0,7.0967394414
281,2_23_1,23,1.0,1503.39136485,2_ND,test,03,3,21.0,01011,ignore,1.0,3000.0,10.0662965068
282,2_23_1,23,1.0,1507.86032088,2_ND,test,03,3,22.0,11110,kill,1.0,3100.0,2.52022301962
283,2_23_1,23,1.0,1514.12626446,2_ND,test,03,3,23.0,00000,kill,0.0,3000.0,4.31373583516
284,2_23_1,23,1.0,1526.01753053,2_ND,test,03,3,24.0,10100,ignore,0.0,2900.0,9.96330420291
285,2_23_1,23,1.0,1534.37728918,2_ND,test,03,3,25.0,00011,ignore,1.0,3000.0,6.4219633398
286,2_23_1,23,1.0,1541.86201912,2_ND,test,03,3,26.0,01111,kill,0.0,2900.0,5.52778668682
287,2_23_1,23,1.0,1547.36225774,2_ND,test,03,3,27.0,00001,ignore,1.0,3000.0,3.55078494335
288,2_23_1,23,1.0,1552.59687094,2_ND,test,03,3,28.0,01011,ignore,1.0,3100.0,3.28616916597
289,2_23_1,23,1.0,1556.2533163,2_ND,test,03,3,29.0,00110,ignore,1.0,3200.0,1.76285563636
290,2_23_1,23,1.0,1559.36286359,2_ND,test,03,3,30.0,10001,kill,0.0,3100.0,1.12213191308
291,2_23_1,23,1.0,1567.05071791,2_ND,test,03,3,31.0,11000,kill,1.0,3200.0,5.74130930373
292,2_23_1,23,1.0,1571.31654282,2_ND,test,03,3,32.0,10110,ignore,0.0,3100.0,2.33185104743
293,2_23_1,23,1.0,1580.16073378,2_ND,test,03,3,33.0,11010,kill,1.0,3200.0,6.88529737018
294,2_23_1,23,1.0,1587.56731417,2_ND,test,03,3,34.0,01000,ignore,1.0,3300.0,5.51052139687
295,2_23_1,23,1.0,1594.2707814,2_ND,test,03,3,35.0,10111,ignore,1.0,3400.0,4.70031225825
296,2_23_1,23,1.0,1600.4116812,2_ND,test,03,3,36.0,01111,ignore,1.0,3500.0,4.17203614447
297,2_23_1,23,1.0,1607.66205677,2_ND,test,03,3,37.0,11100,kill,1.0,3600.0,5.34775165077
298,2_23_1,23,1.0,1613.36544383,2_ND,test,03,3,38.0,01110,kill,0.0,3500.0,3.76235209748
299,2_23_1,23,1.0,1618.38128574,2_ND,test,03,3,39.0,11101,kill,1.0,3600.0,3.11543644954
300,2_23_1,23,1.0,1626.36605609,2_ND,test,03,3,40.0,10101,kill,0.0,3500.0,6.02079519374
301,2_23_1,23,1.0,1631.4131543,2_ND,test,03,3,41.0,00010,ignore,1.0,3600.0,3.09464285943
302,2_23_1,23,1.0,1639.19795717,2_ND,test,03,3,42.0,11111,kill,1.0,3700.0,5.88263855658
303,2_23_1,23,1.0,1642.43246357,2_ND,test,03,3,43.0,10011,ignore,1.0,3800.0,1.30872450073
304,2_23_1,23,1.0,1644.88569828,2_ND,test,03,3,44.0,00100,ignore,1.0,3900.0,0.486854427871
305,2_23_1,23,1.0,1647.21396586,2_ND,test,03,3,45.0,10100,ignore,0.0,3800.0,0.380168329521
306,2_23_1,23,1.0,1650.87037755,2_ND,test,03,3,46.0,00101,ignore,1.0,3900.0,1.68411594608
307,2_23_1,23,1.0,1654.74554416,2_ND,test,03,3,47.0,11110,kill,1.0,4000.0,2.01054288548
308,2_23_1,23,1.0,1658.49573114,2_ND,test,03,3,48.0,00001,ignore,1.0,4100.0,1.81856050741
309,2_23_1,23,1.0,1661.57399712,2_ND,test,03,3,49.0,00011,ignore,1.0,4200.0,1.14477127789
310,2_23_1,23,1.0,1667.0117533,2_ND,test,03,3,50.0,01010,kill,0.0,4100.0,3.52418109183
311,2_23_1,23,1.0,1673.82480214,2_ND,test,03,3,51.0,10000,ignore,0.0,4000.0,4.85339545571
312,2_23_1,23,1.0,1677.68435328,2_ND,test,03,3,52.0,10010,ignore,0.0,3900.0,1.97740970618
313,2_23_1,23,1.0,1688.07548016,2_ND,test,03,3,53.0,01101,ignore,1.0,4000.0,8.40785751582
314,2_23_1,23,1.0,1691.01312633,2_ND,test,03,3,54.0,00000,ignore,1.0,4100.0,0.993474841658
315,2_23_1,23,1.0,1697.23212341,2_ND,test,03,3,55.0,01100,kill,0.0,4000.0,4.31508705129
316,2_23_1,23,1.0,1700.89082475,2_ND,test,03,3,56.0,11011,kill,1.0,4100.0,1.71670742017
317,2_23_1,23,1.0,1703.68782738,2_ND,test,03,3,57.0,00111,ignore,1.0,4200.0,0.896929118403
318,2_23_1,23,1.0,1706.4848268,2_ND,test,03,3,58.0,11001,kill,1.0,4300.0,0.819934174318
319,2_23_1,23,1.0,1709.1099607,2_ND,test,03,3,59.0,01001,ignore,1.0,4400.0,0.68275671182
320,2_23_1,23,1.0,1711.84448282,2_ND,test,03,3,60.0,10111,kill,0.0,4300.0,0.816753540488
321,2_23_1,23,1.0,1716.34469578,2_ND,test,03,3,61.0,11010,kill,1.0,4400.0,2.56839148513
322,2_23_1,23,1.0,1722.71998908,2_ND,test,03,3,62.0,10101,ignore,1.0,4500.0,4.48197619448
323,2_23_1,23,1.0,1730.11096554,2_ND,test,03,3,63.0,00010,ignore,1.0,4600.0,5.47748603882
324,2_23_1,23,1.0,1735.45494738,2_ND,test,03,3,64.0,11001,kill,1.0,4700.0,3.39065348443
325,2_23_1,23,1.0,1743.67412759,2_ND,test,03,3,65.0,10001,ignore,1.0,4800.0,6.32672649692
326,2_23_1,23,1.0,1758.14354579,2_ND,test,03,3,66.0,10100,ignore,0.0,4700.0,12.5504773677
327,2_23_1,23,1.0,1762.00311296,2_ND,test,03,3,67.0,11011,kill,1.0,4800.0,1.91933691947
328,2_23_1,23,1.0,1766.67519337,2_ND,test,03,3,68.0,10010,kill,1.0,4900.0,2.75487662977
329,2_23_1,23,1.0,1770.58164707,2_ND,test,03,3,69.0,00101,ignore,1.0,5000.0,1.94698601509
330,2_23_1,23,1.0,1774.15989541,2_ND,test,03,3,70.0,00000,ignore,1.0,5100.0,1.68587191767
331,2_23_1,23,1.0,1777.72261262,2_ND,test,03,3,71.0,00111,ignore,1.0,5200.0,1.58469395741
332,2_23_1,23,1.0,1780.9727454,2_ND,test,03,3,72.0,11101,kill,1.0,5300.0,1.30449060467
333,2_23_1,23,1.0,1785.01980864,2_ND,test,03,3,73.0,10110,kill,1.0,5400.0,2.15782351892
334,2_23_1,23,1.0,1787.92617703,2_ND,test,03,3,74.0,01011,ignore,1.0,5500.0,0.966941228994
335,2_23_1,23,1.0,1791.28574805,2_ND,test,03,3,75.0,01000,ignore,1.0,5600.0,1.47465082625
336,2_23_1,23,1.0,1795.19217032,2_ND,test,03,3,76.0,01111,ignore,1.0,5700.0,1.93394852742
337,2_23_1,23,1.0,1798.73920085,2_ND,test,03,4,0.0,11100,kill,0.0,5600.0,1.59981167004
338,2_23_1,23,1.0,1802.94252825,2_ND,test,03,4,1.0,01110,ignore,0.0,5500.0,2.30487836168
339,2_23_1,23,1.0,1807.05439407,2_ND,test,03,4,2.0,11110,ignore,1.0,5600.0,2.19629356894
340,2_23_1,23,1.0,1812.60788272,2_ND,test,03,4,3.0,11000,ignore,1.0,5700.0,3.69473869218
341,2_23_1,23,1.0,1816.21746305,2_ND,test,03,4,4.0,01101,kill,0.0,5600.0,1.69874294885
342,2_23_1,23,1.0,1821.15518491,2_ND,test,03,4,5.0,01010,kill,1.0,5700.0,2.99848777972
343,2_23_1,23,1.0,1824.79597438,2_ND,test,03,4,6.0,01001,kill,0.0,5600.0,1.75114851767
344,2_23_1,23,1.0,1828.84303506,2_ND,test,03,4,7.0,00100,kill,0.0,5500.0,2.14532677428
345,2_23_1,23,1.0,1834.51520623,2_ND,test,03,4,8.0,10011,ignore,0.0,5400.0,3.73919732695
346,2_23_1,23,1.0,1839.84356298,2_ND,test,03,4,9.0,10000,ignore,1.0,5500.0,3.40481607681
347,2_23_1,23,1.0,1845.98449806,2_ND,test,03,4,10.0,00110,kill,1.0,5600.0,4.21003825613
348,2_23_1,23,1.0,1852.26602761,2_ND,test,03,4,11.0,00011,ignore,0.0,5500.0,4.39381295038
349,2_23_1,23,1.0,1858.37570896,2_ND,test,03,4,12.0,11111,ignore,1.0,5600.0,4.2012824526
350,2_23_1,23,1.0,1866.86049151,2_ND,test,03,4,13.0,01100,kill,0.0,5500.0,6.51759627856
351,2_23_1,23,1.0,1871.2982015,2_ND,test,03,4,14.0,00001,kill,0.0,5400.0,2.51699684278
352,2_23_1,23,1.0,1879.78294844,2_ND,test,03,4,15.0,01011,ignore,0.0,5300.0,6.54257341084
353,2_23_1,23,1.0,1884.0681859,2_ND,test,03,4,16.0,00101,ignore,1.0,5400.0,2.38267255347
354,2_23_1,23,1.0,1887.24021435,2_ND,test,03,4,17.0,11010,kill,1.0,5500.0,1.22148205926
355,2_23_1,23,1.0,1890.28719613,2_ND,test,03,4,18.0,00001,ignore,1.0,5600.0,1.10805687873
356,2_23_1,23,1.0,1893.00609218,2_ND,test,03,4,19.0,10001,ignore,1.0,5700.0,0.817578446226
357,2_23_1,23,1.0,1896.09999063,2_ND,test,03,4,20.0,10010,kill,1.0,5800.0,1.1535383068
358,2_23_1,23,1.0,1898.66260682,2_ND,test,03,4,21.0,00110,kill,1.0,5900.0,0.685793019219
359,2_23_1,23,1.0,1901.39621583,2_ND,test,03,4,22.0,01101,ignore,1.0,6000.0,0.769243844959
360,2_23_1,23,1.0,1904.25583945,2_ND,test,03,4,23.0,11111,kill,0.0,5900.0,0.915201486113
361,2_23_1,23,1.0,1908.5998091,2_ND,test,03,4,24.0,01111,ignore,0.0,5800.0,2.43197189676
362,2_23_1,23,1.0,1911.8186827,2_ND,test,03,4,25.0,11110,kill,0.0,5700.0,1.29367478187
363,2_23_1,23,1.0,1919.49095073,2_ND,test,03,4,26.0,00011,ignore,0.0,5600.0,5.79644905662
364,2_23_1,23,1.0,1926.11626071,2_ND,test,03,4,27.0,11011,ignore,0.0,5500.0,4.7133154283
365,2_23_1,23,1.0,1930.17894232,2_ND,test,03,4,28.0,10101,ignore,1.0,5600.0,2.09783824663
366,2_23_1,23,1.0,1936.08548775,2_ND,test,03,4,29.0,11001,kill,0.0,5500.0,4.04000279673
367,2_23_1,23,1.0,1943.64834223,2_ND,test,03,4,30.0,01100,ignore,1.0,5600.0,5.67758597686
368,2_23_1,23,1.0,1947.39849073,2_ND,test,03,4,31.0,00000,ignore,1.0,5700.0,1.79088831957
369,2_23_1,23,1.0,1950.64866039,2_ND,test,03,4,32.0,00111,kill,1.0,5800.0,1.32702348865
370,2_23_1,23,1.0,1953.68325512,2_ND,test,03,4,33.0,01000,ignore,1.0,5900.0,1.09740751241
371,2_23_1,23,1.0,1956.49586585,2_ND,test,03,4,34.0,10111,kill,0.0,5800.0,0.944434644502
372,2_23_1,23,1.0,1959.94917914,2_ND,test,03,4,35.0,11101,ignore,1.0,5900.0,1.48207786443
373,2_23_1,23,1.0,1967.38701293,2_ND,test,03,4,36.0,01010,kill,1.0,6000.0,5.5024442483
374,2_23_1,23,1.0,1970.76218821,2_ND,test,03,4,37.0,10000,ignore,1.0,6100.0,1.46430358327
375,2_23_1,23,1.0,1974.01236653,2_ND,test,03,4,38.0,00010,kill,1.0,6200.0,1.30068840501
376,2_23_1,23,1.0,1976.94996267,2_ND,test,03,4,39.0,11000,ignore,1.0,6300.0,1.0755356435
377,2_23_1,23,1.0,1980.07514179,2_ND,test,03,4,40.0,11100,ignore,1.0,6400.0,1.15170055024
378,2_23_1,23,1.0,1983.16904634,2_ND,test,03,4,41.0,01110,kill,1.0,6500.0,1.17782652091
379,2_23_1,23,1.0,1986.51294384,2_ND,test,03,4,42.0,10011,kill,1.0,6600.0,1.43646558039
380,2_23_1,23,1.0,1990.138105,2_ND,test,03,4,43.0,10110,kill,0.0,6500.0,1.68245234341
381,2_23_1,23,1.0,1993.12575258,2_ND,test,03,4,44.0,01001,ignore,1.0,6600.0,1.14566064943
382,2_23_1,23,1.0,1996.23527774,2_ND,test,03,4,45.0,10100,ignore,1.0,6700.0,1.16494169854
383,2_23_1,23,1.0,1999.40732447,2_ND,test,03,4,46.0,00100,ignore,1.0,6800.0,1.20503044967
384,2_23_1,23,1.0,2002.93872766,2_ND,test,03,4,47.0,10010,kill,1.0,6900.0,1.65516342242
385,2_23_1,23,1.0,2005.7982618,2_ND,test,03,4,48.0,10100,ignore,1.0,7000.0,0.974042730887
386,2_23_1,23,1.0,2010.40783859,2_ND,test,03,4,49.0,11111,ignore,1.0,7100.0,2.6797807008
387,2_23_1,23,1.0,2012.95483224,2_ND,test,03,4,50.0,10000,ignore,1.0,7200.0,0.636631267135
388,2_23_1,23,1.0,2018.48633614,2_ND,test,03,4,51.0,00110,kill,1.0,7300.0,3.58781686066
389,2_23_1,23,1.0,2021.00210171,2_ND,test,03,4,52.0,00100,ignore,1.0,7400.0,0.636476036039
390,2_23_1,23,1.0,2025.72108532,2_ND,test,03,4,53.0,01010,kill,1.0,7500.0,2.82118307904
391,2_23_1,23,1.0,2029.25246574,2_ND,test,03,5,0.0,01111,ignore,0.0,7400.0,1.60323284793
392,2_23_1,23,1.0,2032.7682589,2_ND,test,03,5,1.0,01110,kill,0.0,7300.0,1.62085093581
393,2_23_1,23,1.0,2037.14343642,2_ND,test,03,5,2.0,11000,kill,0.0,7200.0,2.43523174976
394,2_23_1,23,1.0,2040.09675548,2_ND,test,03,5,3.0,11101,ignore,1.0,7300.0,1.0839566097
395,2_23_1,23,1.0,2046.08139722,2_ND,test,03,5,4.0,11011,ignore,0.0,7200.0,4.03185156059
396,2_23_1,23,1.0,2050.7222348,2_ND,test,03,5,5.0,10011,kill,1.0,7300.0,2.68374390461
397,2_23_1,23,1.0,2054.19119115,2_ND,test,03,5,6.0,00010,kill,0.0,7200.0,1.5931437889
398,2_23_1,23,1.0,2057.39445665,2_ND,test,03,5,7.0,11001,ignore,0.0,7100.0,1.26561868572
399,2_23_1,23,1.0,2061.50402639,2_ND,test,03,5,8.0,01100,ignore,1.0,7200.0,2.24173426489
400,2_23_1,23,1.0,2064.59789341,2_ND,test,03,5,9.0,00000,ignore,1.0,7300.0,1.14228469383
401,2_23_1,23,1.0,2068.28558994,2_ND,test,03,5,10.0,00001,kill,1.0,7400.0,1.75312001673
402,2_23_1,23,1.0,2073.8170964,2_ND,test,03,5,11.0,11110,kill,0.0,7300.0,3.66137394914
403,2_23_1,23,1.0,2081.11432097,2_ND,test,03,5,12.0,01011,ignore,0.0,7200.0,5.35243424167
404,2_23_1,23,1.0,2084.67698109,2_ND,test,03,5,13.0,00101,kill,0.0,7100.0,1.69005161113
405,2_23_1,23,1.0,2089.94283198,2_ND,test,03,5,14.0,10001,ignore,0.0,7000.0,3.33426546827
406,2_23_1,23,1.0,2096.17754685,2_ND,test,03,5,15.0,01101,kill,0.0,6900.0,4.29443618398
407,2_23_1,23,1.0,2101.8652886,2_ND,test,03,5,16.0,01001,kill,1.0,7000.0,3.82729225653
408,2_23_1,23,1.0,2106.13113211,2_ND,test,03,5,17.0,00111,ignore,0.0,6900.0,2.37004976375
409,2_23_1,23,1.0,2111.86576744,2_ND,test,03,5,18.0,10111,ignore,0.0,6800.0,3.78640457842
410,2_23_1,23,1.0,2118.60047204,2_ND,test,03,5,19.0,00011,kill,1.0,6900.0,4.8013359496
411,2_23_1,23,1.0,2122.27257458,2_ND,test,03,5,20.0,01000,ignore,1.0,7000.0,1.74238148876
412,2_23_1,23,1.0,2127.31464766,2_ND,test,03,5,21.0,10110,ignore,1.0,7100.0,3.19521496941
413,2_23_1,23,1.0,2130.22100931,2_ND,test,03,5,22.0,11010,ignore,1.0,7200.0,0.970139823447
414,2_23_1,23,1.0,2133.17427256,2_ND,test,03,5,23.0,10101,kill,0.0,7100.0,1.01126163111
415,2_23_1,23,1.0,2136.29942571,2_ND,test,03,5,24.0,11100,ignore,1.0,7200.0,1.24524749097
416,2_23_1,23,1.0,2140.79963675,2_ND,test,03,5,25.0,01111,kill,1.0,7300.0,2.57994722143
417,2_23_1,23,1.0,2144.12940789,2_ND,test,03,5,26.0,00011,kill,1.0,7400.0,1.46325256612
418,2_23_1,23,1.0,2147.34830394,2_ND,test,03,5,27.0,10000,ignore,1.0,7500.0,1.26750775835
419,2_23_1,23,1.0,2150.06719742,2_ND,test,03,5,28.0,01000,ignore,1.0,7600.0,0.792957639871
420,2_23_1,23,1.0,2152.94229541,2_ND,test,03,5,29.0,01110,ignore,1.0,7700.0,1.00465725359
421,2_23_1,23,1.0,2157.26441949,2_ND,test,03,5,30.0,11010,ignore,1.0,7800.0,2.41350420728
422,2_23_1,23,1.0,2165.04603404,2_ND,test,03,5,31.0,00001,ignore,0.0,7700.0,5.91944340031
423,2_23_1,23,1.0,2168.31181084,2_ND,test,03,5,32.0,11000,ignore,1.0,7800.0,1.3520570686
424,2_23_1,23,1.0,2171.78071395,2_ND,test,03,5,33.0,11111,kill,1.0,7900.0,1.54619183484
