,unique_id,pair_id,sbj_id,wall_time,condition,block,rule_id,rule_num,trial,stimulus,choice,correct,points,reaction_time
0,2_21_1,21,1.0,36.5918326127,2_ND,training,01,1_A,1.0,01000,kill,0.0,0.0,3.24217501415
1,2_21_1,21,1.0,40.623325094,2_ND,training,01,1_A,2.0,11001,kill,0.0,0.0,1.81710656875
2,2_21_1,21,1.0,45.3735815719,2_ND,training,01,1_A,3.0,00111,ignore,0.0,0.0,2.54943936141
3,2_21_1,21,1.0,49.3425024929,2_ND,training,01,1_A,4.0,10001,kill,0.0,0.0,1.79828136245
4,2_21_1,21,1.0,55.0615234804,2_ND,training,01,1_A,5.0,01100,ignore,1.0,100.0,3.54578893978
5,2_21_1,21,1.0,58.936661572,2_ND,training,01,1_A,6.0,01101,ignore,1.0,200.0,1.70255098459
6,2_21_1,21,1.0,63.358796379,2_ND,training,01,1_A,7.0,11000,kill,0.0,100.0,2.29915927818
7,2_21_1,21,1.0,69.8434263879,2_ND,training,01,1_A,8.0,01001,kill,0.0,0.0,4.32496552585
8,2_21_1,21,1.0,73.7498845388,2_ND,training,01,1_A,9.0,01011,ignore,0.0,0.0,1.75024539356
9,2_21_1,21,1.0,77.4844707238,2_ND,training,01,1_A,10.0,10100,kill,0.0,0.0,1.53470343198
10,2_21_1,21,1.0,83.8597921165,2_ND,training,01,1_A,11.0,01010,ignore,0.0,0.0,4.23271561073
11,2_21_1,21,1.0,88.4693472552,2_ND,training,01,1_A,12.0,11100,kill,0.0,0.0,2.46817109032
12,2_21_1,21,1.0,97.5479323104,2_ND,training,01,1_A,13.0,01111,kill,1.0,100.0,6.92094858415
13,2_21_1,21,1.0,102.126275359,2_ND,training,01,1_A,14.0,10011,kill,0.0,0.0,2.42407414478
14,2_21_1,21,1.0,109.314087746,2_ND,training,01,1_A,15.0,10000,kill,0.0,0.0,5.03156760813
15,2_21_1,21,1.0,116.501950217,2_ND,training,01,1_A,16.0,10101,ignore,1.0,100.0,5.02688265405
16,2_21_1,21,1.0,121.689669003,2_ND,training,01,1_A,17.0,00011,kill,1.0,200.0,3.0350328813
17,2_21_1,21,1.0,126.877466611,2_ND,training,01,1_A,18.0,00100,ignore,1.0,300.0,3.02456480874
18,2_21_1,21,1.0,130.611974385,2_ND,training,01,1_A,19.0,10110,ignore,0.0,200.0,1.5381966211
19,2_21_1,21,1.0,134.737218085,2_ND,training,01,1_A,20.0,10111,kill,1.0,300.0,1.98060662191
20,2_21_1,21,1.0,138.8623961,2_ND,training,01,1_A,21.0,11101,ignore,1.0,400.0,1.98698213338
21,2_21_1,21,1.0,143.847032883,2_ND,training,01,1_A,22.0,10010,kill,0.0,300.0,2.84225268619
22,2_21_1,21,1.0,147.878462964,2_ND,training,01,1_A,23.0,00110,ignore,0.0,200.0,1.88779099817
23,2_21_1,21,1.0,151.722379113,2_ND,training,01,1_A,24.0,00010,kill,1.0,300.0,1.70171555859
24,2_21_1,21,1.0,157.675789437,2_ND,training,01,1_A,25.0,11010,ignore,1.0,400.0,3.83253054436
25,2_21_1,21,1.0,161.254130022,2_ND,training,01,1_A,26.0,00101,ignore,1.0,500.0,1.43554349696
26,2_21_1,21,1.0,165.644950927,2_ND,training,01,1_A,27.0,00001,kill,0.0,400.0,2.21750182583
27,2_21_1,21,1.0,169.660777221,2_ND,training,01,1_A,28.0,00000,kill,0.0,300.0,1.87187151436
28,2_21_1,21,1.0,173.426527465,2_ND,training,01,1_A,29.0,11111,ignore,0.0,200.0,1.62753424528
29,2_21_1,21,1.0,180.051884676,2_ND,training,01,1_A,30.0,01110,ignore,0.0,100.0,4.42727011108
30,2_21_1,21,1.0,187.614753664,2_ND,training,01,1_A,31.0,11110,kill,1.0,200.0,5.44625501307
31,2_21_1,21,1.0,196.630816423,2_ND,training,01,1_A,32.0,11011,ignore,1.0,300.0,6.87924707385
32,2_21_1,21,1.0,205.881250044,2_ND,training,01,1_A,33.0,00100,kill,0.0,200.0,7.07816056847
33,2_21_1,21,1.0,210.506462338,2_ND,training,01,1_A,34.0,10000,ignore,1.0,300.0,2.47152182597
34,2_21_1,21,1.0,214.037861835,2_ND,training,01,1_A,35.0,11100,ignore,1.0,400.0,1.37880308701
35,2_21_1,21,1.0,219.725680174,2_ND,training,01,1_A,36.0,11111,ignore,0.0,300.0,3.53777665019
36,2_21_1,21,1.0,223.772711579,2_ND,training,01,1_A,37.0,01111,kill,1.0,400.0,1.88887561513
37,2_21_1,21,1.0,227.179150641,2_ND,training,01,1_A,38.0,01101,kill,0.0,300.0,1.24043601437
38,2_21_1,21,1.0,233.210705522,2_ND,training,01,1_A,39.0,00111,ignore,0.0,200.0,3.88230263933
39,2_21_1,21,1.0,237.44523567,2_ND,training,01,1_A,40.0,00001,ignore,1.0,300.0,2.07628691526
40,2_21_1,21,1.0,240.5860614,2_ND,training,01,1_A,41.0,01001,ignore,1.0,400.0,0.997627143833
41,2_21_1,21,1.0,243.414298224,2_ND,training,01,1_A,42.0,00101,ignore,1.0,500.0,0.681307763961
42,2_21_1,21,1.0,246.945739594,2_ND,training,01,1_A,43.0,00011,kill,1.0,600.0,1.36688790061
43,2_21_1,21,1.0,252.227221915,2_ND,training,01,1_A,44.0,01000,kill,0.0,500.0,3.08098090097
44,2_21_1,21,1.0,256.383686737,2_ND,training,01,1_A,45.0,10100,ignore,1.0,600.0,1.94963838575
45,2_21_1,21,1.0,262.962132007,2_ND,training,01,1_A,46.0,10111,ignore,0.0,500.0,4.38442609928
46,2_21_1,21,1.0,266.70458967,2_ND,training,01,1_A,47.0,00000,ignore,1.0,600.0,1.59277682877
47,2_21_1,21,1.0,272.204931436,2_ND,training,01,1_A,48.0,10010,ignore,1.0,700.0,3.35453303792
48,2_21_1,21,1.0,275.236251084,2_ND,training,01,1_A,49.0,11010,ignore,1.0,800.0,0.900138881876
49,2_21_1,21,1.0,279.84588915,2_ND,training,01,1_A,50.0,01011,kill,1.0,900.0,2.45894609881
50,2_21_1,21,1.0,284.064822079,2_ND,training,01,1_A,51.0,00110,ignore,0.0,800.0,2.05400875165
51,2_21_1,21,1.0,287.955641137,2_ND,training,01,1_A,52.0,10101,ignore,1.0,900.0,1.67886347579
52,2_21_1,21,1.0,296.159131206,2_ND,training,01,1_A,53.0,00010,kill,1.0,1000.0,6.03510636595
53,2_21_1,21,1.0,305.487685574,2_ND,training,01,1_A,54.0,01100,ignore,1.0,1100.0,7.19338572501
54,2_21_1,21,1.0,310.081645958,2_ND,training,01,1_A,55.0,10011,ignore,1.0,1200.0,2.44755762079
55,2_21_1,21,1.0,314.831897099,2_ND,training,01,1_A,56.0,11101,kill,0.0,1100.0,2.60254248665
56,2_21_1,21,1.0,318.878991725,2_ND,training,01,1_A,57.0,11001,ignore,1.0,1200.0,1.90696884867
57,2_21_1,21,1.0,322.863549276,2_ND,training,01,1_A,58.0,11110,ignore,0.0,1100.0,1.83980306115
58,2_21_1,21,1.0,328.895118115,2_ND,training,01,1_A,59.0,11011,ignore,1.0,1200.0,3.92995804807
59,2_21_1,21,1.0,335.942294026,2_ND,training,01,1_A,60.0,10001,kill,0.0,1100.0,4.87378580991
60,2_21_1,21,1.0,342.239448693,2_ND,training,01,1_A,61.0,01110,kill,1.0,1200.0,4.16224999312
61,2_21_1,21,1.0,346.614670737,2_ND,training,01,1_A,62.0,11000,ignore,1.0,1300.0,2.2195491327
62,2_21_1,21,1.0,357.052673302,2_ND,training,01,1_A,63.0,01010,ignore,0.0,1200.0,8.28582407283
63,2_21_1,21,1.0,360.427865378,2_ND,training,01,1_A,64.0,10110,ignore,0.0,1100.0,1.17465576138
64,2_21_1,21,1.0,364.178038518,2_ND,training,01,1_A,65.0,00100,ignore,1.0,1200.0,1.57575096998
65,2_21_1,21,1.0,368.193846749,2_ND,training,01,1_A,66.0,01000,kill,0.0,1100.0,1.85937666136
66,2_21_1,21,1.0,373.350375613,2_ND,training,01,1_A,67.0,00011,kill,1.0,1200.0,2.98649483575
67,2_21_1,21,1.0,376.944290838,2_ND,training,01,1_A,68.0,01100,kill,0.0,1100.0,1.45596237586
68,2_21_1,21,1.0,381.506996436,2_ND,training,01,1_A,69.0,10010,kill,0.0,1000.0,2.42583367099
69,2_21_1,21,1.0,384.944707114,2_ND,training,01,1_A,70.0,10000,ignore,1.0,1100.0,1.27010205334
70,2_21_1,21,1.0,388.288560657,2_ND,training,01,1_A,71.0,01001,ignore,1.0,1200.0,1.18319558041
71,2_21_1,21,1.0,391.913746268,2_ND,training,01,1_A,72.0,11110,kill,1.0,1300.0,1.49527460884
72,2_21_1,21,1.0,398.382832016,2_ND,training,01,1_A,73.0,10100,kill,0.0,1200.0,4.28755896732
73,2_21_1,21,1.0,402.648630497,2_ND,training,01,1_A,74.0,11100,ignore,1.0,1300.0,2.11060342389
74,2_21_1,21,1.0,405.633127699,2_ND,training,01,1_A,75.0,11001,ignore,1.0,1400.0,0.841114700501
75,2_21_1,21,1.0,410.492776541,2_ND,training,01,1_A,76.0,00110,ignore,0.0,1300.0,2.71195537717
76,2_21_1,21,1.0,414.399198155,2_ND,training,01,1_A,77.0,11101,ignore,1.0,1400.0,1.76244836062
77,2_21_1,21,1.0,418.383795938,2_ND,training,01,1_A,78.0,11011,kill,0.0,1300.0,1.80249913481
78,2_21_1,21,1.0,425.227865624,2_ND,training,01,1_A,79.0,00101,kill,0.0,1200.0,4.66902967014
79,2_21_1,21,1.0,428.384253267,2_ND,training,01,1_A,80.0,01010,ignore,0.0,1100.0,1.00896800051
80,2_21_1,21,1.0,431.634403623,2_ND,training,01,1_A,81.0,01110,kill,1.0,1200.0,1.10513353884
81,2_21_1,21,1.0,434.697070426,2_ND,training,01,1_A,82.0,11010,kill,0.0,1100.0,0.939043459805
82,2_21_1,21,1.0,439.931680216,2_ND,training,01,1_A,83.0,01111,ignore,0.0,1000.0,3.09068703218
83,2_21_1,21,1.0,443.869352099,2_ND,training,01,1_A,84.0,10011,kill,0.0,900.0,1.77022131194
84,2_21_1,21,1.0,449.822751339,2_ND,training,01,1_A,85.0,10101,ignore,1.0,1000.0,3.79650130979
85,2_21_1,21,1.0,452.869772891,2_ND,training,01,1_A,86.0,11000,kill,0.0,900.0,0.908898744316
86,2_21_1,21,1.0,456.744968457,2_ND,training,01,1_A,87.0,00010,kill,1.0,1000.0,1.71346365979
87,2_21_1,21,1.0,460.307649423,2_ND,training,01,1_A,88.0,00000,kill,0.0,900.0,1.40192365561
88,2_21_1,21,1.0,466.651708231,2_ND,training,01,1_A,89.0,10001,kill,0.0,800.0,4.18150830725
89,2_21_1,21,1.0,470.417549201,2_ND,training,01,1_A,90.0,00111,kill,1.0,900.0,1.60871109163
90,2_21_1,21,1.0,474.011407773,2_ND,training,01,1_A,91.0,10111,kill,1.0,1000.0,1.43945173065
91,2_21_1,21,1.0,477.527207177,2_ND,training,01,1_A,92.0,11111,ignore,0.0,900.0,1.36989748687
92,2_21_1,21,1.0,480.589865769,2_ND,training,01,1_A,93.0,01101,kill,0.0,800.0,0.92317570261
93,2_21_1,21,1.0,483.699412492,2_ND,training,01,1_A,94.0,10110,ignore,0.0,700.0,0.957484000668
94,2_21_1,21,1.0,492.309218054,2_ND,training,01,1_A,95.0,01011,kill,1.0,800.0,6.47089084328
95,2_21_1,21,1.0,496.075003602,2_ND,training,01,1_A,96.0,00001,kill,0.0,700.0,1.58562747061
96,2_21_1,21,1.0,499.07516453,2_ND,training,01,1_A,97.0,00010,kill,1.0,800.0,0.840625350233
97,2_21_1,21,1.0,502.590894144,2_ND,training,01,1_A,98.0,10001,ignore,1.0,900.0,1.36151818458
98,2_21_1,21,1.0,506.653644284,2_ND,training,01,1_A,99.0,11101,ignore,1.0,1000.0,1.91461248344
99,2_21_1,21,1.0,510.622535237,2_ND,training,01,1_A,100.0,01100,ignore,1.0,1100.0,1.84691506119
100,2_21_1,21,1.0,513.669551863,2_ND,training,01,1_A,101.0,10101,ignore,1.0,1200.0,0.905879715898
101,2_21_1,21,1.0,517.263491719,2_ND,training,01,1_A,102.0,01110,kill,1.0,1300.0,1.45507152848
102,2_21_1,21,1.0,520.607439274,2_ND,training,01,1_A,103.0,00011,kill,1.0,1400.0,1.18451378822
103,2_21_1,21,1.0,523.831538707,2_ND,training,01,1_A,104.0,10011,kill,0.0,1300.0,1.05316593613
104,2_21_1,21,1.0,527.196296784,2_ND,training,01,1_A,105.0,01101,ignore,1.0,1400.0,1.23629706353
105,2_21_1,21,1.0,530.45135378,2_ND,training,01,1_A,106.0,11110,kill,1.0,1500.0,1.1195841508
106,2_21_1,21,1.0,535.770386345,2_ND,training,01,1_A,107.0,10010,kill,0.0,1400.0,3.15330457169
107,2_21_1,21,1.0,539.051769728,2_ND,training,01,1_A,108.0,10111,kill,1.0,1500.0,1.06478718395
108,2_21_1,21,1.0,542.458223158,2_ND,training,01,1_A,109.0,00101,ignore,1.0,1600.0,1.23173814177
109,2_21_1,21,1.0,546.661525615,2_ND,training,01,1_A,110.0,01011,kill,1.0,1700.0,2.04220399748
110,2_21_1,21,1.0,549.833547424,2_ND,training,01,1_A,111.0,10000,ignore,1.0,1800.0,1.00576505522
111,2_21_1,21,1.0,553.614950718,2_ND,training,01,1_A,112.0,00111,kill,1.0,1900.0,1.61268829414
112,2_21_1,21,1.0,557.099501084,2_ND,training,01,1_A,113.0,00001,ignore,1.0,2000.0,1.31933512406
113,2_21_1,21,1.0,560.365266723,2_ND,training,01,1_A,114.0,00100,ignore,1.0,2100.0,1.09798377016
114,2_21_1,21,1.0,564.302953795,2_ND,training,01,1_A,115.0,11001,ignore,1.0,2200.0,1.77778694625
115,2_21_1,21,1.0,567.38127406,2_ND,training,01,1_A,116.0,11000,ignore,1.0,2300.0,0.937769589098
116,2_21_1,21,1.0,570.803303361,2_ND,training,01,1_A,117.0,11010,kill,0.0,2200.0,1.27124086009
117,2_21_1,21,1.0,574.631636659,2_ND,training,01,1_A,118.0,01010,kill,1.0,2300.0,1.7100394395
118,2_21_1,21,1.0,577.944231312,2_ND,training,01,1_A,119.0,10110,kill,1.0,2400.0,1.1513426548
119,2_21_1,21,1.0,581.538207295,2_ND,training,01,1_A,120.0,11100,ignore,1.0,2500.0,1.45171997177
120,2_21_1,21,1.0,585.679007982,2_ND,training,01,1_A,121.0,00000,ignore,1.0,2600.0,1.97301964011
121,2_21_1,21,1.0,589.882345334,2_ND,training,01,1_A,122.0,11011,kill,0.0,2500.0,2.06465499369
122,2_21_1,21,1.0,593.22625553,2_ND,training,01,1_A,123.0,01111,kill,1.0,2600.0,1.19899642142
123,2_21_1,21,1.0,597.39837915,2_ND,training,01,1_A,124.0,01000,ignore,1.0,2700.0,2.00553515912
124,2_21_1,21,1.0,600.976607251,2_ND,training,01,1_A,125.0,11111,kill,1.0,2800.0,1.41935470628
125,2_21_1,21,1.0,604.211164083,2_ND,training,01,1_A,126.0,10100,ignore,1.0,2900.0,1.07030633245
126,2_21_1,21,1.0,608.617638039,2_ND,training,01,1_A,127.0,01001,ignore,1.0,3000.0,2.23581305013
127,2_21_1,21,1.0,612.539672061,2_ND,training,01,1_A,128.0,00110,kill,1.0,3100.0,1.74915585026
128,2_21_1,21,1.0,617.00864122,2_ND,training,01,1_A,129.0,11011,kill,0.0,3000.0,2.31878953135
129,2_21_1,21,1.0,620.274430258,2_ND,training,01,1_A,130.0,10111,kill,1.0,3100.0,1.10022813082
130,2_21_1,21,1.0,624.196477417,2_ND,training,01,1_A,131.0,00001,ignore,1.0,3200.0,1.75039646814
131,2_21_1,21,1.0,627.649760682,2_ND,training,01,1_A,132.0,01101,ignore,1.0,3300.0,1.27576406584
132,2_21_1,21,1.0,631.946855411,2_ND,training,01,1_A,133.0,00011,kill,1.0,3400.0,2.13977231255
133,2_21_1,21,1.0,635.509516262,2_ND,training,01,1_A,134.0,11010,kill,0.0,3300.0,1.43505784145
134,2_21_1,21,1.0,639.540960301,2_ND,training,01,1_A,135.0,01001,ignore,1.0,3400.0,1.87061734903
135,2_21_1,21,1.0,643.369277588,2_ND,training,01,1_A,136.0,11111,ignore,0.0,3300.0,1.68794314013
136,2_21_1,21,1.0,646.463204103,2_ND,training,01,1_A,137.0,01100,ignore,1.0,3400.0,0.916232019355
137,2_21_1,21,1.0,650.353972666,2_ND,training,01,1_A,138.0,01010,kill,1.0,3500.0,1.7374668652
138,2_21_1,21,1.0,655.057351277,2_ND,training,01,1_A,139.0,00000,ignore,1.0,3600.0,2.53973938814
139,2_21_1,21,1.0,659.58884889,2_ND,training,01,1_A,140.0,11001,ignore,1.0,3700.0,2.37375974133
140,2_21_1,21,1.0,663.19836667,2_ND,training,01,1_A,141.0,11110,kill,1.0,3800.0,1.49745287438
141,2_21_1,21,1.0,667.198567419,2_ND,training,01,1_A,142.0,10000,ignore,1.0,3900.0,1.82114124529
142,2_21_1,21,1.0,671.292493112,2_ND,training,01,1_A,143.0,01011,kill,1.0,4000.0,1.95915074739
143,2_21_1,21,1.0,674.605193681,2_ND,training,01,1_A,144.0,00100,ignore,1.0,4100.0,1.16575919287
144,2_21_1,21,1.0,678.41784355,2_ND,training,01,1_A,145.0,10101,ignore,1.0,4200.0,1.65583117087
145,2_21_1,21,1.0,682.996193167,2_ND,training,01,1_A,146.0,10010,ignore,1.0,4300.0,2.42200836411
146,2_21_1,21,1.0,686.449462064,2_ND,training,01,1_A,147.0,11100,ignore,1.0,4400.0,1.3077118236
147,2_21_1,21,1.0,690.387183621,2_ND,training,01,1_A,148.0,10110,kill,1.0,4500.0,1.77098161119
148,2_21_1,21,1.0,695.137364151,2_ND,training,01,1_A,149.0,01111,kill,1.0,4600.0,2.62395936094
149,2_21_1,21,1.0,699.434463806,2_ND,training,01,1_A,150.0,10011,ignore,1.0,4700.0,2.13334055864
150,2_21_1,21,1.0,702.419022589,2_ND,training,01,1_A,151.0,11000,ignore,1.0,4800.0,0.845810328328
151,2_21_1,21,1.0,706.028555148,2_ND,training,01,1_A,152.0,00101,ignore,1.0,4900.0,1.45563518445
152,2_21_1,21,1.0,710.106879518,2_ND,training,01,1_A,153.0,00010,kill,1.0,5000.0,1.92566720159
153,2_21_1,21,1.0,713.91954006,2_ND,training,01,1_A,154.0,00111,kill,1.0,5100.0,1.67126253601
154,2_21_1,21,1.0,718.263535646,2_ND,training,01,1_A,155.0,01110,kill,1.0,5200.0,2.21147772697
155,2_21_1,21,1.0,721.43551476,2_ND,training,01,1_A,156.0,00110,kill,1.0,5300.0,1.0041611194
156,2_21_1,21,1.0,725.526426762,2_ND,training,01,1_A,157.0,10001,ignore,1.0,5400.0,1.95224195908
157,2_21_1,21,1.0,730.354819998,2_ND,training,01,1_A,158.0,10100,ignore,1.0,5500.0,2.65328917686
158,2_21_1,21,1.0,734.448743638,2_ND,training,01,1_A,159.0,11101,ignore,1.0,5600.0,1.96312302356
159,2_21_1,21,1.0,737.558261624,2_ND,training,01,1_A,160.0,01000,ignore,1.0,5700.0,0.952544929292
160,2_21_1,21,1.0,740.792792593,2_ND,training,01,1_A,161.0,00010,kill,1.0,5800.0,1.07173538302
161,2_21_1,21,1.0,744.449209178,2_ND,training,01,1_A,162.0,11001,ignore,1.0,5900.0,1.51095064911
162,2_21_1,21,1.0,750.699496651,2_ND,training,01,1_A,163.0,10010,kill,0.0,5800.0,4.0999978242
163,2_21_1,21,1.0,754.715356197,2_ND,training,01,1_A,164.0,00110,kill,1.0,5900.0,1.86554978215
164,2_21_1,21,1.0,760.606256951,2_ND,training,01,1_A,165.0,00011,kill,1.0,6000.0,3.75798919735
165,2_21_1,21,1.0,768.637914465,2_ND,training,01,1_A,166.0,11010,ignore,1.0,6100.0,5.90892912344
166,2_21_1,21,1.0,773.325598972,2_ND,training,01,1_A,167.0,10110,ignore,0.0,6000.0,2.52243436979
167,2_21_1,21,1.0,778.216478788,2_ND,training,01,1_A,168.0,11011,ignore,1.0,6100.0,2.71667892095
168,2_21_1,21,1.0,782.154123166,2_ND,training,01,1_A,169.0,10000,ignore,1.0,6200.0,1.72299038993
169,2_21_1,21,1.0,785.966827635,2_ND,training,01,1_A,170.0,01100,ignore,1.0,6300.0,1.65544937914
170,2_21_1,21,1.0,788.987916086,2_ND,training,01,1_A,171.0,11110,ignore,0.0,6200.0,0.871417469558
171,2_21_1,21,1.0,792.253732219,2_ND,training,01,1_A,172.0,11000,ignore,1.0,6300.0,1.14570157926
172,2_21_1,21,1.0,795.050730269,2_ND,training,01,1_A,173.0,00100,ignore,1.0,6400.0,0.612361513258
173,2_21_1,21,1.0,798.925874519,2_ND,training,01,1_A,174.0,00111,kill,1.0,6500.0,1.71316274222
174,2_21_1,21,1.0,802.066646058,2_ND,training,01,1_A,175.0,01011,kill,1.0,6600.0,1.01174769067
175,2_21_1,21,1.0,805.723079475,2_ND,training,01,1_A,176.0,01101,ignore,1.0,6700.0,1.39308374006
176,2_21_1,21,1.0,809.863914646,2_ND,training,01,1_A,177.0,11111,kill,1.0,6800.0,2.00429782547
177,2_21_1,21,1.0,814.69229844,2_ND,training,01,1_A,178.0,01010,kill,1.0,6900.0,2.67849646309
178,2_21_1,21,1.0,818.473740734,2_ND,training,01,1_A,179.0,10001,ignore,1.0,7000.0,1.62319741958
179,2_21_1,21,1.0,821.973877235,2_ND,training,01,1_A,180.0,10011,kill,0.0,6900.0,1.35571495018
180,2_21_1,21,1.0,825.974082089,2_ND,training,01,1_A,181.0,11101,ignore,1.0,7000.0,1.86236613171
181,2_21_1,21,1.0,833.396323222,2_ND,training,01,1_A,182.0,00000,ignore,1.0,7100.0,5.27974701576
182,2_21_1,21,1.0,836.740234239,2_ND,training,01,1_A,183.0,11100,ignore,1.0,7200.0,1.19200347472
183,2_21_1,21,1.0,839.521607975,2_ND,training,01,1_A,184.0,00101,ignore,1.0,7300.0,0.619077763587
184,2_21_1,21,1.0,842.599867071,2_ND,training,01,1_A,185.0,10101,ignore,1.0,7400.0,0.929856647466
185,2_21_1,21,1.0,943.057815174,2_ND,test,01,2,0.0,01111,kill,0.0,0.0,18.6260505944
186,2_21_1,21,1.0,948.479965992,2_ND,test,01,2,1.0,10100,ignore,0.0,0.0,3.24302275602
187,2_21_1,21,1.0,953.933370774,2_ND,test,01,2,2.0,00001,kill,0.0,0.0,3.29000243444
188,2_21_1,21,1.0,966.965233141,2_ND,test,01,2,3.0,01001,ignore,1.0,100.0,10.8700356298
189,2_21_1,21,1.0,978.85640197,2_ND,test,01,2,4.0,01110,ignore,1.0,200.0,9.74942269395
190,2_21_1,21,1.0,988.247500393,2_ND,test,01,2,5.0,10111,kill,1.0,300.0,7.22493157512
191,2_21_1,21,1.0,994.575925855,2_ND,test,01,2,6.0,01000,ignore,1.0,400.0,4.19016061116
192,2_21_1,21,1.0,1000.49805348,2_ND,test,01,2,7.0,01011,ignore,1.0,500.0,3.77454007438
193,2_21_1,21,1.0,1007.96716673,2_ND,test,01,2,8.0,11001,ignore,0.0,400.0,5.30160192423
194,2_21_1,21,1.0,1017.57701088,2_ND,test,01,2,9.0,00110,ignore,1.0,500.0,7.48008463461
195,2_21_1,21,1.0,1024.53047088,2_ND,test,01,2,10.0,01000,ignore,1.0,600.0,4.79026989391
196,2_21_1,21,1.0,1029.73385462,2_ND,test,01,2,11.0,10101,kill,1.0,700.0,3.04293802289
197,2_21_1,21,1.0,1033.70282152,2_ND,test,01,2,12.0,10110,kill,1.0,800.0,1.84887738861
198,2_21_1,21,1.0,1036.95293001,2_ND,test,01,2,13.0,11101,kill,1.0,900.0,1.10564505767
199,2_21_1,21,1.0,1040.73440802,2_ND,test,01,2,14.0,00010,ignore,1.0,1000.0,1.63781142198
200,2_21_1,21,1.0,1044.07827552,2_ND,test,01,2,15.0,00001,ignore,1.0,1100.0,1.17735868266
201,2_21_1,21,1.0,1047.01595233,2_ND,test,01,2,16.0,01111,ignore,1.0,1200.0,0.795243039178
202,2_21_1,21,1.0,1050.67239149,2_ND,test,01,2,17.0,10100,kill,1.0,1300.0,1.50410302958
203,2_21_1,21,1.0,1055.75070683,2_ND,test,01,2,18.0,01101,ignore,1.0,1400.0,2.92718738954
204,2_21_1,21,1.0,1058.70397018,2_ND,test,01,3,0.0,00000,ignore,0.0,1300.0,0.78832645082
205,2_21_1,21,1.0,1065.31370308,2_ND,test,01,3,1.0,00011,ignore,0.0,1200.0,4.45173639292
206,2_21_1,21,1.0,1079.8456297,2_ND,test,01,3,2.0,01001,ignore,0.0,1100.0,12.3798987882
207,2_21_1,21,1.0,1087.39287765,2_ND,test,01,3,3.0,10001,ignore,1.0,1200.0,5.40638815575
208,2_21_1,21,1.0,1090.4711191,2_ND,test,01,3,4.0,10111,ignore,1.0,1300.0,0.938014674761
209,2_21_1,21,1.0,1094.5494722,2_ND,test,01,3,5.0,01100,kill,0.0,1200.0,1.93670016171
210,2_21_1,21,1.0,1118.45688524,2_ND,test,01,3,6.0,11100,kill,0.0,1100.0,21.7618264096
211,2_21_1,21,1.0,1130.81682495,2_ND,test,01,3,7.0,11011,ignore,0.0,1000.0,10.2174209517
212,2_21_1,21,1.0,1142.25490223,2_ND,test,01,3,8.0,11000,ignore,1.0,1100.0,9.31197598571
213,2_21_1,21,1.0,1148.58333795,2_ND,test,01,3,9.0,10000,ignore,1.0,1200.0,4.1607659317
214,2_21_1,21,1.0,1155.13052392,2_ND,test,01,3,10.0,11010,kill,1.0,1300.0,4.30186260999
215,2_21_1,21,1.0,1160.28700763,2_ND,test,01,3,11.0,00101,ignore,1.0,1400.0,3.02643723036
216,2_21_1,21,1.0,1163.92778348,2_ND,test,01,3,12.0,10011,kill,1.0,1500.0,1.48014580339
217,2_21_1,21,1.0,1167.28731552,2_ND,test,01,3,13.0,00100,ignore,1.0,1600.0,1.21431612274
218,2_21_1,21,1.0,1171.45940425,2_ND,test,01,3,14.0,11111,kill,0.0,1500.0,1.99563648993
219,2_21_1,21,1.0,1205.16416306,2_ND,test,01,3,15.0,01010,,,1400.0,
220,2_21_1,21,1.0,1214.86774365,2_ND,test,01,3,16.0,01110,ignore,1.0,1500.0,7.55266817002
221,2_21_1,21,1.0,1218.16480348,2_ND,test,01,3,17.0,00111,kill,0.0,1400.0,1.11687876634
222,2_21_1,21,1.0,1238.58761936,2_ND,test,01,3,18.0,11110,kill,0.0,1300.0,18.2894909156
223,2_21_1,21,1.0,1245.05674041,2_ND,test,01,3,19.0,10010,ignore,0.0,1200.0,4.29829347304
224,2_21_1,21,1.0,1255.46345863,2_ND,test,01,3,20.0,10000,kill,0.0,1100.0,8.23851925565
225,2_21_1,21,1.0,1265.12018147,2_ND,test,01,3,21.0,11111,kill,0.0,1000.0,7.5302426266
226,2_21_1,21,1.0,1282.93352677,2_ND,test,01,3,22.0,01011,ignore,0.0,900.0,15.6696586002
227,2_21_1,21,1.0,1298.387409,2_ND,test,01,3,23.0,01010,ignore,0.0,800.0,13.3078358033
228,2_21_1,21,1.0,1309.82544687,2_ND,test,01,3,24.0,11101,ignore,1.0,900.0,9.27048056085
229,2_21_1,21,1.0,1333.45155658,2_ND,test,01,3,25.0,00100,ignore,1.0,1000.0,21.4492416097
230,2_21_1,21,1.0,1340.24877221,2_ND,test,01,3,26.0,00010,kill,1.0,1100.0,4.61470070607
231,2_21_1,21,1.0,1353.65568831,2_ND,test,01,3,27.0,01110,ignore,1.0,1200.0,11.253032268
232,2_21_1,21,1.0,1356.5776899,2_ND,test,01,3,28.0,01111,ignore,1.0,1300.0,0.747933295646
233,2_21_1,21,1.0,1360.45288957,2_ND,test,01,3,29.0,10010,kill,1.0,1400.0,1.74813650738
234,2_21_1,21,1.0,1363.65614358,2_ND,test,01,3,30.0,01001,kill,1.0,1500.0,1.04626741104
235,2_21_1,21,1.0,1366.81256078,2_ND,test,01,3,31.0,10110,ignore,1.0,1600.0,1.02738760441
236,2_21_1,21,1.0,1369.93768297,2_ND,test,01,3,32.0,00111,ignore,1.0,1700.0,0.951686513679
237,2_21_1,21,1.0,1374.39102822,2_ND,test,01,3,33.0,11011,kill,1.0,1800.0,2.28950035777
238,2_21_1,21,1.0,1377.65682219,2_ND,test,01,4,0.0,10100,ignore,0.0,1700.0,1.098517047
239,2_21_1,21,1.0,1393.26693893,2_ND,test,01,4,1.0,10001,ignore,0.0,1600.0,13.4570379612
240,2_21_1,21,1.0,1407.09570739,2_ND,test,01,4,2.0,00001,kill,1.0,1700.0,11.6822051798
241,2_21_1,21,1.0,1440.80047441,2_ND,test,01,4,3.0,11001,,,1600.0,
242,2_21_1,21,1.0,1451.17597438,2_ND,test,01,4,4.0,00011,ignore,0.0,1500.0,8.23059071392
243,2_21_1,21,1.0,1474.67710682,2_ND,test,01,4,5.0,10111,ignore,0.0,1400.0,21.3506486149
244,2_21_1,21,1.0,1484.97445321,2_ND,test,01,4,6.0,01000,ignore,1.0,1500.0,8.07740724821
245,2_21_1,21,1.0,1490.75911158,2_ND,test,01,4,7.0,11100,ignore,1.0,1600.0,3.6142142295
246,2_21_1,21,1.0,1494.60308521,2_ND,test,01,4,8.0,00101,ignore,0.0,1500.0,1.67087869163
247,2_21_1,21,1.0,1502.05656511,2_ND,test,01,4,9.0,10011,kill,1.0,1600.0,5.29466604102
248,2_21_1,21,1.0,1511.61948665,2_ND,test,01,4,10.0,11010,kill,0.0,1500.0,7.45480591638
249,2_21_1,21,1.0,1519.19801444,2_ND,test,01,4,11.0,11000,ignore,1.0,1600.0,5.4609737003
250,2_21_1,21,1.0,1524.40136534,2_ND,test,01,4,12.0,01101,ignore,1.0,1700.0,3.0316685982
251,2_21_1,21,1.0,1527.94839736,2_ND,test,01,4,13.0,00110,kill,1.0,1800.0,1.40220363622
252,2_21_1,21,1.0,1531.22983945,2_ND,test,01,4,14.0,10101,kill,1.0,1900.0,1.12770440945
253,2_21_1,21,1.0,1535.8394381,2_ND,test,01,4,15.0,11110,ignore,1.0,2000.0,2.51331447364
254,2_21_1,21,1.0,1539.26147767,2_ND,test,01,4,16.0,00000,kill,0.0,1900.0,1.26435177716
255,2_21_1,21,1.0,1563.63765255,2_ND,test,01,4,17.0,01100,ignore,1.0,2000.0,22.2257448326
256,2_21_1,21,1.0,1580.29472639,2_ND,test,01,4,18.0,11101,ignore,1.0,2100.0,14.5058120608
257,2_21_1,21,1.0,1589.26384847,2_ND,test,01,4,19.0,01101,ignore,1.0,2200.0,6.81979553205
258,2_21_1,21,1.0,1594.81098517,2_ND,test,01,4,20.0,10011,kill,1.0,2300.0,3.42854890814
259,2_21_1,21,1.0,1599.65499492,2_ND,test,01,4,21.0,01110,kill,0.0,2200.0,2.69517337245
260,2_21_1,21,1.0,1606.32715939,2_ND,test,01,4,22.0,01001,ignore,1.0,2300.0,4.51052985714
261,2_21_1,21,1.0,1609.73360584,2_ND,test,01,4,23.0,10000,kill,0.0,2200.0,1.24819377614
262,2_21_1,21,1.0,1628.04697722,2_ND,test,01,4,24.0,10010,ignore,1.0,2300.0,16.1508360623
263,2_21_1,21,1.0,1639.1568852,2_ND,test,01,4,25.0,10101,ignore,0.0,2200.0,8.97701326377
264,2_21_1,21,1.0,1648.79797429,2_ND,test,01,4,26.0,00110,ignore,0.0,2100.0,7.49405574898
265,2_21_1,21,1.0,1673.20539656,2_ND,test,01,4,27.0,10110,ignore,0.0,2000.0,22.1263882543
266,2_21_1,21,1.0,1685.11220736,2_ND,test,01,4,28.0,01000,ignore,1.0,2100.0,9.78084949072
267,2_21_1,21,1.0,1695.09708307,2_ND,test,01,4,29.0,00101,ignore,0.0,2000.0,7.83371943562
268,2_21_1,21,1.0,1705.98822152,2_ND,test,01,4,30.0,01111,kill,0.0,1900.0,8.72120171617
269,2_21_1,21,1.0,1731.69256405,2_ND,test,01,4,31.0,00001,ignore,0.0,1800.0,23.5349875179
270,2_21_1,21,1.0,1754.38114023,2_ND,test,01,4,32.0,01011,ignore,1.0,1900.0,20.5422243187
271,2_21_1,21,1.0,1768.38183648,2_ND,test,01,4,33.0,11111,ignore,1.0,2000.0,11.8599013171
272,2_21_1,21,1.0,1775.22594394,2_ND,test,01,4,34.0,10111,ignore,0.0,1900.0,4.67600414306
273,2_21_1,21,1.0,1778.66361069,2_ND,test,01,4,35.0,11001,ignore,1.0,2000.0,1.28798468564
274,2_21_1,21,1.0,1781.63246141,2_ND,test,01,4,36.0,11011,ignore,1.0,2100.0,0.819644046944
275,2_21_1,21,1.0,1785.02328314,2_ND,test,01,4,37.0,11000,ignore,1.0,2200.0,1.25830920451
276,2_21_1,21,1.0,1787.7421239,2_ND,test,01,4,38.0,01100,ignore,1.0,2300.0,0.594612713336
277,2_21_1,21,1.0,1791.19542646,2_ND,test,01,4,39.0,10100,kill,1.0,2400.0,1.27713276869
278,2_21_1,21,1.0,1795.38313868,2_ND,test,01,4,40.0,11010,ignore,1.0,2500.0,2.04554405938
279,2_21_1,21,1.0,1798.82079599,2_ND,test,01,5,0.0,11100,ignore,1.0,2600.0,1.29390615231
280,2_21_1,21,1.0,1801.9459777,2_ND,test,01,5,1.0,01010,ignore,1.0,2700.0,0.997367279133
281,2_21_1,21,1.0,1804.72731695,2_ND,test,01,5,2.0,11110,ignore,1.0,2800.0,0.673792624688
282,2_21_1,21,1.0,1808.30564112,2_ND,test,01,5,3.0,00000,kill,0.0,2700.0,1.4298835371
283,2_21_1,21,1.0,1834.80690821,2_ND,test,01,5,4.0,00100,kill,0.0,2600.0,24.3285235785
284,2_21_1,21,1.0,1843.54171896,2_ND,test,01,5,5.0,00010,kill,0.0,2500.0,6.6032186275
285,2_21_1,21,1.0,1855.55792376,2_ND,test,01,5,6.0,00011,kill,0.0,2400.0,9.88130341236
286,2_21_1,21,1.0,1874.71506924,2_ND,test,01,5,7.0,10001,ignore,0.0,2300.0,17.0271219923
287,2_21_1,21,1.0,1888.80946704,2_ND,test,01,5,8.0,00111,kill,0.0,2200.0,11.9335284166
288,2_21_1,21,1.0,1917.01396701,2_ND,test,01,5,9.0,10110,ignore,0.0,2100.0,26.0334765668
289,2_21_1,21,1.0,1927.51449064,2_ND,test,01,5,10.0,00010,ignore,1.0,2200.0,8.36691171128
290,2_21_1,21,1.0,1931.29590337,2_ND,test,01,5,11.0,01101,kill,0.0,2100.0,1.6334093222
291,2_21_1,21,1.0,1946.12476379,2_ND,test,01,5,12.0,01000,kill,0.0,2000.0,12.6945087264
292,2_21_1,21,1.0,1950.17182927,2_ND,test,01,5,13.0,10010,kill,1.0,2100.0,1.89986834343
293,2_21_1,21,1.0,1962.12553477,2_ND,test,01,5,14.0,10100,ignore,0.0,2000.0,9.7899254603
294,2_21_1,21,1.0,1965.67257007,2_ND,test,01,5,15.0,11100,ignore,1.0,2100.0,1.41567267393
295,2_21_1,21,1.0,1968.57894447,2_ND,test,01,5,16.0,01110,ignore,1.0,2200.0,0.766152972043
296,2_21_1,21,1.0,1971.36031205,2_ND,test,01,5,17.0,11010,ignore,1.0,2300.0,0.641789856081
297,2_21_1,21,1.0,1974.01672207,2_ND,test,01,5,18.0,11000,ignore,1.0,2400.0,0.524120000837
298,2_21_1,21,1.0,1977.59504705,2_ND,test,01,5,19.0,10011,kill,1.0,2500.0,1.42016303739
299,2_21_1,21,1.0,1981.36081084,2_ND,test,01,5,20.0,11101,ignore,0.0,2400.0,1.64348739246
300,2_21_1,21,1.0,1993.68955241,2_ND,test,01,5,21.0,01111,ignore,1.0,2500.0,10.1694305515
301,2_21_1,21,1.0,2001.03366048,2_ND,test,01,5,22.0,01011,ignore,1.0,2600.0,5.19459062689
302,2_21_1,21,1.0,2009.00278462,2_ND,test,01,5,23.0,00110,ignore,1.0,2700.0,5.82802129659
303,2_21_1,21,1.0,2016.83129526,2_ND,test,01,5,24.0,10101,kill,1.0,2800.0,5.66204698666
304,2_21_1,21,1.0,2023.81600389,2_ND,test,01,5,25.0,11011,ignore,0.0,2700.0,4.8525015364
305,2_21_1,21,1.0,2029.20684655,2_ND,test,01,5,26.0,00100,ignore,1.0,2800.0,3.22625019346
306,2_21_1,21,1.0,2032.11322917,2_ND,test,01,5,27.0,00000,ignore,1.0,2900.0,0.760841961623
307,2_21_1,21,1.0,2034.92587123,2_ND,test,01,5,28.0,00101,ignore,1.0,3000.0,0.681001509514
308,2_21_1,21,1.0,2037.69162025,2_ND,test,01,5,29.0,00111,ignore,1.0,3100.0,0.648412505854
309,2_21_1,21,1.0,2041.30117333,2_ND,test,01,5,30.0,10000,kill,1.0,3200.0,1.46538318959
310,2_21_1,21,1.0,2044.48887693,2_ND,test,01,5,31.0,11111,kill,1.0,3300.0,1.03561501107
311,2_21_1,21,1.0,2048.12965524,2_ND,test,01,5,32.0,00011,ignore,1.0,3400.0,1.47821180245
312,2_21_1,21,1.0,2050.95791998,2_ND,test,01,5,33.0,01100,ignore,1.0,3500.0,0.682193685001
313,2_21_1,21,1.0,2054.47375018,2_ND,test,01,5,34.0,10111,kill,1.0,3600.0,1.33711266099
314,2_21_1,21,1.0,2057.8332112,2_ND,test,01,5,35.0,10001,kill,1.0,3700.0,1.18132397985
315,2_21_1,21,1.0,2060.7240044,2_ND,test,01,6,0.0,11110,kill,0.0,3600.0,0.761476228538
316,2_21_1,21,1.0,2069.59942411,2_ND,test,01,6,1.0,00001,ignore,0.0,3500.0,6.69918834361
317,2_21_1,21,1.0,2076.66227729,2_ND,test,01,6,2.0,11001,ignore,1.0,3600.0,4.8951255048
318,2_21_1,21,1.0,2083.60008547,2_ND,test,01,6,3.0,01001,ignore,0.0,3500.0,4.75385065703
319,2_21_1,21,1.0,2090.91295477,2_ND,test,01,6,4.0,01010,kill,1.0,3600.0,5.17884808096
320,2_21_1,21,1.0,2094.46000034,2_ND,test,01,6,5.0,10111,ignore,1.0,3700.0,1.41309701656
321,2_21_1,21,1.0,2098.02268992,2_ND,test,01,6,6.0,11101,ignore,1.0,3800.0,1.4248869917
322,2_21_1,21,1.0,2101.21033153,2_ND,test,01,6,7.0,01100,kill,0.0,3700.0,1.0806200462
323,2_21_1,21,1.0,2111.78896359,2_ND,test,01,6,8.0,10010,ignore,0.0,3600.0,8.44932905234
324,2_21_1,21,1.0,2129.43044227,2_ND,test,01,6,9.0,10101,ignore,1.0,3700.0,15.4671915687
325,2_21_1,21,1.0,2137.88400469,2_ND,test,01,6,10.0,01010,kill,1.0,3800.0,6.34038785935
326,2_21_1,21,1.0,2146.57187804,2_ND,test,01,6,11.0,11100,ignore,1.0,3900.0,6.55159751105
327,2_21_1,21,1.0,2166.30722576,2_ND,test,01,6,12.0,10000,kill,0.0,3800.0,17.5815993625
328,2_21_1,21,1.0,2171.41681518,2_ND,test,01,6,13.0,01110,ignore,1.0,3900.0,2.97436412176
