,unique_id,pair_id,sbj_id,wall_time,condition,block,rule_id,rule_num,trial,stimulus,choice,correct,points,reaction_time
0,1_12_2,12,2.0,39.0849305981,1_I,training,02,1_B,1.0,10000,kill,0.0,0.0,3.34536100461
1,1_12_2,12,2.0,42.9945260097,1_I,training,02,1_B,2.0,01010,ignore,0.0,0.0,1.68239279144
2,1_12_2,12,2.0,46.2134277385,1_I,training,02,1_B,3.0,01011,ignore,0.0,0.0,1.03808064673
3,1_12_2,12,2.0,49.6510944902,1_I,training,02,1_B,4.0,11101,ignore,1.0,100.0,1.27247532004
4,1_12_2,12,2.0,54.0731480124,1_I,training,02,1_B,5.0,01001,ignore,0.0,0.0,2.25340174384
5,1_12_2,12,2.0,57.8233482478,1_I,training,02,1_B,6.0,01000,kill,1.0,100.0,1.61212710134
6,1_12_2,12,2.0,62.4954679679,1_I,training,02,1_B,7.0,10001,ignore,1.0,200.0,2.48747989949
7,1_12_2,12,2.0,66.4175126638,1_I,training,02,1_B,8.0,00101,ignore,0.0,100.0,1.7813105145
8,1_12_2,12,2.0,70.7458560202,1_I,training,02,1_B,9.0,00000,ignore,1.0,200.0,2.15319454998
9,1_12_2,12,2.0,75.1992053806,1_I,training,02,1_B,10.0,00011,ignore,1.0,300.0,2.27193136945
10,1_12_2,12,2.0,78.8399972412,1_I,training,02,1_B,11.0,10011,ignore,1.0,400.0,1.46802124732
11,1_12_2,12,2.0,82.0745179469,1_I,training,02,1_B,12.0,10010,ignore,1.0,500.0,1.05683236838
12,1_12_2,12,2.0,86.1840815015,1_I,training,02,1_B,13.0,00110,kill,1.0,600.0,1.96147680328
13,1_12_2,12,2.0,89.4498413922,1_I,training,02,1_B,14.0,01110,kill,1.0,700.0,1.1107791302
14,1_12_2,12,2.0,93.1375123518,1_I,training,02,1_B,15.0,00010,ignore,1.0,800.0,1.53139703344
15,1_12_2,12,2.0,97.15337313,1_I,training,02,1_B,16.0,11011,ignore,1.0,900.0,1.87356042963
16,1_12_2,12,2.0,100.216016122,1_I,training,02,1_B,17.0,11010,ignore,1.0,1000.0,0.931163360474
17,1_12_2,12,2.0,103.559905381,1_I,training,02,1_B,18.0,00111,kill,1.0,1100.0,1.20785522129
18,1_12_2,12,2.0,106.66945621,1_I,training,02,1_B,19.0,01111,kill,1.0,1200.0,0.95934000114
19,1_12_2,12,2.0,111.091544627,1_I,training,02,1_B,20.0,11001,kill,0.0,1100.0,2.26897145717
20,1_12_2,12,2.0,114.638586911,1_I,training,02,1_B,21.0,11110,kill,0.0,1000.0,1.42084328352
21,1_12_2,12,2.0,118.857505061,1_I,training,02,1_B,22.0,11111,kill,0.0,900.0,2.06997051993
22,1_12_2,12,2.0,123.263979428,1_I,training,02,1_B,23.0,10101,kill,0.0,800.0,2.23775567217
23,1_12_2,12,2.0,126.498531333,1_I,training,02,1_B,24.0,10100,ignore,1.0,900.0,1.07800949389
24,1_12_2,12,2.0,129.701789864,1_I,training,02,1_B,25.0,11000,ignore,1.0,1000.0,1.05576253046
25,1_12_2,12,2.0,134.248900707,1_I,training,02,1_B,26.0,01101,ignore,0.0,900.0,2.40841493619
26,1_12_2,12,2.0,140.20229543,1_I,training,02,1_B,27.0,00001,ignore,1.0,1000.0,3.78375562373
27,1_12_2,12,2.0,143.530606766,1_I,training,02,1_B,28.0,10110,ignore,1.0,1100.0,1.19318743963
28,1_12_2,12,2.0,147.249527174,1_I,training,02,1_B,29.0,01100,ignore,0.0,1000.0,1.56897067716
29,1_12_2,12,2.0,151.296632063,1_I,training,02,1_B,30.0,00100,kill,1.0,1100.0,1.86921990916
30,1_12_2,12,2.0,154.968611793,1_I,training,02,1_B,31.0,10111,ignore,1.0,1200.0,1.52700930217
31,1_12_2,12,2.0,159.000107969,1_I,training,02,1_B,32.0,11100,kill,0.0,1100.0,1.91310789558
32,1_12_2,12,2.0,162.23460979,1_I,training,02,1_B,33.0,10100,ignore,1.0,1200.0,1.0717279935
33,1_12_2,12,2.0,165.891048544,1_I,training,02,1_B,34.0,00101,ignore,0.0,1100.0,1.49371131536
34,1_12_2,12,2.0,169.031874684,1_I,training,02,1_B,35.0,10110,ignore,1.0,1200.0,0.975208579395
35,1_12_2,12,2.0,172.297586953,1_I,training,02,1_B,36.0,01110,ignore,0.0,1100.0,1.16470372345
36,1_12_2,12,2.0,177.12594242,1_I,training,02,1_B,37.0,10101,ignore,1.0,1200.0,2.64999304154
37,1_12_2,12,2.0,180.047942779,1_I,training,02,1_B,38.0,00100,ignore,0.0,1100.0,0.774996992877
38,1_12_2,12,2.0,186.173232048,1_I,training,02,1_B,39.0,01010,kill,1.0,1200.0,4.01638009707
39,1_12_2,12,2.0,192.720457017,1_I,training,02,1_B,40.0,11110,ignore,1.0,1300.0,4.40188137115
40,1_12_2,12,2.0,196.267512027,1_I,training,02,1_B,41.0,01101,ignore,0.0,1200.0,1.40099052376
41,1_12_2,12,2.0,200.017658484,1_I,training,02,1_B,42.0,11000,ignore,1.0,1300.0,1.58620467403
42,1_12_2,12,2.0,207.986776458,1_I,training,02,1_B,43.0,01111,ignore,0.0,1200.0,5.8092905119
43,1_12_2,12,2.0,211.252558928,1_I,training,02,1_B,44.0,00010,ignore,1.0,1300.0,1.11628308913
44,1_12_2,12,2.0,214.502747874,1_I,training,02,1_B,45.0,10010,ignore,1.0,1400.0,1.12049224039
45,1_12_2,12,2.0,218.190405286,1_I,training,02,1_B,46.0,11100,kill,0.0,1300.0,1.55489652007
46,1_12_2,12,2.0,221.690586124,1_I,training,02,1_B,47.0,10111,ignore,1.0,1400.0,1.34265931492
47,1_12_2,12,2.0,225.550169692,1_I,training,02,1_B,48.0,01000,kill,1.0,1500.0,1.70083210072
48,1_12_2,12,2.0,228.862902693,1_I,training,02,1_B,49.0,00110,ignore,0.0,1400.0,1.17243151662
49,1_12_2,12,2.0,232.191090459,1_I,training,02,1_B,50.0,10001,kill,0.0,1300.0,1.16430633163
50,1_12_2,12,2.0,235.691249128,1_I,training,02,1_B,51.0,11101,kill,0.0,1200.0,1.34422589262
51,1_12_2,12,2.0,240.050840701,1_I,training,02,1_B,52.0,10011,kill,0.0,1100.0,2.21406775284
52,1_12_2,12,2.0,243.597924038,1_I,training,02,1_B,53.0,00000,ignore,1.0,1200.0,1.35488157682
53,1_12_2,12,2.0,247.785567698,1_I,training,02,1_B,54.0,00001,ignore,1.0,1300.0,2.03765246525
54,1_12_2,12,2.0,250.957597307,1_I,training,02,1_B,55.0,01011,ignore,0.0,1200.0,1.00308266037
55,1_12_2,12,2.0,255.504704865,1_I,training,02,1_B,56.0,00111,ignore,0.0,1100.0,2.3794997543
56,1_12_2,12,2.0,258.692346882,1_I,training,02,1_B,57.0,11011,ignore,1.0,1200.0,1.03728668413
57,1_12_2,12,2.0,261.973745044,1_I,training,02,1_B,58.0,11001,kill,0.0,1100.0,1.12582459831
58,1_12_2,12,2.0,268.239699936,1_I,training,02,1_B,59.0,00011,ignore,1.0,1200.0,4.123756765
59,1_12_2,12,2.0,271.880506987,1_I,training,02,1_B,60.0,11010,kill,0.0,1100.0,1.46526865207
60,1_12_2,12,2.0,274.849394244,1_I,training,02,1_B,61.0,10000,ignore,1.0,1200.0,0.804357598456
61,1_12_2,12,2.0,278.30268572,1_I,training,02,1_B,62.0,01001,ignore,0.0,1100.0,1.29049301629
62,1_12_2,12,2.0,282.005976888,1_I,training,02,1_B,63.0,11111,kill,0.0,1000.0,1.53991673656
63,1_12_2,12,2.0,285.490534233,1_I,training,02,1_B,64.0,01100,kill,1.0,1100.0,1.33782574943
64,1_12_2,12,2.0,289.490705013,1_I,training,02,1_B,65.0,11011,ignore,1.0,1200.0,1.8813896234
65,1_12_2,12,2.0,292.819024559,1_I,training,02,1_B,66.0,11110,ignore,1.0,1300.0,1.1943295306
66,1_12_2,12,2.0,295.959794867,1_I,training,02,1_B,67.0,11111,ignore,1.0,1400.0,0.988678848695
67,1_12_2,12,2.0,298.866151617,1_I,training,02,1_B,68.0,11010,ignore,1.0,1500.0,0.772022301564
68,1_12_2,12,2.0,302.069468033,1_I,training,02,1_B,69.0,00011,ignore,1.0,1600.0,1.0323853814
69,1_12_2,12,2.0,305.397743241,1_I,training,02,1_B,70.0,00001,kill,0.0,1500.0,1.17265566532
70,1_12_2,12,2.0,308.929141506,1_I,training,02,1_B,71.0,00111,ignore,0.0,1400.0,1.37182204564
71,1_12_2,12,2.0,312.194961334,1_I,training,02,1_B,72.0,01100,ignore,0.0,1300.0,1.12459301206
72,1_12_2,12,2.0,315.257578874,1_I,training,02,1_B,73.0,10010,ignore,1.0,1400.0,0.922769689678
73,1_12_2,12,2.0,319.148391364,1_I,training,02,1_B,74.0,00100,kill,1.0,1500.0,1.70224637226
74,1_12_2,12,2.0,322.648538128,1_I,training,02,1_B,75.0,01101,kill,1.0,1600.0,1.34173808841
75,1_12_2,12,2.0,325.6643402,1_I,training,02,1_B,76.0,00000,kill,0.0,1500.0,0.860802838233
76,1_12_2,12,2.0,329.930162491,1_I,training,02,1_B,77.0,11100,ignore,1.0,1600.0,2.12928248196
77,1_12_2,12,2.0,334.180352258,1_I,training,02,1_B,78.0,10001,ignore,1.0,1700.0,2.06350099738
78,1_12_2,12,2.0,339.821232793,1_I,training,02,1_B,79.0,00010,ignore,1.0,1800.0,3.49631776239
79,1_12_2,12,2.0,343.290195793,1_I,training,02,1_B,80.0,01000,kill,1.0,1900.0,1.3476127548
80,1_12_2,12,2.0,348.056066322,1_I,training,02,1_B,81.0,00110,ignore,0.0,1800.0,2.61725132118
81,1_12_2,12,2.0,351.134306533,1_I,training,02,1_B,82.0,10110,ignore,1.0,1900.0,0.935214047637
82,1_12_2,12,2.0,354.243837656,1_I,training,02,1_B,83.0,10101,kill,0.0,1800.0,0.946783158306
83,1_12_2,12,2.0,358.306549206,1_I,training,02,1_B,84.0,01001,kill,1.0,1900.0,1.90968737004
84,1_12_2,12,2.0,361.541053491,1_I,training,02,1_B,85.0,10100,kill,0.0,1800.0,1.10807661944
85,1_12_2,12,2.0,364.869357026,1_I,training,02,1_B,86.0,10111,ignore,1.0,1900.0,1.15621604157
86,1_12_2,12,2.0,368.978894717,1_I,training,02,1_B,87.0,00101,ignore,0.0,1800.0,1.94834809389
87,1_12_2,12,2.0,372.400965071,1_I,training,02,1_B,88.0,11000,ignore,1.0,1900.0,1.27795752095
88,1_12_2,12,2.0,379.120043943,1_I,training,02,1_B,89.0,01110,ignore,0.0,1800.0,4.50551894323
89,1_12_2,12,2.0,385.232802232,1_I,training,02,1_B,90.0,10011,ignore,1.0,1900.0,3.97219160362
90,1_12_2,12,2.0,389.814286236,1_I,training,02,1_B,91.0,01111,ignore,0.0,1800.0,2.46110876426
91,1_12_2,12,2.0,393.798855282,1_I,training,02,1_B,92.0,11001,kill,0.0,1700.0,1.85061474628
92,1_12_2,12,2.0,397.314644833,1_I,training,02,1_B,93.0,01011,ignore,0.0,1600.0,1.36766913682
93,1_12_2,12,2.0,400.392930613,1_I,training,02,1_B,94.0,01010,ignore,0.0,1500.0,0.918607338692
94,1_12_2,12,2.0,403.940018466,1_I,training,02,1_B,95.0,10000,ignore,1.0,1600.0,1.40170402273
95,1_12_2,12,2.0,409.158992037,1_I,training,02,1_B,96.0,11101,ignore,1.0,1700.0,3.04732164886
96,1_12_2,12,2.0,412.79981674,1_I,training,02,1_B,97.0,00110,ignore,0.0,1600.0,1.47598591558
97,1_12_2,12,2.0,416.174968584,1_I,training,02,1_B,98.0,10110,kill,0.0,1500.0,1.22112966838
98,1_12_2,12,2.0,421.972076245,1_I,training,02,1_B,99.0,00111,ignore,0.0,1400.0,3.64163057092
99,1_12_2,12,2.0,425.519162866,1_I,training,02,1_B,100.0,10100,ignore,1.0,1500.0,1.41394106367
100,1_12_2,12,2.0,432.925780097,1_I,training,02,1_B,101.0,01001,ignore,0.0,1400.0,5.22204884225
101,1_12_2,12,2.0,437.347850451,1_I,training,02,1_B,102.0,11000,ignore,1.0,1500.0,2.27846575554
102,1_12_2,12,2.0,442.676241839,1_I,training,02,1_B,103.0,10101,kill,0.0,1400.0,3.06790391821
103,1_12_2,12,2.0,446.645176718,1_I,training,02,1_B,104.0,01101,ignore,0.0,1300.0,1.81528135793
104,1_12_2,12,2.0,450.614120629,1_I,training,02,1_B,105.0,10011,ignore,1.0,1400.0,1.81837674469
105,1_12_2,12,2.0,454.176767932,1_I,training,02,1_B,106.0,11111,ignore,1.0,1500.0,1.44500290039
106,1_12_2,12,2.0,457.223761158,1_I,training,02,1_B,107.0,10010,ignore,1.0,1600.0,0.906744289441
107,1_12_2,12,2.0,460.239585809,1_I,training,02,1_B,108.0,01010,ignore,0.0,1500.0,0.894473174616
108,1_12_2,12,2.0,465.536671507,1_I,training,02,1_B,109.0,00000,ignore,1.0,1600.0,3.13032645656
109,1_12_2,12,2.0,470.474457928,1_I,training,02,1_B,110.0,00001,kill,0.0,1500.0,2.78606813217
110,1_12_2,12,2.0,474.412147053,1_I,training,02,1_B,111.0,01100,ignore,0.0,1400.0,1.78986757574
111,1_12_2,12,2.0,480.287408714,1_I,training,02,1_B,112.0,11011,ignore,1.0,1500.0,3.71882064943
112,1_12_2,12,2.0,487.662759254,1_I,training,02,1_B,113.0,11101,ignore,1.0,1600.0,5.16162968418
113,1_12_2,12,2.0,495.694376126,1_I,training,02,1_B,114.0,00011,ignore,1.0,1700.0,5.72211432158
114,1_12_2,12,2.0,500.335265282,1_I,training,02,1_B,115.0,11100,kill,0.0,1600.0,2.49471218445
115,1_12_2,12,2.0,503.960408607,1_I,training,02,1_B,116.0,11110,ignore,1.0,1700.0,1.51123062971
116,1_12_2,12,2.0,507.538678992,1_I,training,02,1_B,117.0,01011,ignore,0.0,1600.0,1.4433566801
117,1_12_2,12,2.0,519.242418047,1_I,training,02,1_B,118.0,00100,ignore,0.0,1500.0,9.54044262389
118,1_12_2,12,2.0,523.476969132,1_I,training,02,1_B,119.0,01110,ignore,0.0,1400.0,2.07649997968
119,1_12_2,12,2.0,527.289654717,1_I,training,02,1_B,120.0,11001,ignore,1.0,1500.0,1.65607707759
120,1_12_2,12,2.0,533.446214781,1_I,training,02,1_B,121.0,10111,kill,0.0,1400.0,3.99685083397
121,1_12_2,12,2.0,537.524508772,1_I,training,02,1_B,122.0,01000,kill,1.0,1500.0,1.91485059011
122,1_12_2,12,2.0,540.884083513,1_I,training,02,1_B,123.0,00101,kill,1.0,1600.0,1.20209878717
123,1_12_2,12,2.0,544.946751548,1_I,training,02,1_B,124.0,10001,kill,0.0,1500.0,1.86278322892
124,1_12_2,12,2.0,547.853126772,1_I,training,02,1_B,125.0,11010,ignore,1.0,1600.0,0.748637352452
125,1_12_2,12,2.0,551.634569066,1_I,training,02,1_B,126.0,00010,ignore,1.0,1700.0,1.62065624663
126,1_12_2,12,2.0,555.337907034,1_I,training,02,1_B,127.0,01111,ignore,0.0,1600.0,1.57284730014
127,1_12_2,12,2.0,561.900716496,1_I,training,02,1_B,128.0,10000,kill,0.0,1500.0,4.42178996282
128,1_12_2,12,2.0,565.697761346,1_I,training,02,1_B,129.0,00111,ignore,0.0,1400.0,1.62966119473
129,1_12_2,12,2.0,568.619755957,1_I,training,02,1_B,130.0,00100,ignore,0.0,1300.0,0.744092388672
130,1_12_2,12,2.0,571.448043687,1_I,training,02,1_B,131.0,11010,ignore,1.0,1400.0,0.700811163755
131,1_12_2,12,2.0,574.479434357,1_I,training,02,1_B,132.0,10000,kill,0.0,1300.0,0.883479625252
132,1_12_2,12,2.0,577.745191374,1_I,training,02,1_B,133.0,01101,kill,1.0,1400.0,1.10036688954
133,1_12_2,12,2.0,580.729691451,1_I,training,02,1_B,134.0,10111,ignore,1.0,1500.0,0.845794317709
134,1_12_2,12,2.0,583.807997346,1_I,training,02,1_B,135.0,10011,ignore,1.0,1600.0,0.916102702799
135,1_12_2,12,2.0,589.370774376,1_I,training,02,1_B,136.0,10100,kill,0.0,1500.0,3.41122787917
136,1_12_2,12,2.0,592.542768269,1_I,training,02,1_B,137.0,00000,kill,0.0,1400.0,0.98152169049
137,1_12_2,12,2.0,596.105480025,1_I,training,02,1_B,138.0,10010,ignore,1.0,1500.0,1.41043802186
138,1_12_2,12,2.0,599.043110445,1_I,training,02,1_B,139.0,11011,ignore,1.0,1600.0,0.848011583479
139,1_12_2,12,2.0,602.293281328,1_I,training,02,1_B,140.0,10110,ignore,1.0,1700.0,1.08631407994
140,1_12_2,12,2.0,605.996558127,1_I,training,02,1_B,141.0,10001,kill,0.0,1600.0,1.55932243051
141,1_12_2,12,2.0,609.512417468,1_I,training,02,1_B,142.0,00011,ignore,1.0,1700.0,1.35675564056
142,1_12_2,12,2.0,612.434360353,1_I,training,02,1_B,143.0,11101,ignore,1.0,1800.0,0.755089222264
143,1_12_2,12,2.0,614.965722081,1_I,training,02,1_B,144.0,01000,ignore,0.0,1700.0,0.379582681107
144,1_12_2,12,2.0,617.965910514,1_I,training,02,1_B,145.0,00101,ignore,0.0,1600.0,0.81524194717
145,1_12_2,12,2.0,620.872280812,1_I,training,02,1_B,146.0,01001,kill,1.0,1700.0,0.769983615799
146,1_12_2,12,2.0,623.513002472,1_I,training,02,1_B,147.0,11000,kill,0.0,1600.0,0.502182576092
147,1_12_2,12,2.0,626.403776782,1_I,training,02,1_B,148.0,11001,kill,0.0,1500.0,0.723239170355
148,1_12_2,12,2.0,629.138323146,1_I,training,02,1_B,149.0,10101,kill,0.0,1400.0,0.586049494166
149,1_12_2,12,2.0,632.27905117,1_I,training,02,1_B,150.0,01100,kill,1.0,1500.0,0.996556484857
150,1_12_2,12,2.0,635.560508859,1_I,training,02,1_B,151.0,01111,ignore,0.0,1400.0,1.14441210846
151,1_12_2,12,2.0,639.060641254,1_I,training,02,1_B,152.0,01110,ignore,0.0,1300.0,1.3668021001
152,1_12_2,12,2.0,644.904690004,1_I,training,02,1_B,153.0,00110,ignore,0.0,1200.0,3.70460321781
153,1_12_2,12,2.0,647.607932729,1_I,training,02,1_B,154.0,01010,kill,1.0,1300.0,0.615879334106
154,1_12_2,12,2.0,650.717435525,1_I,training,02,1_B,155.0,11111,kill,0.0,1200.0,0.951934883571
155,1_12_2,12,2.0,655.889597325,1_I,training,02,1_B,156.0,00001,ignore,1.0,1300.0,3.01814578122
156,1_12_2,12,2.0,658.795977475,1_I,training,02,1_B,157.0,11100,ignore,1.0,1400.0,0.770494724089
157,1_12_2,12,2.0,661.968002568,1_I,training,02,1_B,158.0,01011,kill,1.0,1500.0,1.01531190127
158,1_12_2,12,2.0,665.077566123,1_I,training,02,1_B,159.0,11110,kill,0.0,1400.0,0.992621156271
159,1_12_2,12,2.0,669.249608869,1_I,training,02,1_B,160.0,00010,kill,0.0,1300.0,2.00213392844
160,1_12_2,12,2.0,673.374815621,1_I,training,02,1_B,161.0,11001,ignore,1.0,1400.0,1.97391295066
161,1_12_2,12,2.0,678.515680351,1_I,training,02,1_B,162.0,01001,ignore,0.0,1300.0,2.98663769976
162,1_12_2,12,2.0,684.734717554,1_I,training,02,1_B,163.0,11110,ignore,1.0,1400.0,4.09127819357
163,1_12_2,12,2.0,688.094252064,1_I,training,02,1_B,164.0,10101,ignore,1.0,1500.0,1.24799425916
164,1_12_2,12,2.0,691.016285265,1_I,training,02,1_B,165.0,10100,ignore,1.0,1600.0,0.760533244003
165,1_12_2,12,2.0,695.141491607,1_I,training,02,1_B,166.0,00010,kill,0.0,1500.0,1.97454721758
166,1_12_2,12,2.0,698.063509208,1_I,training,02,1_B,167.0,10000,kill,0.0,1400.0,0.795476630035
167,1_12_2,12,2.0,701.485529067,1_I,training,02,1_B,168.0,01100,kill,1.0,1500.0,1.29473706249
168,1_12_2,12,2.0,705.001291523,1_I,training,02,1_B,169.0,00001,ignore,1.0,1600.0,1.35577447686
169,1_12_2,12,2.0,708.220241284,1_I,training,02,1_B,170.0,11101,kill,0.0,1500.0,1.0595443213
170,1_12_2,12,2.0,713.361105193,1_I,training,02,1_B,171.0,11111,ignore,1.0,1600.0,2.9826941606
171,1_12_2,12,2.0,716.861289315,1_I,training,02,1_B,172.0,00011,ignore,1.0,1700.0,1.37937823779
172,1_12_2,12,2.0,719.877036787,1_I,training,02,1_B,173.0,00101,ignore,0.0,1600.0,0.875527683391
173,1_12_2,12,2.0,723.26785523,1_I,training,02,1_B,174.0,10110,kill,0.0,1500.0,1.24168196913
174,1_12_2,12,2.0,726.783668181,1_I,training,02,1_B,175.0,10111,ignore,1.0,1600.0,1.37297152614
175,1_12_2,12,2.0,732.799551538,1_I,training,02,1_B,176.0,11000,ignore,1.0,1700.0,3.87847035346
176,1_12_2,12,2.0,736.909095388,1_I,training,02,1_B,177.0,00110,kill,1.0,1800.0,1.96654724385
177,1_12_2,12,2.0,742.190599877,1_I,training,02,1_B,178.0,11011,ignore,1.0,1900.0,3.13117953531
178,1_12_2,12,2.0,748.425311068,1_I,training,02,1_B,179.0,00100,kill,1.0,2000.0,4.07822912677
179,1_12_2,12,2.0,752.566128997,1_I,training,02,1_B,180.0,01000,kill,1.0,2100.0,2.00987814275
180,1_12_2,12,2.0,756.25379503,1_I,training,02,1_B,181.0,10011,ignore,1.0,2200.0,1.52373040906
181,1_12_2,12,2.0,762.644713231,1_I,training,02,1_B,182.0,01110,ignore,0.0,2100.0,4.26604438719
182,1_12_2,12,2.0,766.191784663,1_I,training,02,1_B,183.0,11100,kill,0.0,2000.0,1.39600629423
183,1_12_2,12,2.0,769.535652985,1_I,training,02,1_B,184.0,01011,ignore,0.0,1900.0,1.20894558565
184,1_12_2,12,2.0,773.410874003,1_I,training,02,1_B,185.0,01010,kill,1.0,2000.0,1.7589966349
185,1_12_2,12,2.0,776.770386345,1_I,training,02,1_B,186.0,01101,ignore,0.0,1900.0,1.20451967521
186,1_12_2,12,2.0,779.926787535,1_I,training,02,1_B,187.0,11010,ignore,1.0,2000.0,1.041083254
187,1_12_2,12,2.0,784.473858556,1_I,training,02,1_B,188.0,00000,ignore,1.0,2100.0,2.40693867481
188,1_12_2,12,2.0,787.786515198,1_I,training,02,1_B,189.0,10001,ignore,1.0,2200.0,1.15579853384
189,1_12_2,12,2.0,791.239856758,1_I,training,02,1_B,190.0,10010,kill,0.0,2100.0,1.3261872594
190,1_12_2,12,2.0,794.208746069,1_I,training,02,1_B,191.0,01111,ignore,0.0,2000.0,0.83566575242
191,1_12_2,12,2.0,797.693266466,1_I,training,02,1_B,192.0,00111,kill,1.0,2100.0,1.31759571375
192,1_12_2,12,2.0,802.927927573,1_I,training,02,1_B,193.0,11100,ignore,1.0,2200.0,3.08636170128
193,1_12_2,12,2.0,808.11567017,1_I,training,02,1_B,194.0,11011,ignore,1.0,2300.0,3.06586523244
194,1_12_2,12,2.0,812.459603355,1_I,training,02,1_B,195.0,11001,kill,0.0,2200.0,2.22901140983
195,1_12_2,12,2.0,818.553684639,1_I,training,02,1_B,196.0,01100,ignore,0.0,2100.0,3.94060921645
196,1_12_2,12,2.0,822.5382426,1_I,training,02,1_B,197.0,01000,kill,1.0,2200.0,1.81637254335
197,1_12_2,12,2.0,825.866515756,1_I,training,02,1_B,198.0,01001,kill,1.0,2300.0,1.20071407371
198,1_12_2,12,2.0,829.288514268,1_I,training,02,1_B,199.0,00001,kill,0.0,2200.0,1.2683893274
199,1_12_2,12,2.0,832.460548803,1_I,training,02,1_B,200.0,11000,ignore,1.0,2300.0,1.04936361886
200,1_12_2,12,2.0,836.710788244,1_I,training,02,1_B,201.0,10100,kill,0.0,2200.0,2.08076291021
201,1_12_2,12,2.0,839.976524735,1_I,training,02,1_B,202.0,00111,ignore,0.0,2100.0,1.10283211468
202,1_12_2,12,2.0,843.132945219,1_I,training,02,1_B,203.0,11101,ignore,1.0,2200.0,1.02757193182
203,1_12_2,12,2.0,949.231771805,1_I,test,02,2,0.0,01011,ignore,1.0,100.0,9.06940850607
204,1_12_2,12,2.0,955.325824352,1_I,test,02,2,1.0,00000,kill,0.0,0.0,3.95395714819
205,1_12_2,12,2.0,961.357357886,1_I,test,02,2,2.0,10011,ignore,0.0,0.0,3.88415248187
206,1_12_2,12,2.0,966.2325982,1_I,test,02,2,3.0,01010,ignore,1.0,100.0,2.70149962046
207,1_12_2,12,2.0,969.889041469,1_I,test,02,2,4.0,00101,kill,0.0,0.0,1.50347738377
208,1_12_2,12,2.0,975.014276137,1_I,test,02,2,5.0,11110,ignore,0.0,0.0,3.00576505522
209,1_12_2,12,2.0,979.483283885,1_I,test,02,2,6.0,10000,ignore,1.0,100.0,2.31574546068
210,1_12_2,12,2.0,983.077242626,1_I,test,02,2,7.0,10001,ignore,1.0,200.0,1.45394626918
211,1_12_2,12,2.0,987.483658287,1_I,test,02,2,8.0,10111,kill,1.0,300.0,2.21727685607
212,1_12_2,12,2.0,990.952537129,1_I,test,02,2,9.0,00011,ignore,0.0,200.0,1.32630179693
213,1_12_2,12,2.0,994.85895628,1_I,test,02,2,10.0,10110,ignore,0.0,100.0,1.78098989155
214,1_12_2,12,2.0,998.281069329,1_I,test,02,2,11.0,00010,ignore,0.0,0.0,1.28160014254
215,1_12_2,12,2.0,1001.70305511,1_I,test,02,2,12.0,01110,ignore,1.0,100.0,1.30322761807
216,1_12_2,12,2.0,1004.62507846,1_I,test,02,2,13.0,11111,kill,1.0,200.0,0.797610147943
217,1_12_2,12,2.0,1007.76582783,1_I,test,02,2,14.0,10101,kill,0.0,100.0,1.00000369476
218,1_12_2,12,2.0,1012.85984056,1_I,test,02,2,15.0,01101,kill,0.0,0.0,2.94033128849
219,1_12_2,12,2.0,1015.81311171,1_I,test,02,2,16.0,01111,ignore,1.0,100.0,0.809635766578
220,1_12_2,12,2.0,1018.64137892,1_I,test,02,2,17.0,11010,kill,1.0,200.0,0.695974314036
221,1_12_2,12,2.0,1022.03215795,1_I,test,02,2,18.0,00100,kill,0.0,100.0,1.21625258684
222,1_12_2,12,2.0,1024.84480125,1_I,test,02,2,19.0,10010,kill,1.0,200.0,0.690714619708
223,1_12_2,12,2.0,1027.78244604,1_I,test,02,2,20.0,00110,kill,1.0,300.0,0.793613650574
224,1_12_2,12,2.0,1030.8294836,1_I,test,02,2,21.0,00111,ignore,0.0,200.0,0.895047504335
225,1_12_2,12,2.0,1033.78274572,1_I,test,02,2,22.0,11110,kill,1.0,300.0,0.854288568047
226,1_12_2,12,2.0,1036.48600528,1_I,test,02,2,23.0,10110,kill,1.0,400.0,0.55062127368
227,1_12_2,12,2.0,1039.64240401,1_I,test,02,2,24.0,10001,ignore,1.0,500.0,1.02072595441
228,1_12_2,12,2.0,1042.3456455,1_I,test,02,2,25.0,11010,kill,1.0,600.0,0.586343843283
229,1_12_2,12,2.0,1045.29893636,1_I,test,02,2,26.0,10101,ignore,1.0,700.0,0.783839371594
230,1_12_2,12,2.0,1048.04902042,1_I,test,02,2,27.0,01110,kill,0.0,600.0,0.647164498459
231,1_12_2,12,2.0,1051.37731164,1_I,test,02,2,28.0,01001,kill,0.0,500.0,1.2088450061
232,1_12_2,12,2.0,1055.09625996,1_I,test,02,2,29.0,01101,ignore,1.0,600.0,1.57188050493
233,1_12_2,12,2.0,1057.75264576,1_I,test,02,2,30.0,10111,ignore,0.0,500.0,0.506112157276
234,1_12_2,12,2.0,1060.53403016,1_I,test,02,2,31.0,00101,ignore,1.0,600.0,0.649826777393
235,1_12_2,12,2.0,1063.26854081,1_I,test,02,2,32.0,00110,kill,1.0,700.0,0.645426319737
236,1_12_2,12,2.0,1066.56556821,1_I,test,02,2,33.0,00010,kill,1.0,800.0,1.14478158434
237,1_12_2,12,2.0,1069.73757894,1_I,test,02,2,34.0,01010,kill,0.0,700.0,1.02896321375
238,1_12_2,12,2.0,1072.87833939,1_I,test,02,2,35.0,01000,ignore,1.0,800.0,1.0139358089
239,1_12_2,12,2.0,1076.33164401,1_I,test,02,2,36.0,00011,kill,1.0,900.0,1.29298287315
240,1_12_2,12,2.0,1079.51930819,1_I,test,02,2,37.0,10011,kill,1.0,1000.0,1.06651879421
241,1_12_2,12,2.0,1082.58195283,1_I,test,02,2,38.0,00000,ignore,1.0,1100.0,0.905307849349
242,1_12_2,12,2.0,1089.78541129,1_I,test,02,2,39.0,11100,ignore,1.0,1200.0,5.07791507227
243,1_12_2,12,2.0,1092.7230803,1_I,test,02,2,40.0,11000,ignore,1.0,1300.0,0.812975007422
244,1_12_2,12,2.0,1095.80133241,1_I,test,02,2,41.0,11001,kill,0.0,1200.0,0.963171465952
245,1_12_2,12,2.0,1098.98900522,1_I,test,02,2,42.0,10100,kill,0.0,1100.0,1.08202815981
246,1_12_2,12,2.0,1102.36417595,1_I,test,02,2,43.0,01111,ignore,1.0,1200.0,1.2449103672
247,1_12_2,12,2.0,1105.58310108,1_I,test,02,2,44.0,00001,ignore,1.0,1300.0,1.07019466863
248,1_12_2,12,2.0,1108.59883746,1_I,test,02,2,45.0,00100,kill,0.0,1200.0,0.884809738396
249,1_12_2,12,2.0,1111.59896678,1_I,test,02,2,46.0,01011,ignore,1.0,1300.0,0.881021379104
250,1_12_2,12,2.0,1114.64598792,1_I,test,02,2,47.0,11011,ignore,0.0,1200.0,0.927080652069
251,1_12_2,12,2.0,1117.91179051,1_I,test,02,2,48.0,11101,ignore,1.0,1300.0,1.14365221975
252,1_12_2,12,2.0,1120.94319185,1_I,test,02,2,49.0,11111,ignore,0.0,1200.0,0.912137816144
253,1_12_2,12,2.0,1124.31836217,1_I,test,02,2,50.0,01100,kill,0.0,1100.0,1.26377375268
254,1_12_2,12,2.0,1127.14659694,1_I,test,02,2,51.0,10000,ignore,1.0,1200.0,0.681901388532
255,1_12_2,12,2.0,1130.27174581,1_I,test,02,2,52.0,10010,ignore,0.0,1100.0,0.969463640085
256,1_12_2,12,2.0,1134.64694979,1_I,test,02,2,53.0,10010,kill,1.0,1200.0,2.24325018895
257,1_12_2,12,2.0,1137.52208953,1_I,test,02,2,54.0,10000,kill,0.0,1100.0,0.729190605623
258,1_12_2,12,2.0,1140.60039255,1_I,test,02,2,55.0,00001,ignore,1.0,1200.0,0.974153109983
259,1_12_2,12,2.0,1144.13176208,1_I,test,02,2,56.0,00111,ignore,0.0,1100.0,1.37752839525
260,1_12_2,12,2.0,1147.78818441,1_I,test,02,2,57.0,01011,ignore,1.0,1200.0,1.5159656683
261,1_12_2,12,2.0,1150.92898797,1_I,test,02,2,58.0,00010,kill,1.0,1300.0,1.00008867421
262,1_12_2,12,2.0,1154.44477218,1_I,test,02,2,59.0,11100,kill,0.0,1200.0,1.37306143193
263,1_12_2,12,2.0,1157.33554444,1_I,test,02,2,60.0,11101,ignore,1.0,1300.0,0.773354467354
264,1_12_2,12,2.0,1160.50754737,1_I,test,02,2,61.0,10111,ignore,0.0,1200.0,1.04087224222
265,1_12_2,12,2.0,1163.27331526,1_I,test,02,2,62.0,01001,ignore,1.0,1300.0,0.598511094337
266,1_12_2,12,2.0,1166.38286445,1_I,test,02,2,63.0,10100,kill,0.0,1200.0,0.998476938341
267,1_12_2,12,2.0,1169.66426959,1_I,test,02,2,64.0,01100,kill,0.0,1100.0,1.14513053377
268,1_12_2,12,2.0,1172.80506453,1_I,test,02,2,65.0,10001,ignore,1.0,1200.0,0.973738065415
269,1_12_2,12,2.0,1176.75834307,1_I,test,02,2,66.0,00000,kill,0.0,1100.0,1.80525624589
270,1_12_2,12,2.0,1180.13352694,1_I,test,02,2,67.0,00110,ignore,0.0,1000.0,1.23508395108
271,1_12_2,12,2.0,1183.7743266,1_I,test,02,2,68.0,00101,ignore,1.0,1100.0,1.53719944677
272,1_12_2,12,2.0,1186.57132588,1_I,test,02,2,69.0,11001,ignore,1.0,1200.0,0.692722515818
273,1_12_2,12,2.0,1190.02461161,1_I,test,02,2,70.0,10110,ignore,0.0,1100.0,1.28670096224
274,1_12_2,12,2.0,1192.94662757,1_I,test,02,2,71.0,11111,ignore,0.0,1000.0,0.795449124609
275,1_12_2,12,2.0,1197.66564322,1_I,test,02,2,72.0,11011,ignore,0.0,900.0,2.60685385956
276,1_12_2,12,2.0,1200.85328441,1_I,test,02,2,73.0,11110,kill,1.0,1000.0,1.08703414737
277,1_12_2,12,2.0,1204.83784525,1_I,test,02,2,74.0,00100,ignore,1.0,1100.0,1.80125318006
278,1_12_2,12,2.0,1207.884976,1_I,test,02,2,75.0,00011,kill,1.0,1200.0,0.903530670399
279,1_12_2,12,2.0,1210.68184966,1_I,test,02,2,76.0,11010,kill,1.0,1300.0,0.711503795545
280,1_12_2,12,2.0,1214.08835605,1_I,test,02,2,77.0,01101,ignore,1.0,1400.0,1.25737114632
281,1_12_2,12,2.0,1217.54154777,1_I,test,02,2,78.0,10011,kill,1.0,1500.0,1.34768008152
282,1_12_2,12,2.0,1220.46358836,1_I,test,02,2,79.0,01110,kill,0.0,1400.0,0.771102717168
283,1_12_2,12,2.0,1223.63560647,1_I,test,02,2,80.0,01111,ignore,1.0,1500.0,1.02275560854
284,1_12_2,12,2.0,1226.62010901,1_I,test,02,2,81.0,01010,ignore,1.0,1600.0,0.889997590195
285,1_12_2,12,2.0,1229.71401336,1_I,test,02,2,82.0,11000,kill,0.0,1500.0,0.982238884215
286,1_12_2,12,2.0,1233.02664414,1_I,test,02,2,83.0,10101,ignore,1.0,1600.0,1.20095094879
287,1_12_2,12,2.0,1237.68314324,1_I,test,02,2,84.0,01000,ignore,1.0,1700.0,2.52873229133
288,1_12_2,12,2.0,1240.49576889,1_I,test,02,2,85.0,01100,ignore,1.0,1800.0,0.662950970964
289,1_12_2,12,2.0,1243.18344723,1_I,test,02,2,86.0,11000,ignore,1.0,1900.0,0.580919937453
290,1_12_2,12,2.0,1246.12108217,1_I,test,02,2,87.0,11011,kill,1.0,2000.0,0.823114246454
291,1_12_2,12,2.0,1249.05872326,1_I,test,02,2,88.0,01001,ignore,1.0,2100.0,0.764732953103
292,1_12_2,12,2.0,1251.91819435,1_I,test,02,2,89.0,01101,ignore,1.0,2200.0,0.72733419462
293,1_12_2,12,2.0,1254.74644267,1_I,test,02,2,90.0,00010,kill,1.0,2300.0,0.667621556535
294,1_12_2,12,2.0,1257.44974861,1_I,test,02,2,91.0,01000,ignore,1.0,2400.0,0.593785497906
295,1_12_2,12,2.0,1260.402982,1_I,test,02,2,92.0,00101,ignore,1.0,2500.0,0.749813106788
296,1_12_2,12,2.0,1263.30938227,1_I,test,02,3,0.0,10101,ignore,1.0,2600.0,0.724299976642
297,1_12_2,12,2.0,1266.68455464,1_I,test,02,3,1.0,10111,kill,0.0,2500.0,1.24506636813
298,1_12_2,12,2.0,1270.48157568,1_I,test,02,3,2.0,10100,ignore,0.0,2400.0,1.64657908446
299,1_12_2,12,2.0,1273.65363607,1_I,test,02,3,3.0,10010,ignore,0.0,2300.0,1.07361314152
300,1_12_2,12,2.0,1277.09131309,1_I,test,02,3,4.0,00000,ignore,0.0,2200.0,1.25753494729
301,1_12_2,12,2.0,1280.12269021,1_I,test,02,3,5.0,00001,kill,0.0,2100.0,0.865115442735
302,1_12_2,12,2.0,1283.57598005,1_I,test,02,3,6.0,11001,ignore,1.0,2200.0,1.32125106173
303,1_12_2,12,2.0,1286.77925089,1_I,test,02,3,7.0,01111,kill,0.0,2100.0,1.03230779147
304,1_12_2,12,2.0,1290.34194705,1_I,test,02,3,8.0,00111,ignore,1.0,2200.0,1.44832448849
305,1_12_2,12,2.0,1293.26393591,1_I,test,02,3,9.0,11110,ignore,1.0,2300.0,0.812235645146
306,1_12_2,12,2.0,1296.07657757,1_I,test,02,3,10.0,01011,ignore,1.0,2400.0,0.658200742811
307,1_12_2,12,2.0,1298.88921512,1_I,test,02,3,11.0,11101,kill,0.0,2300.0,0.697069194212
308,1_12_2,12,2.0,1302.0143566,1_I,test,02,3,12.0,11111,ignore,1.0,2400.0,1.00409912956
309,1_12_2,12,2.0,1305.01449249,1_I,test,02,3,13.0,10001,kill,0.0,2300.0,0.893636517027
310,1_12_2,12,2.0,1308.06151404,1_I,test,02,3,14.0,00100,ignore,0.0,2200.0,0.892684911385
311,1_12_2,12,2.0,1311.10858321,1_I,test,02,3,15.0,00110,ignore,1.0,2300.0,0.91480953724
312,1_12_2,12,2.0,1313.99932181,1_I,test,02,3,16.0,10011,ignore,1.0,2400.0,0.808947309866
313,1_12_2,12,2.0,1316.93697029,1_I,test,02,3,17.0,01110,ignore,1.0,2500.0,0.812821880198
314,1_12_2,12,2.0,1320.0777369,1_I,test,02,3,18.0,10110,ignore,1.0,2600.0,0.971277356097
315,1_12_2,12,2.0,1322.84351876,1_I,test,02,3,19.0,11010,ignore,0.0,2500.0,0.634702077234
316,1_12_2,12,2.0,1325.67175722,1_I,test,02,3,20.0,10000,kill,1.0,2600.0,0.648925666792
317,1_12_2,12,2.0,1328.76562544,1_I,test,02,3,21.0,01010,ignore,0.0,2500.0,0.968291169978
318,1_12_2,12,2.0,1332.40646616,1_I,test,02,3,22.0,00011,kill,0.0,2400.0,1.46108823782
319,1_12_2,12,2.0,1335.65662472,1_I,test,02,3,23.0,11100,kill,1.0,2500.0,1.0991168295
320,1_12_2,12,2.0,1338.70360481,1_I,test,02,3,24.0,00011,kill,0.0,2400.0,0.928315522542
321,1_12_2,12,2.0,1341.98507194,1_I,test,02,3,25.0,11011,ignore,1.0,2500.0,1.13842290455
322,1_12_2,12,2.0,1345.04766362,1_I,test,02,3,26.0,01100,kill,1.0,2600.0,0.858011653272
323,1_12_2,12,2.0,1348.18845117,1_I,test,02,3,27.0,10101,kill,0.0,2500.0,0.95585296995
324,1_12_2,12,2.0,1351.48550649,1_I,test,02,3,28.0,00000,ignore,0.0,2400.0,1.14518595515
325,1_12_2,12,2.0,1354.2981346,1_I,test,02,3,29.0,10011,kill,0.0,2300.0,0.726312799095
326,1_12_2,12,2.0,1358.95458362,1_I,test,02,3,30.0,00001,ignore,1.0,2400.0,2.48296736748
327,1_12_2,12,2.0,1361.70469887,1_I,test,02,3,31.0,11101,ignore,1.0,2500.0,0.639332020462
328,1_12_2,12,2.0,1364.79865741,1_I,test,02,3,32.0,11110,kill,0.0,2400.0,0.970015801253
329,1_12_2,12,2.0,1367.78312423,1_I,test,02,3,33.0,00111,ignore,1.0,2500.0,0.814122024745
330,1_12_2,12,2.0,1370.298899,1_I,test,02,3,34.0,10010,ignore,0.0,2400.0,0.404753840805
331,1_12_2,12,2.0,1372.87715091,1_I,test,02,3,35.0,01101,ignore,1.0,2500.0,0.427950767753
332,1_12_2,12,2.0,1375.221018,1_I,test,02,3,36.0,10001,ignore,1.0,2600.0,0.207489850702
333,1_12_2,12,2.0,1377.67427459,1_I,test,02,3,37.0,11010,ignore,0.0,2500.0,0.320920996615
334,1_12_2,12,2.0,1380.59628644,1_I,test,02,3,38.0,01010,kill,1.0,2600.0,0.776330390254
335,1_12_2,12,2.0,1383.87766202,1_I,test,02,3,39.0,00100,ignore,0.0,2500.0,1.14938607478
336,1_12_2,12,2.0,1387.65909282,1_I,test,02,3,40.0,01011,ignore,1.0,2600.0,1.61612729347
337,1_12_2,12,2.0,1390.58114121,1_I,test,02,3,41.0,01111,ignore,1.0,2700.0,0.799279768362
338,1_12_2,12,2.0,1393.36255272,1_I,test,02,3,42.0,10111,ignore,1.0,2800.0,0.651675388352
339,1_12_2,12,2.0,1396.23764524,1_I,test,02,3,43.0,11100,kill,1.0,2900.0,0.74054008341
340,1_12_2,12,2.0,1399.05028936,1_I,test,02,3,44.0,10110,ignore,1.0,3000.0,0.698537245014
341,1_12_2,12,2.0,1401.98791444,1_I,test,02,3,45.0,00110,ignore,1.0,3100.0,0.75340194911
342,1_12_2,12,2.0,1407.06627289,1_I,test,02,3,46.0,11001,kill,0.0,3000.0,2.93470006565
343,1_12_2,12,2.0,1411.0039731,1_I,test,02,3,47.0,00010,ignore,0.0,2900.0,1.80299012719
344,1_12_2,12,2.0,1415.01976901,1_I,test,02,3,48.0,11000,ignore,0.0,2800.0,1.87660942664
345,1_12_2,12,2.0,1417.92620417,1_I,test,02,3,49.0,10000,kill,1.0,2900.0,0.782961661131
346,1_12_2,12,2.0,1420.72316199,1_I,test,02,3,50.0,01110,ignore,1.0,3000.0,0.675839521027
347,1_12_2,12,2.0,1423.70772898,1_I,test,02,3,51.0,00101,kill,0.0,2900.0,0.827173554724
348,1_12_2,12,2.0,1427.0672832,1_I,test,02,3,52.0,01000,ignore,0.0,2800.0,1.24495429378
349,1_12_2,12,2.0,1430.61430414,1_I,test,02,3,53.0,01001,ignore,1.0,2900.0,1.42257735696
350,1_12_2,12,2.0,1433.72380734,1_I,test,02,3,54.0,11111,ignore,1.0,3000.0,0.960196364111
351,1_12_2,12,2.0,1438.59903903,1_I,test,02,3,55.0,10100,ignore,0.0,2900.0,2.71861251135
352,1_12_2,12,2.0,1443.19300681,1_I,test,02,3,56.0,11111,ignore,1.0,3000.0,2.44465600359
353,1_12_2,12,2.0,1446.55254173,1_I,test,02,3,57.0,01001,kill,0.0,2900.0,1.23912765925
354,1_12_2,12,2.0,1451.06841338,1_I,test,02,3,58.0,01101,ignore,1.0,3000.0,2.39448980103
355,1_12_2,12,2.0,1453.86542293,1_I,test,02,3,59.0,11110,ignore,1.0,3100.0,0.655911634509
356,1_12_2,12,2.0,1456.50615403,1_I,test,02,3,60.0,10000,ignore,0.0,3000.0,0.419434759388
357,1_12_2,12,2.0,1459.61567037,1_I,test,02,3,61.0,11100,kill,1.0,3100.0,0.893924708205
358,1_12_2,12,2.0,1462.53769988,1_I,test,02,3,62.0,10001,kill,0.0,3000.0,0.746107674298
359,1_12_2,12,2.0,1465.28784757,1_I,test,02,3,63.0,01010,ignore,0.0,2900.0,0.583838796858
360,1_12_2,12,2.0,1468.49112991,1_I,test,02,3,64.0,00000,ignore,0.0,2800.0,1.0641796014
361,1_12_2,12,2.0,1471.1318606,1_I,test,02,3,65.0,11000,kill,1.0,2900.0,0.537190825667
362,1_12_2,12,2.0,1474.61640481,1_I,test,02,3,66.0,00010,kill,1.0,3000.0,1.34644069522
363,1_12_2,12,2.0,1477.83532173,1_I,test,02,3,67.0,01000,kill,1.0,3100.0,1.11659591204
364,1_12_2,12,2.0,1480.41355311,1_I,test,02,3,68.0,01011,kill,0.0,3000.0,0.426544296261
365,1_12_2,12,2.0,1483.55433902,1_I,test,02,3,69.0,01100,kill,1.0,3100.0,0.96855390838
366,1_12_2,12,2.0,1486.52325337,1_I,test,02,3,70.0,11011,ignore,1.0,3200.0,0.853843144352
367,1_12_2,12,2.0,1489.53901029,1_I,test,02,3,71.0,00001,kill,0.0,3100.0,0.858522351031
368,1_12_2,12,2.0,1492.47665302,1_I,test,02,3,72.0,10111,ignore,1.0,3200.0,0.827811105872
369,1_12_2,12,2.0,1495.30488862,1_I,test,02,3,73.0,10011,ignore,1.0,3300.0,0.667724188723
370,1_12_2,12,2.0,1497.86753592,1_I,test,02,3,74.0,00100,ignore,0.0,3200.0,0.386726291861
371,1_12_2,12,2.0,1500.50828016,1_I,test,02,3,75.0,01111,ignore,1.0,3300.0,0.534846706512
372,1_12_2,12,2.0,1503.46155952,1_I,test,02,3,76.0,11101,kill,0.0,3200.0,0.823232889263
373,1_12_2,12,2.0,1506.53981903,1_I,test,02,3,77.0,11001,kill,0.0,3100.0,0.921884589694
374,1_12_2,12,2.0,1509.49310168,1_I,test,02,3,78.0,00111,ignore,1.0,3200.0,0.789657795551
375,1_12_2,12,2.0,1512.39948881,1_I,test,02,3,79.0,01110,ignore,1.0,3300.0,0.748267876574
376,1_12_2,12,2.0,1517.22782498,1_I,test,02,3,80.0,11010,ignore,0.0,3200.0,2.73138118703
377,1_12_2,12,2.0,1520.14984669,1_I,test,02,3,81.0,00110,ignore,1.0,3300.0,0.740099996594
378,1_12_2,12,2.0,1523.30623269,1_I,test,02,3,82.0,00011,ignore,1.0,3400.0,0.986078970131
379,1_12_2,12,2.0,1526.05638612,1_I,test,02,3,83.0,10100,kill,1.0,3500.0,0.648420305901
380,1_12_2,12,2.0,1530.90035318,1_I,test,02,3,84.0,00101,ignore,1.0,3600.0,2.69573210207
381,1_12_2,12,2.0,1533.86926384,1_I,test,02,3,85.0,10101,kill,0.0,3500.0,0.852256861272
382,1_12_2,12,2.0,1537.21312805,1_I,test,02,3,86.0,10010,kill,1.0,3600.0,1.16901632796
383,1_12_2,12,2.0,1540.22895435,1_I,test,02,3,87.0,10110,kill,0.0,3500.0,0.851320855723
384,1_12_2,12,2.0,1543.33845345,1_I,test,02,3,88.0,10111,kill,0.0,3400.0,0.966041061907
385,1_12_2,12,2.0,1546.35423048,1_I,test,02,3,89.0,00111,ignore,1.0,3500.0,0.847417137851
386,1_12_2,12,2.0,1549.49499011,1_I,test,02,3,90.0,10100,ignore,0.0,3400.0,1.04631872713
387,1_12_2,12,2.0,1552.62014514,1_I,test,02,3,91.0,10011,kill,0.0,3300.0,0.97642004973
388,1_12_2,12,2.0,1559.68300243,1_I,test,02,3,92.0,11000,ignore,0.0,3200.0,4.91475534745
389,1_12_2,12,2.0,1562.93319014,1_I,test,02,3,93.0,01010,kill,1.0,3300.0,1.15656170678
390,1_12_2,12,2.0,1566.07395306,1_I,test,02,3,94.0,11110,ignore,1.0,3400.0,1.01615102204
391,1_12_2,12,2.0,1569.07406349,1_I,test,02,3,95.0,01011,kill,0.0,3300.0,0.823811734797
392,1_12_2,12,2.0,1572.05861858,1_I,test,02,3,96.0,00110,ignore,1.0,3400.0,0.787507856494
393,1_12_2,12,2.0,1575.08998954,1_I,test,02,3,97.0,01000,kill,1.0,3500.0,0.887880493439
394,1_12_2,12,2.0,1578.19951328,1_I,test,02,3,98.0,11010,kill,1.0,3600.0,1.02664454738
395,1_12_2,12,2.0,1581.277797,1_I,test,02,3,99.0,01100,ignore,0.0,3500.0,0.902863561183
396,1_12_2,12,2.0,1584.66856824,1_I,test,02,3,100.0,01101,kill,0.0,3400.0,1.13614611211
397,1_12_2,12,2.0,1588.51251148,1_I,test,02,3,101.0,00011,kill,0.0,3300.0,1.64235966998
398,1_12_2,12,2.0,1591.34075118,1_I,test,02,3,102.0,00010,ignore,0.0,3200.0,0.680349589864
399,1_12_2,12,2.0,1594.46589019,1_I,test,02,3,103.0,10110,ignore,1.0,3300.0,0.998605023313
400,1_12_2,12,2.0,1597.93485073,1_I,test,02,3,104.0,11111,ignore,1.0,3400.0,1.29364341391
401,1_12_2,12,2.0,1601.32561252,1_I,test,02,3,105.0,10001,kill,0.0,3300.0,1.24823154478
402,1_12_2,12,2.0,1604.21639586,1_I,test,02,3,106.0,00001,ignore,1.0,3400.0,0.757017065273
403,1_12_2,12,2.0,1606.77899267,1_I,test,02,3,107.0,01110,ignore,1.0,3500.0,0.418482743218
404,1_12_2,12,2.0,1609.31039832,1_I,test,02,3,108.0,11100,ignore,0.0,3400.0,0.43653985023
405,1_12_2,12,2.0,1611.87299842,1_I,test,02,3,109.0,10000,ignore,0.0,3300.0,0.390223996801
406,1_12_2,12,2.0,1614.27935168,1_I,test,02,3,110.0,11011,ignore,1.0,3400.0,0.245770424935
407,1_12_2,12,2.0,1617.79514615,1_I,test,02,3,111.0,01001,ignore,1.0,3500.0,1.41270126685
408,1_12_2,12,2.0,1620.60783379,1_I,test,02,3,112.0,11101,ignore,1.0,3600.0,0.634572350151
409,1_12_2,12,2.0,1623.87360846,1_I,test,02,3,113.0,00000,kill,1.0,3700.0,1.14728663076
410,1_12_2,12,2.0,1626.93621245,1_I,test,02,3,114.0,00101,ignore,1.0,3800.0,0.88893391021
411,1_12_2,12,2.0,1630.42077924,1_I,test,02,3,115.0,01111,ignore,1.0,3900.0,1.31795410535
412,1_12_2,12,2.0,1634.03028758,1_I,test,02,3,116.0,00100,kill,1.0,4000.0,1.47149760477
413,1_12_2,12,2.0,1637.10859963,1_I,test,02,3,117.0,10101,ignore,1.0,4100.0,0.93890429056
414,1_12_2,12,2.0,1640.68689137,1_I,test,02,3,118.0,10010,kill,1.0,4200.0,1.42300759109
415,1_12_2,12,2.0,1644.12458234,1_I,test,02,3,119.0,11001,ignore,1.0,4300.0,1.28715377545
416,1_12_2,12,2.0,1647.78095951,1_I,test,02,4,0.0,10111,ignore,0.0,4200.0,1.4785480255
417,1_12_2,12,2.0,1650.7967386,1_I,test,02,4,1.0,00000,ignore,1.0,4300.0,0.900460325887
418,1_12_2,12,2.0,1653.78123292,1_I,test,02,4,2.0,10001,kill,1.0,4400.0,0.789860186225
419,1_12_2,12,2.0,1657.26580135,1_I,test,02,4,3.0,11111,kill,1.0,4500.0,1.31392435515
420,1_12_2,12,2.0,1660.18780171,1_I,test,02,4,4.0,11001,kill,1.0,4600.0,0.811148975547
421,1_12_2,12,2.0,1663.35984323,1_I,test,02,4,5.0,00001,kill,0.0,4500.0,1.00340123068
422,1_12_2,12,2.0,1666.40686108,1_I,test,02,4,6.0,10011,ignore,0.0,4400.0,0.935028078111
423,1_12_2,12,2.0,1669.8445537,1_I,test,02,4,7.0,00011,kill,0.0,4300.0,1.2301177848
424,1_12_2,12,2.0,1672.8290431,1_I,test,02,4,8.0,00111,ignore,1.0,4400.0,0.802667041069
425,1_12_2,12,2.0,1675.70420049,1_I,test,02,4,9.0,11010,kill,0.0,4300.0,0.745434817683
426,1_12_2,12,2.0,1678.65744003,1_I,test,02,4,10.0,11000,ignore,1.0,4400.0,0.765831117504
427,1_12_2,12,2.0,1681.70448622,1_I,test,02,4,11.0,11110,ignore,1.0,4500.0,0.95895287253
428,1_12_2,12,2.0,1685.67343218,1_I,test,02,4,12.0,10110,ignore,0.0,4400.0,1.79195265126
429,1_12_2,12,2.0,1689.70484666,1_I,test,02,4,13.0,01001,ignore,1.0,4500.0,1.8529256126
430,1_12_2,12,2.0,1692.65811207,1_I,test,02,4,14.0,01010,kill,0.0,4400.0,0.849496465962
431,1_12_2,12,2.0,1695.89263442,1_I,test,02,4,15.0,10101,ignore,0.0,4300.0,1.08319488251
432,1_12_2,12,2.0,1699.44285707,1_I,test,02,4,16.0,01110,ignore,1.0,4400.0,1.38423232971
433,1_12_2,12,2.0,1702.91179585,1_I,test,02,4,17.0,01100,ignore,1.0,4500.0,1.30810264697
434,1_12_2,12,2.0,1705.75562701,1_I,test,02,4,18.0,00010,ignore,1.0,4600.0,0.647900576507
435,1_12_2,12,2.0,1708.47450965,1_I,test,02,4,19.0,01011,kill,0.0,4500.0,0.562756092964
436,1_12_2,12,2.0,1712.50598366,1_I,test,02,4,20.0,00100,ignore,1.0,4600.0,1.88591980813
437,1_12_2,12,2.0,1715.45924866,1_I,test,02,4,21.0,10000,ignore,0.0,4500.0,0.766880839514
438,1_12_2,12,2.0,1718.61563671,1_I,test,02,4,22.0,00110,kill,0.0,4400.0,1.01281301277
439,1_12_2,12,2.0,1724.14714336,1_I,test,02,4,23.0,10010,ignore,0.0,4300.0,3.35008044311
440,1_12_2,12,2.0,1729.42865975,1_I,test,02,4,24.0,11011,ignore,0.0,4200.0,3.18692933938
441,1_12_2,12,2.0,1732.28820924,1_I,test,02,4,25.0,01101,ignore,1.0,4300.0,0.686990713428
442,1_12_2,12,2.0,1735.88209984,1_I,test,02,4,26.0,11100,ignore,1.0,4400.0,1.45092559864
443,1_12_2,12,2.0,1738.71037279,1_I,test,02,4,27.0,11101,ignore,0.0,4300.0,0.705463275535
444,1_12_2,12,2.0,1741.71050949,1_I,test,02,4,28.0,10100,ignore,0.0,4200.0,0.816309321919
445,1_12_2,12,2.0,1745.32003877,1_I,test,02,4,29.0,00101,kill,0.0,4100.0,1.47603641062
446,1_12_2,12,2.0,1750.83591002,1_I,test,02,4,30.0,01111,ignore,1.0,4200.0,3.33916078892
447,1_12_2,12,2.0,1753.64858821,1_I,test,02,4,31.0,01000,ignore,1.0,4300.0,0.649465512095
448,1_12_2,12,2.0,1756.27366914,1_I,test,02,4,32.0,01110,ignore,1.0,4400.0,0.497374873918
449,1_12_2,12,2.0,1759.47693629,1_I,test,02,4,33.0,11111,kill,1.0,4500.0,1.03575459084
450,1_12_2,12,2.0,1763.57091412,1_I,test,02,4,34.0,11100,kill,0.0,4400.0,1.99073641879
451,1_12_2,12,2.0,1766.3522895,1_I,test,02,4,35.0,00001,ignore,1.0,4500.0,0.623635864285
452,1_12_2,12,2.0,1769.19619374,1_I,test,02,4,36.0,01101,ignore,1.0,4600.0,0.665371448467
453,1_12_2,12,2.0,1771.93070521,1_I,test,02,4,37.0,00000,ignore,1.0,4700.0,0.608953303585
454,1_12_2,12,2.0,1774.9777477,1_I,test,02,4,38.0,10101,kill,1.0,4800.0,0.928618492762
455,1_12_2,12,2.0,1777.96221165,1_I,test,02,4,39.0,10111,kill,1.0,4900.0,0.805126929328
456,1_12_2,12,2.0,1781.04047855,1_I,test,02,4,40.0,00011,ignore,1.0,5000.0,0.923833369667
457,1_12_2,12,2.0,1785.36885515,1_I,test,02,4,41.0,11010,kill,0.0,4900.0,2.19549666384
458,1_12_2,12,2.0,1788.55650908,1_I,test,02,4,42.0,10010,ignore,0.0,4800.0,1.10838821076
459,1_12_2,12,2.0,1792.07226538,1_I,test,02,4,43.0,10011,kill,1.0,4900.0,1.3431388125
460,1_12_2,12,2.0,1795.02555993,1_I,test,02,4,44.0,01001,ignore,1.0,5000.0,0.811715094689
461,1_12_2,12,2.0,1798.51010373,1_I,test,02,4,45.0,01011,ignore,1.0,5100.0,1.31883345793
462,1_12_2,12,2.0,1801.65089785,1_I,test,02,4,46.0,11011,kill,1.0,5200.0,1.01501057317
463,1_12_2,12,2.0,1804.58852416,1_I,test,02,4,47.0,01010,ignore,1.0,5300.0,0.868290882609
464,1_12_2,12,2.0,1807.66678613,1_I,test,02,4,48.0,11000,kill,0.0,5200.0,0.931956091488
465,1_12_2,12,2.0,1811.10444262,1_I,test,02,4,49.0,11001,ignore,0.0,5100.0,1.32429595346
466,1_12_2,12,2.0,1814.21400741,1_I,test,02,4,50.0,00100,ignore,1.0,5200.0,0.98297537279
467,1_12_2,12,2.0,1817.65161627,1_I,test,02,4,51.0,01000,ignore,1.0,5300.0,1.2945929669
468,1_12_2,12,2.0,1825.12080753,1_I,test,02,4,52.0,10000,kill,1.0,5400.0,5.38930892822
469,1_12_2,12,2.0,1828.63655767,1_I,test,02,4,53.0,10110,ignore,0.0,5300.0,1.40005041293
470,1_12_2,12,2.0,1831.71482292,1_I,test,02,4,54.0,01111,ignore,1.0,5400.0,0.916337114715
471,1_12_2,12,2.0,1835.16812138,1_I,test,02,4,55.0,11110,kill,0.0,5300.0,1.36589975791
472,1_12_2,12,2.0,1838.6838904,1_I,test,02,4,56.0,01100,ignore,1.0,5400.0,1.43305897697
473,1_12_2,12,2.0,1842.32472167,1_I,test,02,4,57.0,00111,ignore,1.0,5500.0,1.55379671355
474,1_12_2,12,2.0,1845.38735851,1_I,test,02,4,58.0,00110,ignore,1.0,5600.0,0.931643679109
475,1_12_2,12,2.0,1848.60623478,1_I,test,02,4,59.0,10001,kill,1.0,5700.0,1.07892825723
476,1_12_2,12,2.0,1851.48139915,1_I,test,02,4,60.0,11101,kill,1.0,5800.0,0.792496601847
477,1_12_2,12,2.0,1854.55969314,1_I,test,02,4,61.0,00010,ignore,1.0,5900.0,0.973175641029
478,1_12_2,12,2.0,1857.62234024,1_I,test,02,4,62.0,00101,ignore,1.0,6000.0,0.930298376403
479,1_12_2,12,2.0,1861.01312091,1_I,test,02,4,63.0,10100,kill,1.0,6100.0,1.22792802446
480,1_12_2,12,2.0,1863.99759266,1_I,test,02,4,64.0,01000,ignore,1.0,6200.0,0.873050142392
481,1_12_2,12,2.0,1866.85712286,1_I,test,02,4,65.0,11100,kill,0.0,6100.0,0.778972142751
482,1_12_2,12,2.0,1869.85730144,1_I,test,02,4,66.0,01100,ignore,1.0,6200.0,0.833827404684
483,1_12_2,12,2.0,1872.76364793,1_I,test,02,4,67.0,10100,kill,1.0,6300.0,0.750379225934
484,1_12_2,12,2.0,1875.57627604,1_I,test,02,4,68.0,11110,kill,0.0,6200.0,0.743571838218
485,1_12_2,12,2.0,1879.0764852,1_I,test,02,4,69.0,10101,kill,1.0,6300.0,1.34913294276
486,1_12_2,12,2.0,1882.1859958,1_I,test,02,4,70.0,01011,ignore,1.0,6400.0,1.00717891623
487,1_12_2,12,2.0,1884.96735599,1_I,test,02,4,71.0,00011,ignore,1.0,6500.0,0.626195100504
488,1_12_2,12,2.0,1887.71753816,1_I,test,02,4,72.0,01101,ignore,1.0,6600.0,0.599881849826
489,1_12_2,12,2.0,1890.4676255,1_I,test,02,4,73.0,01010,ignore,1.0,6700.0,0.663923513566
490,1_12_2,12,2.0,1893.29588408,1_I,test,02,4,74.0,01110,ignore,1.0,6800.0,0.730217338023
491,1_12_2,12,2.0,1896.37415836,1_I,test,02,4,75.0,10110,kill,1.0,6900.0,0.995136876441
492,1_12_2,12,2.0,1899.12434423,1_I,test,02,4,76.0,10011,kill,1.0,7000.0,0.600702907323
493,1_12_2,12,2.0,1902.37443876,1_I,test,02,4,77.0,00110,ignore,1.0,7100.0,1.10808483002
494,1_12_2,12,2.0,1905.4058245,1_I,test,02,4,78.0,11111,kill,1.0,7200.0,0.951614671147
495,1_12_2,12,2.0,1908.56227577,1_I,test,02,5,0.0,11101,kill,0.0,7100.0,1.03818861579
496,1_12_2,12,2.0,1911.40613034,1_I,test,02,5,1.0,11011,ignore,0.0,7000.0,0.7314522085
497,1_12_2,12,2.0,1914.21875845,1_I,test,02,5,2.0,00111,ignore,0.0,6900.0,0.666969226353
498,1_12_2,12,2.0,1917.4689745,1_I,test,02,5,3.0,10000,ignore,1.0,7000.0,1.10593201726
499,1_12_2,12,2.0,1920.64095361,1_I,test,02,5,4.0,00100,kill,0.0,6900.0,1.07463166334
500,1_12_2,12,2.0,1924.06298948,1_I,test,02,5,5.0,10010,ignore,0.0,6800.0,1.25871850167
501,1_12_2,12,2.0,1927.09437851,1_I,test,02,5,6.0,00010,ignore,0.0,6700.0,0.889835431342
502,1_12_2,12,2.0,1929.75078606,1_I,test,02,5,7.0,11000,ignore,1.0,6800.0,0.557640494226
503,1_12_2,12,2.0,1932.54779889,1_I,test,02,5,8.0,10111,ignore,0.0,6700.0,0.655228925199
504,1_12_2,12,2.0,1935.50107907,1_I,test,02,5,9.0,01001,kill,0.0,6600.0,0.898308334185
505,1_12_2,12,2.0,1938.70434007,1_I,test,02,5,10.0,00000,ignore,1.0,6700.0,1.03273104661
506,1_12_2,12,2.0,1941.79821445,1_I,test,02,5,11.0,00001,ignore,1.0,6800.0,0.937062248064
507,1_12_2,12,2.0,1944.78271699,1_I,test,02,5,12.0,11001,kill,0.0,6700.0,0.899175370905
508,1_12_2,12,2.0,1947.51724693,1_I,test,02,5,13.0,01111,ignore,1.0,6800.0,0.603805683604
509,1_12_2,12,2.0,1950.32989926,1_I,test,02,5,14.0,00101,ignore,1.0,6900.0,0.692916285388
510,1_12_2,12,2.0,1953.43943531,1_I,test,02,5,15.0,11010,kill,1.0,7000.0,1.00572687605
511,1_12_2,12,2.0,1956.42390747,1_I,test,02,5,16.0,10001,kill,0.0,6900.0,0.834346313022
512,1_12_2,12,2.0,1961.11168394,1_I,test,02,5,17.0,11010,kill,1.0,7000.0,2.58947823028
513,1_12_2,12,2.0,1964.08055641,1_I,test,02,5,18.0,01001,ignore,1.0,7100.0,0.822934434862
514,1_12_2,12,2.0,1967.0806611,1_I,test,02,5,19.0,10110,kill,1.0,7200.0,0.947856690982
515,1_12_2,12,2.0,1970.23711196,1_I,test,02,5,20.0,00110,ignore,0.0,7100.0,1.01000951195
516,1_12_2,12,2.0,1973.51848139,1_I,test,02,5,21.0,00001,ignore,1.0,7200.0,1.12661609773
517,1_12_2,12,2.0,1976.6592751,1_I,test,02,5,22.0,01011,ignore,1.0,7300.0,1.05449604928
518,1_12_2,12,2.0,1980.61259305,1_I,test,02,5,23.0,10100,kill,0.0,7200.0,1.83943153263
519,1_12_2,12,2.0,1985.03469543,1_I,test,02,5,24.0,10101,kill,0.0,7100.0,2.27948674054
520,1_12_2,12,2.0,1987.95668511,1_I,test,02,5,25.0,11011,kill,1.0,7200.0,0.806254651805
521,1_12_2,12,2.0,1991.42561075,1_I,test,02,5,26.0,10000,kill,0.0,7100.0,1.31741549163
522,1_12_2,12,2.0,1994.05070851,1_I,test,02,5,27.0,10011,kill,1.0,7200.0,0.517502277406
523,1_12_2,12,2.0,1997.25400153,1_I,test,02,5,28.0,00101,ignore,1.0,7300.0,1.0244457554
524,1_12_2,12,2.0,2002.00424774,1_I,test,02,5,29.0,01010,ignore,1.0,7400.0,2.61319119186
525,1_12_2,12,2.0,2005.66066843,1_I,test,02,5,30.0,10001,kill,0.0,7300.0,1.54648314389
526,1_12_2,12,2.0,2008.45769029,1_I,test,02,5,31.0,00011,ignore,0.0,7200.0,0.635108500697
527,1_12_2,12,2.0,2010.84840939,1_I,test,02,5,32.0,11110,ignore,0.0,7100.0,0.304478909704
528,1_12_2,12,2.0,2013.348566,1_I,test,02,5,33.0,11001,ignore,1.0,7200.0,0.339947362001
529,1_12_2,12,2.0,2016.08304545,1_I,test,02,5,34.0,10111,ignore,0.0,7100.0,0.600814160614
530,1_12_2,12,2.0,2018.81752777,1_I,test,02,5,35.0,01100,ignore,1.0,7200.0,0.626057573372
531,1_12_2,12,2.0,2021.86457067,1_I,test,02,5,36.0,00000,ignore,1.0,7300.0,0.914650252082
532,1_12_2,12,2.0,2025.6928896,1_I,test,02,5,37.0,10010,kill,1.0,7400.0,1.73808758467
533,1_12_2,12,2.0,2029.5368349,1_I,test,02,5,38.0,11000,kill,0.0,7300.0,1.70102628082
534,1_12_2,12,2.0,2032.67759823,1_I,test,02,5,39.0,01111,ignore,1.0,7400.0,0.988900534219
535,1_12_2,12,2.0,2035.31833056,1_I,test,02,5,40.0,00010,ignore,0.0,7300.0,0.552746581016
536,1_12_2,12,2.0,2038.44350201,1_I,test,02,5,41.0,11101,kill,0.0,7200.0,1.01048736741
537,1_12_2,12,2.0,2041.44362886,1_I,test,02,5,42.0,01000,ignore,1.0,7300.0,0.861034786976
538,1_12_2,12,2.0,2048.03770337,1_I,test,02,5,43.0,01101,ignore,1.0,7400.0,4.43424663664
539,1_12_2,12,2.0,2051.75664102,1_I,test,02,5,44.0,11111,kill,1.0,7500.0,1.56150808557
540,1_12_2,12,2.0,2055.14742703,1_I,test,02,5,45.0,00111,ignore,0.0,7400.0,1.20710559579
541,1_12_2,12,2.0,2057.97567453,1_I,test,02,5,46.0,00100,ignore,1.0,7500.0,0.593996099156
542,1_12_2,12,2.0,2061.33525748,1_I,test,02,5,47.0,11100,ignore,1.0,7600.0,1.20620202202
543,1_12_2,12,2.0,2063.96035729,1_I,test,02,5,48.0,01110,ignore,1.0,7700.0,0.508831089177
544,1_12_2,12,2.0,2066.3979288,1_I,test,02,5,49.0,11001,ignore,1.0,7800.0,0.276387659011
545,1_12_2,12,2.0,2068.75742267,1_I,test,02,5,50.0,00011,ignore,0.0,7700.0,0.199762878594
546,1_12_2,12,2.0,2071.35129848,1_I,test,02,5,51.0,01001,ignore,1.0,7800.0,0.420336280516
547,1_12_2,12,2.0,2073.75768541,1_I,test,02,5,52.0,00101,ignore,1.0,7900.0,0.223817810627
548,1_12_2,12,2.0,2076.28907177,1_I,test,02,5,53.0,11111,ignore,0.0,7800.0,0.414553162034
549,1_12_2,12,2.0,2078.82043473,1_I,test,02,5,54.0,00100,ignore,1.0,7900.0,0.364458802003
550,1_12_2,12,2.0,2081.14866354,1_I,test,02,5,55.0,10101,ignore,1.0,8000.0,0.229615297616
551,1_12_2,12,2.0,2083.55505088,1_I,test,02,5,56.0,01110,ignore,1.0,8100.0,0.234386873264
552,1_12_2,12,2.0,2085.96139757,1_I,test,02,5,57.0,10110,ignore,0.0,8000.0,0.247524203747
553,1_12_2,12,2.0,2088.36775658,1_I,test,02,5,58.0,00110,ignore,0.0,7900.0,0.284097799442
554,1_12_2,12,2.0,2090.74286614,1_I,test,02,5,59.0,11010,ignore,0.0,7800.0,0.21941694244
555,1_12_2,12,2.0,2093.13365338,1_I,test,02,5,60.0,00111,ignore,0.0,7700.0,0.296067175641
556,1_12_2,12,2.0,2095.60251868,1_I,test,02,5,61.0,00010,ignore,0.0,7600.0,0.317136742611
557,1_12_2,12,2.0,2098.11825445,1_I,test,02,5,62.0,10010,kill,1.0,7700.0,0.366531151125
558,1_12_2,12,2.0,2100.47774832,1_I,test,02,5,63.0,11101,kill,0.0,7600.0,0.29113959907
559,1_12_2,12,2.0,2103.52474647,1_I,test,02,5,64.0,01010,ignore,1.0,7700.0,0.958174099494
560,1_12_2,12,2.0,2106.69677197,1_I,test,02,5,65.0,10111,kill,1.0,7800.0,1.01218695644
561,1_12_2,12,2.0,2109.83754926,1_I,test,02,5,66.0,01000,ignore,1.0,7900.0,0.985835937114
562,1_12_2,12,2.0,2112.93144457,1_I,test,02,5,67.0,10011,kill,1.0,8000.0,0.938824237452
563,1_12_2,12,2.0,2115.8378588,1_I,test,02,5,68.0,11011,kill,1.0,8100.0,0.824116347132
564,1_12_2,12,2.0,2118.634863,1_I,test,02,5,69.0,01011,ignore,1.0,8200.0,0.639277420141
565,1_12_2,12,2.0,2122.11944211,1_I,test,02,5,70.0,00001,ignore,1.0,8300.0,1.30652580605
566,1_12_2,12,2.0,2125.3851864,1_I,test,02,5,71.0,10001,kill,0.0,8200.0,1.13506436886
567,1_12_2,12,2.0,2128.38531613,1_I,test,02,5,72.0,01111,ignore,1.0,8300.0,0.84594498176
568,1_12_2,12,2.0,2131.22921011,1_I,test,02,5,73.0,11000,kill,0.0,8200.0,0.762443434269
569,1_12_2,12,2.0,2134.30748809,1_I,test,02,5,74.0,10100,ignore,1.0,8300.0,0.903715818862
570,1_12_2,12,2.0,2136.85449301,1_I,test,02,5,75.0,01100,ignore,1.0,8400.0,0.385207746021
571,1_12_2,12,2.0,2139.30771388,1_I,test,02,5,76.0,10000,ignore,1.0,8500.0,0.325803004496
572,1_12_2,12,2.0,2141.72970171,1_I,test,02,5,77.0,01101,ignore,1.0,8600.0,0.254017947496
573,1_12_2,12,2.0,2144.01108222,1_I,test,02,5,78.0,11100,ignore,1.0,8700.0,0.199525182452
574,1_12_2,12,2.0,2146.40182554,1_I,test,02,5,79.0,00000,ignore,1.0,8800.0,0.219298710159
575,1_12_2,12,2.0,2148.73007119,1_I,test,02,5,80.0,11110,ignore,0.0,8700.0,0.192888574697
576,1_12_2,12,2.0,2151.16765419,1_I,test,02,5,81.0,00011,ignore,0.0,8600.0,0.33926629481
577,1_12_2,12,2.0,2153.71465994,1_I,test,02,5,82.0,01000,kill,0.0,8500.0,0.437089137697
578,1_12_2,12,2.0,2156.19915735,1_I,test,02,5,83.0,00001,ignore,1.0,8600.0,0.323914572255
579,1_12_2,12,2.0,2158.683672,1_I,test,02,5,84.0,00110,ignore,0.0,8500.0,0.227852897697
580,1_12_2,12,2.0,2161.18377566,1_I,test,02,5,85.0,11111,ignore,0.0,8400.0,0.342061995587
581,1_12_2,12,2.0,2163.5745124,1_I,test,02,5,86.0,00111,ignore,0.0,8300.0,0.276737429507
582,1_12_2,12,2.0,2166.01211552,1_I,test,02,5,87.0,00000,kill,0.0,8200.0,0.281845228201
583,1_12_2,12,2.0,2168.41845893,1_I,test,02,5,88.0,01100,kill,0.0,8100.0,0.232346545381
584,1_12_2,12,2.0,2171.40301525,1_I,test,02,5,89.0,01010,ignore,1.0,8200.0,0.866690231018
585,1_12_2,12,2.0,2174.37192016,1_I,test,02,5,90.0,01001,ignore,1.0,8300.0,0.791037582676
