,unique_id,pair_id,sbj_id,wall_time,condition,block,rule_id,rule_num,trial,stimulus,choice,correct,points,reaction_time
0,2_14_1,14,1.0,67.0288104971,2_ND,training,05,1_B,1.0,10010,kill,0.0,0.0,8.25701029155
1,2_14_1,14,1.0,75.3729756314,2_ND,training,05,1_B,2.0,11111,kill,0.0,0.0,6.22773097066
2,2_14_1,14,1.0,82.8576922619,2_ND,training,05,1_B,3.0,00110,ignore,1.0,100.0,5.34546199469
3,2_14_1,14,1.0,88.0923155997,2_ND,training,05,1_B,4.0,01000,ignore,0.0,0.0,3.08813436441
4,2_14_1,14,1.0,95.2957785739,2_ND,training,05,1_B,5.0,00000,ignore,1.0,100.0,5.07932688064
5,2_14_1,14,1.0,102.014868941,2_ND,training,05,1_B,6.0,01100,kill,1.0,200.0,4.59379329795
6,2_14_1,14,1.0,107.905745062,2_ND,training,05,1_B,7.0,11100,kill,1.0,300.0,3.76052298079
7,2_14_1,14,1.0,118.734428131,2_ND,training,05,1_B,8.0,11001,kill,1.0,400.0,8.69452761073
8,2_14_1,14,1.0,126.016019653,2_ND,training,05,1_B,9.0,01010,ignore,1.0,500.0,5.15503043455
9,2_14_1,14,1.0,133.610113868,2_ND,training,05,1_B,10.0,00011,ignore,1.0,600.0,5.4564956527
10,2_14_1,14,1.0,141.50114558,2_ND,training,05,1_B,11.0,01110,ignore,1.0,700.0,5.76126193253
11,2_14_1,14,1.0,149.579630056,2_ND,training,05,1_B,12.0,00111,ignore,1.0,800.0,5.91962668158
12,2_14_1,14,1.0,156.126807404,2_ND,training,05,1_B,13.0,10101,kill,1.0,900.0,4.40794200707
13,2_14_1,14,1.0,162.580261449,2_ND,training,05,1_B,14.0,01111,ignore,1.0,1000.0,4.31480576037
14,2_14_1,14,1.0,168.814954577,2_ND,training,05,1_B,15.0,10000,kill,0.0,900.0,4.09034054591
15,2_14_1,14,1.0,173.315165794,2_ND,training,05,1_B,16.0,11011,kill,0.0,800.0,2.38150436618
16,2_14_1,14,1.0,177.799729708,2_ND,training,05,1_B,17.0,00001,ignore,0.0,700.0,2.35752661355
17,2_14_1,14,1.0,185.315721239,2_ND,training,05,1_B,18.0,00010,ignore,1.0,800.0,5.41217989534
18,2_14_1,14,1.0,193.316116579,2_ND,training,05,1_B,19.0,01101,kill,1.0,900.0,5.87440406621
19,2_14_1,14,1.0,197.425712154,2_ND,training,05,1_B,20.0,10001,kill,1.0,1000.0,1.96841597072
20,2_14_1,14,1.0,209.051408463,2_ND,training,05,1_B,21.0,01001,ignore,0.0,900.0,9.49237750746
21,2_14_1,14,1.0,212.598273809,2_ND,training,05,1_B,22.0,11110,kill,0.0,800.0,1.43529225337
22,2_14_1,14,1.0,216.27037875,2_ND,training,05,1_B,23.0,10100,kill,0.0,700.0,1.5602161516
23,2_14_1,14,1.0,222.958158499,2_ND,training,05,1_B,24.0,11010,kill,0.0,600.0,4.57985831011
24,2_14_1,14,1.0,227.114611416,2_ND,training,05,1_B,25.0,00101,ignore,0.0,500.0,2.01914295555
25,2_14_1,14,1.0,231.927357759,2_ND,training,05,1_B,26.0,11101,kill,1.0,600.0,2.70756148797
26,2_14_1,14,1.0,237.427622755,2_ND,training,05,1_B,27.0,00100,ignore,1.0,700.0,3.37509519135
27,2_14_1,14,1.0,243.615413384,2_ND,training,05,1_B,28.0,01011,ignore,1.0,800.0,4.0843386156
28,2_14_1,14,1.0,248.084356679,2_ND,training,05,1_B,29.0,10111,kill,0.0,700.0,2.33304432109
29,2_14_1,14,1.0,254.365950253,2_ND,training,05,1_B,30.0,10110,kill,0.0,600.0,4.1652156528
30,2_14_1,14,1.0,260.084937167,2_ND,training,05,1_B,31.0,10011,ignore,1.0,700.0,3.61179785729
31,2_14_1,14,1.0,263.600814571,2_ND,training,05,1_B,32.0,11000,kill,1.0,800.0,1.41618255064
32,2_14_1,14,1.0,267.397814263,2_ND,training,05,1_B,33.0,01110,ignore,1.0,900.0,1.64952996511
33,2_14_1,14,1.0,271.804221303,2_ND,training,05,1_B,34.0,11010,ignore,1.0,1000.0,2.23521614133
34,2_14_1,14,1.0,275.382556962,2_ND,training,05,1_B,35.0,00101,ignore,0.0,900.0,1.34424929276
35,2_14_1,14,1.0,278.804644969,2_ND,training,05,1_B,36.0,00001,ignore,0.0,800.0,1.23399071302
36,2_14_1,14,1.0,286.042481925,2_ND,training,05,1_B,37.0,10010,kill,0.0,700.0,5.10551943587
37,2_14_1,14,1.0,290.027038655,2_ND,training,05,1_B,38.0,11111,kill,0.0,600.0,1.87441515048
38,2_14_1,14,1.0,293.733559863,2_ND,training,05,1_B,39.0,11100,kill,1.0,700.0,1.5926187752
39,2_14_1,14,1.0,296.999320575,2_ND,training,05,1_B,40.0,00011,ignore,1.0,800.0,1.12031653408
40,2_14_1,14,1.0,300.2300989,2_ND,training,05,1_B,41.0,10111,ignore,1.0,900.0,1.11014732645
41,2_14_1,14,1.0,303.530352238,2_ND,training,05,1_B,42.0,10001,ignore,0.0,800.0,1.18329000202
42,2_14_1,14,1.0,306.349234754,2_ND,training,05,1_B,43.0,00110,ignore,1.0,900.0,0.694889286555
43,2_14_1,14,1.0,313.787121549,2_ND,training,05,1_B,44.0,11011,ignore,1.0,1000.0,5.33513842824
44,2_14_1,14,1.0,321.243764992,2_ND,training,05,1_B,45.0,10011,ignore,1.0,1100.0,5.35276612218
45,2_14_1,14,1.0,325.400217498,2_ND,training,05,1_B,46.0,00000,ignore,1.0,1200.0,2.01188152305
46,2_14_1,14,1.0,340.400926071,2_ND,training,05,1_B,47.0,00100,ignore,1.0,1300.0,12.8686340846
47,2_14_1,14,1.0,346.001277565,2_ND,training,05,1_B,48.0,01100,ignore,0.0,1200.0,3.4816196016
48,2_14_1,14,1.0,349.110868625,2_ND,training,05,1_B,49.0,10100,ignore,1.0,1300.0,0.988924344889
49,2_14_1,14,1.0,353.079783389,2_ND,training,05,1_B,50.0,01101,kill,1.0,1400.0,1.84752469639
50,2_14_1,14,1.0,356.611257191,2_ND,training,05,1_B,51.0,00111,ignore,1.0,1500.0,1.41520385011
51,2_14_1,14,1.0,361.47081818,2_ND,training,05,1_B,52.0,11110,kill,0.0,1400.0,2.73692168302
52,2_14_1,14,1.0,364.486573452,2_ND,training,05,1_B,53.0,10000,ignore,1.0,1500.0,0.915642089542
53,2_14_1,14,1.0,367.580481903,2_ND,training,05,1_B,54.0,01000,ignore,0.0,1400.0,0.938433003557
54,2_14_1,14,1.0,371.174392612,2_ND,training,05,1_B,55.0,00010,ignore,1.0,1500.0,1.41471326825
55,2_14_1,14,1.0,376.659064495,2_ND,training,05,1_B,56.0,11101,kill,1.0,1600.0,3.36375022938
56,2_14_1,14,1.0,388.253320049,2_ND,training,05,1_B,57.0,01011,ignore,1.0,1700.0,9.48243614328
57,2_14_1,14,1.0,392.894202226,2_ND,training,05,1_B,58.0,11000,kill,1.0,1800.0,2.51288670268
58,2_14_1,14,1.0,396.753791541,2_ND,training,05,1_B,59.0,01111,ignore,1.0,1900.0,1.7493791779
59,2_14_1,14,1.0,405.707318865,2_ND,training,05,1_B,60.0,10110,ignore,1.0,2000.0,6.80442656728
60,2_14_1,14,1.0,409.879365306,2_ND,training,05,1_B,61.0,01001,ignore,0.0,1900.0,2.03674519671
61,2_14_1,14,1.0,413.113929117,2_ND,training,05,1_B,62.0,01010,ignore,1.0,2000.0,1.12228419838
62,2_14_1,14,1.0,419.067347241,2_ND,training,05,1_B,63.0,11001,kill,1.0,2100.0,3.82363069162
63,2_14_1,14,1.0,425.786378492,2_ND,training,05,1_B,64.0,10101,kill,1.0,2200.0,4.61192142644
64,2_14_1,14,1.0,429.520949487,2_ND,training,05,1_B,65.0,00101,ignore,0.0,2100.0,1.61725830017
65,2_14_1,14,1.0,432.927375822,2_ND,training,05,1_B,66.0,01111,ignore,1.0,2200.0,1.28795841179
66,2_14_1,14,1.0,439.115176714,2_ND,training,05,1_B,67.0,10010,kill,0.0,2100.0,4.05388723514
67,2_14_1,14,1.0,443.443509397,2_ND,training,05,1_B,68.0,00001,ignore,0.0,2000.0,2.20038811388
68,2_14_1,14,1.0,451.662651696,2_ND,training,05,1_B,69.0,10110,kill,0.0,1900.0,6.0719907319
69,2_14_1,14,1.0,457.241047702,2_ND,training,05,1_B,70.0,01110,ignore,1.0,2000.0,3.47092204346
70,2_14_1,14,1.0,462.678794096,2_ND,training,05,1_B,71.0,11110,kill,0.0,1900.0,3.31829977056
71,2_14_1,14,1.0,474.069941783,2_ND,training,05,1_B,72.0,00110,ignore,1.0,2000.0,9.28425297931
72,2_14_1,14,1.0,483.554802509,2_ND,training,05,1_B,73.0,10011,ignore,1.0,2100.0,7.34144620247
73,2_14_1,14,1.0,487.305003155,2_ND,training,05,1_B,74.0,01001,ignore,0.0,2000.0,1.63132876251
74,2_14_1,14,1.0,490.867666058,2_ND,training,05,1_B,75.0,10000,kill,0.0,1900.0,1.4494226529
75,2_14_1,14,1.0,494.508459971,2_ND,training,05,1_B,76.0,00010,ignore,1.0,2000.0,1.50517656226
76,2_14_1,14,1.0,497.961739952,2_ND,training,05,1_B,77.0,10001,kill,1.0,2100.0,1.33230988516
77,2_14_1,14,1.0,502.180720913,2_ND,training,05,1_B,78.0,01100,ignore,0.0,2000.0,2.06551299878
78,2_14_1,14,1.0,509.19665805,2_ND,training,05,1_B,79.0,11111,kill,0.0,1900.0,4.8922809511
79,2_14_1,14,1.0,515.962607399,2_ND,training,05,1_B,80.0,01101,kill,1.0,2000.0,4.6403521844
80,2_14_1,14,1.0,519.837766839,2_ND,training,05,1_B,81.0,10100,kill,0.0,1900.0,1.74862339448
81,2_14_1,14,1.0,525.822443442,2_ND,training,05,1_B,82.0,01011,ignore,1.0,2000.0,3.87241135966
82,2_14_1,14,1.0,537.682381707,2_ND,training,05,1_B,83.0,00111,ignore,1.0,2100.0,9.72989917824
83,2_14_1,14,1.0,541.604450624,2_ND,training,05,1_B,84.0,01010,ignore,1.0,2200.0,1.80574149087
84,2_14_1,14,1.0,545.964052871,2_ND,training,05,1_B,85.0,11000,kill,1.0,2300.0,2.23553881693
85,2_14_1,14,1.0,550.823657376,2_ND,training,05,1_B,86.0,11011,kill,0.0,2200.0,2.76176688289
86,2_14_1,14,1.0,557.261486286,2_ND,training,05,1_B,87.0,00100,kill,0.0,2100.0,4.31452701135
87,2_14_1,14,1.0,560.886641928,2_ND,training,05,1_B,88.0,11001,kill,1.0,2200.0,1.49463377346
88,2_14_1,14,1.0,564.136776684,2_ND,training,05,1_B,89.0,00000,kill,0.0,2100.0,1.1019642569
89,2_14_1,14,1.0,567.636951364,2_ND,training,05,1_B,90.0,11010,kill,0.0,2000.0,1.42778778783
90,2_14_1,14,1.0,571.090244482,2_ND,training,05,1_B,91.0,10101,kill,1.0,2100.0,1.31885234225
91,2_14_1,14,1.0,574.840448002,2_ND,training,05,1_B,92.0,00011,ignore,1.0,2200.0,1.62168010532
92,2_14_1,14,1.0,579.231273013,2_ND,training,05,1_B,93.0,10111,kill,0.0,2100.0,2.24806856487
93,2_14_1,14,1.0,584.215888858,2_ND,training,05,1_B,94.0,11101,kill,1.0,2200.0,2.85073831543
94,2_14_1,14,1.0,590.71618916,2_ND,training,05,1_B,95.0,01000,ignore,0.0,2100.0,4.29377683575
95,2_14_1,14,1.0,594.372618061,2_ND,training,05,1_B,96.0,11100,kill,1.0,2200.0,1.50370235352
96,2_14_1,14,1.0,598.029051477,2_ND,training,05,1_B,97.0,01010,ignore,1.0,2300.0,1.564591567
97,2_14_1,14,1.0,601.138550579,2_ND,training,05,1_B,98.0,00100,ignore,1.0,2400.0,0.968824857351
98,2_14_1,14,1.0,605.138728748,2_ND,training,05,1_B,99.0,01100,ignore,0.0,2300.0,1.87175902948
99,2_14_1,14,1.0,608.545190799,2_ND,training,05,1_B,100.0,01000,ignore,0.0,2200.0,1.30221648576
100,2_14_1,14,1.0,611.467162011,2_ND,training,05,1_B,101.0,00010,ignore,1.0,2300.0,0.770675767268
101,2_14_1,14,1.0,615.311173813,2_ND,training,05,1_B,102.0,01111,ignore,1.0,2400.0,1.74059016792
102,2_14_1,14,1.0,621.280143587,2_ND,training,05,1_B,103.0,01011,ignore,1.0,2500.0,3.85131716097
103,2_14_1,14,1.0,624.795964749,2_ND,training,05,1_B,104.0,10000,kill,0.0,2400.0,1.38864510323
104,2_14_1,14,1.0,628.514888851,2_ND,training,05,1_B,105.0,11000,kill,1.0,2500.0,1.6004155372
105,2_14_1,14,1.0,636.327744395,2_ND,training,05,1_B,106.0,10110,kill,0.0,2400.0,5.70023601298
106,2_14_1,14,1.0,640.124801561,2_ND,training,05,1_B,107.0,10011,kill,0.0,2300.0,1.6521901914
107,2_14_1,14,1.0,642.874988659,2_ND,training,05,1_B,108.0,11001,kill,1.0,2400.0,0.643831415549
108,2_14_1,14,1.0,646.250095756,2_ND,training,05,1_B,109.0,11101,kill,1.0,2500.0,1.24356916978
109,2_14_1,14,1.0,651.640989325,2_ND,training,05,1_B,110.0,11110,kill,0.0,2400.0,3.27679613512
110,2_14_1,14,1.0,658.531931131,2_ND,training,05,1_B,111.0,01001,kill,1.0,2500.0,4.74993174959
111,2_14_1,14,1.0,662.000874426,2_ND,training,05,1_B,112.0,10111,ignore,1.0,2600.0,1.36697246953
112,2_14_1,14,1.0,665.376013955,2_ND,training,05,1_B,113.0,00000,ignore,1.0,2700.0,1.24804311209
113,2_14_1,14,1.0,668.454290292,2_ND,training,05,1_B,114.0,00111,ignore,1.0,2800.0,0.931847711898
114,2_14_1,14,1.0,672.517005538,2_ND,training,05,1_B,115.0,11100,kill,1.0,2900.0,1.95217750606
115,2_14_1,14,1.0,675.595279823,2_ND,training,05,1_B,116.0,00001,ignore,0.0,2800.0,0.953696462431
116,2_14_1,14,1.0,678.736064499,2_ND,training,05,1_B,117.0,01101,kill,1.0,2900.0,0.990055762119
117,2_14_1,14,1.0,682.064351613,2_ND,training,05,1_B,118.0,10101,ignore,0.0,2800.0,1.22975857215
118,2_14_1,14,1.0,685.142619329,2_ND,training,05,1_B,119.0,10010,ignore,1.0,2900.0,0.956379678333
119,2_14_1,14,1.0,691.611700151,2_ND,training,05,1_B,120.0,11010,ignore,1.0,3000.0,4.35152714642
120,2_14_1,14,1.0,694.846209773,2_ND,training,05,1_B,121.0,01110,ignore,1.0,3100.0,1.12184287997
121,2_14_1,14,1.0,698.174466097,2_ND,training,05,1_B,122.0,10100,kill,0.0,3000.0,1.20152856274
122,2_14_1,14,1.0,701.408988034,2_ND,training,05,1_B,123.0,00110,ignore,1.0,3100.0,1.11775442417
123,2_14_1,14,1.0,707.284328106,2_ND,training,05,1_B,124.0,10001,kill,1.0,3200.0,3.73196824314
124,2_14_1,14,1.0,711.581368645,2_ND,training,05,1_B,125.0,11011,ignore,1.0,3300.0,2.19958060383
125,2_14_1,14,1.0,715.33155246,2_ND,training,05,1_B,126.0,11111,ignore,1.0,3400.0,1.64290977851
126,2_14_1,14,1.0,719.269212027,2_ND,training,05,1_B,127.0,00101,ignore,0.0,3300.0,1.80829005334
127,2_14_1,14,1.0,722.706881652,2_ND,training,05,1_B,128.0,00011,ignore,1.0,3400.0,1.28324595229
128,2_14_1,14,1.0,727.253998653,2_ND,training,05,1_B,129.0,00001,ignore,0.0,3300.0,2.41538243011
129,2_14_1,14,1.0,731.519827512,2_ND,training,05,1_B,130.0,00110,ignore,1.0,3400.0,2.1345466921
130,2_14_1,14,1.0,734.910599975,2_ND,training,05,1_B,131.0,11101,kill,1.0,3500.0,1.26623076724
131,2_14_1,14,1.0,738.988970735,2_ND,training,05,1_B,132.0,00000,kill,0.0,3400.0,1.95371863098
132,2_14_1,14,1.0,742.535964576,2_ND,training,05,1_B,133.0,10000,kill,0.0,3300.0,1.42087243107
133,2_14_1,14,1.0,745.473629481,2_ND,training,05,1_B,134.0,10110,ignore,1.0,3400.0,0.801341033213
134,2_14_1,14,1.0,751.895827919,2_ND,training,05,1_B,135.0,01111,ignore,1.0,3500.0,4.27295769132
135,2_14_1,14,1.0,757.052309573,2_ND,training,05,1_B,136.0,11000,kill,1.0,3600.0,3.05545217073
136,2_14_1,14,1.0,760.521244247,2_ND,training,05,1_B,137.0,01001,kill,1.0,3700.0,1.32112913469
137,2_14_1,14,1.0,764.302659857,2_ND,training,05,1_B,138.0,01011,ignore,1.0,3800.0,1.66487799291
138,2_14_1,14,1.0,768.568498159,2_ND,training,05,1_B,139.0,10100,kill,0.0,3700.0,2.16482811367
139,2_14_1,14,1.0,772.396791636,2_ND,training,05,1_B,140.0,00101,ignore,0.0,3600.0,1.68730517845
140,2_14_1,14,1.0,775.865737804,2_ND,training,05,1_B,141.0,00100,ignore,1.0,3700.0,1.3469645299
141,2_14_1,14,1.0,782.241024713,2_ND,training,05,1_B,142.0,10101,ignore,0.0,3600.0,4.2818181333
142,2_14_1,14,1.0,786.77251042,2_ND,training,05,1_B,143.0,01100,ignore,0.0,3500.0,2.40610078563
143,2_14_1,14,1.0,789.757016244,2_ND,training,05,1_B,144.0,10111,ignore,1.0,3600.0,0.874337560548
144,2_14_1,14,1.0,793.132198057,2_ND,training,05,1_B,145.0,11100,kill,1.0,3700.0,1.24005914898
145,2_14_1,14,1.0,796.788586726,2_ND,training,05,1_B,146.0,01110,ignore,1.0,3800.0,1.5506615055
146,2_14_1,14,1.0,803.02325399,2_ND,training,05,1_B,147.0,00010,ignore,1.0,3900.0,4.15057783974
147,2_14_1,14,1.0,809.476708446,2_ND,training,05,1_B,148.0,01010,ignore,1.0,4000.0,4.34117566402
148,2_14_1,14,1.0,813.461275439,2_ND,training,05,1_B,149.0,00111,ignore,1.0,4100.0,1.87213671593
149,2_14_1,14,1.0,817.117703929,2_ND,training,05,1_B,150.0,10010,ignore,1.0,4200.0,1.55841762515
150,2_14_1,14,1.0,822.305462126,2_ND,training,05,1_B,151.0,10011,kill,0.0,4100.0,3.05152546325
151,2_14_1,14,1.0,826.13374534,2_ND,training,05,1_B,152.0,11111,kill,0.0,4000.0,1.73262919442
152,2_14_1,14,1.0,831.212115689,2_ND,training,05,1_B,153.0,11011,kill,0.0,3900.0,2.95032068453
153,2_14_1,14,1.0,842.165798604,2_ND,training,05,1_B,154.0,01101,kill,1.0,4000.0,8.85420769389
154,2_14_1,14,1.0,1013.90695776,2_ND,test,05,2,0.0,01000,kill,0.0,0.0,16.997672302
155,2_14_1,14,1.0,1031.46095071,2_ND,test,05,2,1.0,11010,kill,0.0,0.0,15.4245146421
156,2_14_1,14,1.0,1043.19588667,2_ND,test,05,2,2.0,11110,kill,1.0,100.0,9.66624341153
157,2_14_1,14,1.0,1052.87413681,2_ND,test,05,2,3.0,10001,ignore,1.0,200.0,7.5450023667
158,2_14_1,14,1.0,1059.93361216,2_ND,test,05,2,4.0,00011,ignore,1.0,300.0,4.95637393093
159,2_14_1,14,1.0,1071.43105108,2_ND,test,05,2,5.0,11001,ignore,1.0,400.0,9.36638746607
160,2_14_1,14,1.0,1077.39665329,2_ND,test,05,2,6.0,11111,kill,1.0,500.0,3.84360578895
161,2_14_1,14,1.0,1094.05689682,2_ND,test,05,2,7.0,10100,ignore,0.0,400.0,14.5367642863
162,2_14_1,14,1.0,1127.73670739,2_ND,test,05,2,8.0,01001,,,300.0,
163,2_14_1,14,1.0,1135.01826073,2_ND,test,05,2,9.0,01000,kill,0.0,200.0,5.20026249208
164,2_14_1,14,1.0,1138.64348862,2_ND,test,05,2,10.0,11110,kill,1.0,300.0,1.5024297144
165,2_14_1,14,1.0,1142.65925703,2_ND,test,05,2,11.0,11101,kill,0.0,200.0,1.90817539266
166,2_14_1,14,1.0,1157.31625411,2_ND,test,05,2,12.0,11010,ignore,1.0,300.0,12.5758490863
167,2_14_1,14,1.0,1163.86341257,2_ND,test,05,2,13.0,01110,kill,1.0,400.0,4.34568696444
168,2_14_1,14,1.0,1168.23863749,2_ND,test,05,2,14.0,00010,ignore,1.0,500.0,2.26294202144
169,2_14_1,14,1.0,1172.11384701,2_ND,test,05,2,15.0,11100,kill,0.0,400.0,1.77612389429
170,2_14_1,14,1.0,1182.61430906,2_ND,test,05,2,16.0,00000,ignore,1.0,500.0,8.3756013733
171,2_14_1,14,1.0,1188.30210318,2_ND,test,05,2,17.0,11011,ignore,1.0,600.0,3.62584820371
172,2_14_1,14,1.0,1195.48991228,2_ND,test,05,2,18.0,10000,ignore,1.0,700.0,5.05832422986
173,2_14_1,14,1.0,1200.16203077,2_ND,test,05,2,19.0,00100,kill,1.0,800.0,2.51728674982
174,2_14_1,14,1.0,1204.59971928,2_ND,test,05,2,20.0,00001,ignore,1.0,900.0,2.3226386489
175,2_14_1,14,1.0,1220.27240389,2_ND,test,05,2,21.0,01111,kill,1.0,1000.0,13.5410391222
176,2_14_1,14,1.0,1226.6039974,2_ND,test,05,2,22.0,10011,ignore,1.0,1100.0,4.22367576768
177,2_14_1,14,1.0,1231.15106103,2_ND,test,05,2,23.0,10111,kill,1.0,1200.0,2.41338438669
178,2_14_1,14,1.0,1238.94830663,2_ND,test,05,2,24.0,11000,kill,0.0,1100.0,5.69622966292
179,2_14_1,14,1.0,1249.19881743,2_ND,test,05,2,25.0,10001,ignore,1.0,1200.0,8.07315663355
180,2_14_1,14,1.0,1254.49595937,2_ND,test,05,2,26.0,00011,ignore,1.0,1300.0,3.1772149976
181,2_14_1,14,1.0,1258.37115453,2_ND,test,05,2,27.0,00111,kill,1.0,1400.0,1.75417456421
182,2_14_1,14,1.0,1262.19944349,2_ND,test,05,2,28.0,10110,kill,1.0,1500.0,1.72260367185
183,2_14_1,14,1.0,1266.55903711,2_ND,test,05,2,29.0,00110,kill,1.0,1600.0,2.22285594177
184,2_14_1,14,1.0,1271.76240526,2_ND,test,05,2,30.0,10010,ignore,1.0,1700.0,3.11437002516
185,2_14_1,14,1.0,1277.91892755,2_ND,test,05,2,31.0,11001,kill,0.0,1600.0,4.06110638319
186,2_14_1,14,1.0,1286.60685181,2_ND,test,05,2,32.0,01011,ignore,1.0,1700.0,6.57057543404
187,2_14_1,14,1.0,1290.0445202,2_ND,test,05,2,33.0,10101,kill,1.0,1800.0,1.32275564959
188,2_14_1,14,1.0,1293.9978632,2_ND,test,05,2,34.0,01101,kill,0.0,1700.0,1.82360688096
189,2_14_1,14,1.0,1299.77935435,2_ND,test,05,2,35.0,01100,ignore,1.0,1800.0,3.68729122047
190,2_14_1,14,1.0,1307.99853934,2_ND,test,05,2,36.0,01010,ignore,1.0,1900.0,6.12895693266
191,2_14_1,14,1.0,1312.70185062,2_ND,test,05,2,37.0,00101,ignore,0.0,1800.0,2.55905722894
192,2_14_1,14,1.0,1320.84290502,2_ND,test,05,2,38.0,00101,kill,1.0,1900.0,6.01125012983
193,2_14_1,14,1.0,1325.76500924,2_ND,test,05,2,39.0,11010,ignore,1.0,2000.0,2.80662782244
194,2_14_1,14,1.0,1330.96837615,2_ND,test,05,2,40.0,00100,kill,1.0,2100.0,3.08227201389
195,2_14_1,14,1.0,1337.01555124,2_ND,test,05,2,41.0,11111,kill,1.0,2200.0,3.92905242165
196,2_14_1,14,1.0,1348.29734885,2_ND,test,05,2,42.0,11001,ignore,1.0,2300.0,9.15923712264
197,2_14_1,14,1.0,1352.87566891,2_ND,test,05,2,43.0,11110,kill,1.0,2400.0,2.46600390906
198,2_14_1,14,1.0,1356.54775373,2_ND,test,05,2,44.0,00011,ignore,1.0,2500.0,1.54140367169
199,2_14_1,14,1.0,1362.00112813,2_ND,test,05,2,45.0,01100,ignore,1.0,2600.0,3.36345382763
200,2_14_1,14,1.0,1367.5170704,2_ND,test,05,2,46.0,11011,ignore,1.0,2700.0,3.39744027115
201,2_14_1,14,1.0,1374.00170657,2_ND,test,05,2,47.0,01011,ignore,1.0,2800.0,4.21744435181
202,2_14_1,14,1.0,1379.64256165,2_ND,test,05,3,0.0,10100,kill,1.0,2900.0,3.50503534036
203,2_14_1,14,1.0,1383.5021288,2_ND,test,05,3,1.0,10011,ignore,0.0,2800.0,1.72048370139
204,2_14_1,14,1.0,1390.03373192,2_ND,test,05,3,2.0,10010,kill,1.0,2900.0,4.44425409595
205,2_14_1,14,1.0,1394.29951849,2_ND,test,05,3,3.0,11100,kill,1.0,3000.0,2.17840142568
206,2_14_1,14,1.0,1408.09705023,2_ND,test,05,3,4.0,01001,kill,0.0,2900.0,11.6728020188
207,2_14_1,14,1.0,1412.23786693,2_ND,test,05,3,5.0,01000,ignore,1.0,3000.0,2.05777001605
208,2_14_1,14,1.0,1416.87873802,2_ND,test,05,3,6.0,01101,kill,0.0,2900.0,2.546998768
209,2_14_1,14,1.0,1421.26956426,2_ND,test,05,3,7.0,10101,ignore,1.0,3000.0,2.26400323825
210,2_14_1,14,1.0,1428.37927725,2_ND,test,05,3,8.0,00110,ignore,1.0,3100.0,4.98852161619
211,2_14_1,14,1.0,1434.52026842,2_ND,test,05,3,9.0,10111,ignore,1.0,3200.0,3.99932098545
212,2_14_1,14,1.0,1439.34856929,2_ND,test,05,3,10.0,00010,ignore,1.0,3300.0,2.7173250932
213,2_14_1,14,1.0,1444.0363125,2_ND,test,05,3,11.0,01111,kill,0.0,3200.0,2.55589697863
214,2_14_1,14,1.0,1458.09948384,2_ND,test,05,3,12.0,01010,ignore,1.0,3300.0,11.9537490101
215,2_14_1,14,1.0,1464.89667443,2_ND,test,05,3,13.0,10001,ignore,0.0,3200.0,4.65975746783
216,2_14_1,14,1.0,1469.81883202,2_ND,test,05,3,14.0,10110,kill,1.0,3300.0,2.80110580024
217,2_14_1,14,1.0,1474.46478259,2_ND,test,05,3,15.0,11101,ignore,1.0,3400.0,2.53599906071
218,2_14_1,14,1.0,1479.55475899,2_ND,test,05,3,16.0,00000,kill,0.0,3300.0,2.89766257246
219,2_14_1,14,1.0,1485.82395419,2_ND,test,05,3,17.0,00001,ignore,1.0,3400.0,4.11014814751
220,2_14_1,14,1.0,1492.43752717,2_ND,test,05,3,18.0,00111,ignore,1.0,3500.0,4.51116371353
221,2_14_1,14,1.0,1498.28797237,2_ND,test,05,3,19.0,11000,ignore,0.0,3400.0,3.75084681818
222,2_14_1,14,1.0,1509.52919783,2_ND,test,05,3,20.0,10000,ignore,0.0,3300.0,9.15098508426
223,2_14_1,14,1.0,1515.50064022,2_ND,test,05,3,21.0,01110,ignore,1.0,3400.0,3.87943016968
224,2_14_1,14,1.0,1520.98526407,2_ND,test,05,3,22.0,11011,ignore,0.0,3300.0,3.36410533675
225,2_14_1,14,1.0,1530.44126422,2_ND,test,05,3,23.0,00001,ignore,1.0,3400.0,7.26350731952
226,2_14_1,14,1.0,1543.42626596,2_ND,test,05,3,24.0,11001,kill,1.0,3500.0,10.8989290537
227,2_14_1,14,1.0,1549.28595503,2_ND,test,05,3,25.0,10110,kill,1.0,3600.0,3.73792173105
228,2_14_1,14,1.0,1563.2397258,2_ND,test,05,3,26.0,00100,ignore,1.0,3700.0,11.8313712112
229,2_14_1,14,1.0,1568.27120679,2_ND,test,05,3,27.0,10111,ignore,1.0,3800.0,2.91284638876
230,2_14_1,14,1.0,1574.49027355,2_ND,test,05,3,28.0,10001,ignore,0.0,3700.0,4.16615535311
231,2_14_1,14,1.0,1582.7253694,2_ND,test,05,3,29.0,11111,ignore,1.0,3800.0,6.15113656937
232,2_14_1,14,1.0,1593.11652202,2_ND,test,05,3,30.0,11010,ignore,0.0,3700.0,8.30844749112
233,2_14_1,14,1.0,1603.242003,2_ND,test,05,3,31.0,01101,ignore,1.0,3800.0,8.01294397145
234,2_14_1,14,1.0,1617.5239213,2_ND,test,05,3,32.0,11101,kill,0.0,3700.0,12.1565095696
235,2_14_1,14,1.0,1624.91488631,2_ND,test,05,3,33.0,10010,ignore,0.0,3600.0,5.30977349898
236,2_14_1,14,1.0,1630.50892715,2_ND,test,05,3,34.0,10000,kill,1.0,3700.0,3.45978111428
237,2_14_1,14,1.0,1638.6812039,2_ND,test,05,3,35.0,01111,ignore,1.0,3800.0,6.06108421464
238,2_14_1,14,1.0,1644.2908354,2_ND,test,05,3,36.0,01100,ignore,1.0,3900.0,3.53233837586
239,2_14_1,14,1.0,1651.41933295,2_ND,test,05,3,37.0,01001,ignore,1.0,4000.0,5.01093771745
240,2_14_1,14,1.0,1661.99536924,2_ND,test,05,3,38.0,01110,ignore,1.0,4100.0,8.493570504
241,2_14_1,14,1.0,1667.11462332,2_ND,test,05,3,39.0,10011,ignore,0.0,4000.0,2.97508542077
242,2_14_1,14,1.0,1678.16209728,2_ND,test,05,3,40.0,00000,ignore,1.0,4100.0,8.92095186838
243,2_14_1,14,1.0,1682.63417701,2_ND,test,05,3,41.0,00110,ignore,1.0,4200.0,2.3654469447
244,2_14_1,14,1.0,1690.50855029,2_ND,test,05,3,42.0,11100,ignore,0.0,4100.0,5.79801821352
245,2_14_1,14,1.0,1699.09344045,2_ND,test,05,3,43.0,01000,ignore,1.0,4200.0,6.49995997344
246,2_14_1,14,1.0,1706.89382741,2_ND,test,05,3,44.0,11000,kill,1.0,4300.0,5.72691135001
247,2_14_1,14,1.0,1712.89409302,2_ND,test,05,3,45.0,10100,ignore,0.0,4200.0,3.88140234979
248,2_14_1,14,1.0,1717.65993194,2_ND,test,05,3,46.0,00010,ignore,1.0,4300.0,2.69418317711
249,2_14_1,14,1.0,1725.72282248,2_ND,test,05,3,47.0,01010,ignore,1.0,4400.0,5.97108194442
250,2_14_1,14,1.0,1730.59812889,2_ND,test,05,3,48.0,01011,ignore,1.0,4500.0,2.75561346748
251,2_14_1,14,1.0,1735.41082885,2_ND,test,05,3,49.0,00101,ignore,1.0,4600.0,2.69099542137
252,2_14_1,14,1.0,1739.77039538,2_ND,test,05,3,50.0,00111,ignore,1.0,4700.0,2.22383751601
253,2_14_1,14,1.0,1743.7549985,2_ND,test,05,3,51.0,00011,ignore,1.0,4800.0,1.88371403717
254,2_14_1,14,1.0,1755.27116614,2_ND,test,05,3,52.0,11110,kill,1.0,4900.0,9.40723836079
255,2_14_1,14,1.0,1768.30299033,2_ND,test,05,3,53.0,10101,ignore,1.0,5000.0,10.8995132361
256,2_14_1,14,1.0,1778.40043672,2_ND,test,05,3,54.0,01111,ignore,1.0,5100.0,8.01089338035
257,2_14_1,14,1.0,1784.8538805,2_ND,test,05,3,55.0,00001,ignore,1.0,5200.0,4.33472420473
258,2_14_1,14,1.0,1788.7510566,2_ND,test,05,4,0.0,00111,ignore,0.0,5100.0,1.76572314844
259,2_14_1,14,1.0,1807.81444922,2_ND,test,05,4,1.0,11101,kill,0.0,5000.0,16.9157771535
260,2_14_1,14,1.0,1815.8773143,2_ND,test,05,4,2.0,01010,ignore,0.0,4900.0,5.93597886269
261,2_14_1,14,1.0,1826.56535885,2_ND,test,05,4,3.0,10000,kill,0.0,4800.0,8.58053486148
262,2_14_1,14,1.0,1830.81871379,2_ND,test,05,4,4.0,10010,ignore,0.0,4700.0,2.13201003497
263,2_14_1,14,1.0,1837.36588375,2_ND,test,05,4,5.0,11111,ignore,1.0,4800.0,4.48296531483
264,2_14_1,14,1.0,1842.15060822,2_ND,test,05,4,6.0,11000,kill,0.0,4700.0,2.65310608104
265,2_14_1,14,1.0,1849.93219666,2_ND,test,05,4,7.0,00011,ignore,0.0,4600.0,5.64958949178
266,2_14_1,14,1.0,1861.8546798,2_ND,test,05,4,8.0,10110,kill,1.0,4700.0,9.82349234343
267,2_14_1,14,1.0,1875.4022024,2_ND,test,05,4,9.0,01101,kill,0.0,4600.0,11.4379959957
268,2_14_1,14,1.0,1883.34007832,2_ND,test,05,4,10.0,01011,ignore,0.0,4500.0,5.79305943676
269,2_14_1,14,1.0,1888.62157337,2_ND,test,05,4,11.0,01110,kill,1.0,4600.0,3.18463407315
270,2_14_1,14,1.0,1892.48108591,2_ND,test,05,4,12.0,11110,kill,0.0,4500.0,1.74569427185
271,2_14_1,14,1.0,1903.98171094,2_ND,test,05,4,13.0,10100,ignore,1.0,4600.0,9.40933862587
272,2_14_1,14,1.0,1912.60708006,2_ND,test,05,4,14.0,10011,ignore,0.0,4500.0,6.50408127156
273,2_14_1,14,1.0,1918.16989034,2_ND,test,05,4,15.0,10101,ignore,1.0,4600.0,3.42420551398
274,2_14_1,14,1.0,1923.15447745,2_ND,test,05,4,16.0,10111,kill,1.0,4700.0,2.83880342365
275,2_14_1,14,1.0,1927.99846093,2_ND,test,05,4,17.0,11010,ignore,1.0,4800.0,2.7227543359
276,2_14_1,14,1.0,1932.6080682,2_ND,test,05,4,18.0,10001,ignore,1.0,4900.0,2.49549998912
277,2_14_1,14,1.0,1939.9052512,2_ND,test,05,4,19.0,01001,ignore,1.0,5000.0,5.13178547574
278,2_14_1,14,1.0,1943.59291969,2_ND,test,05,4,20.0,01100,ignore,1.0,5100.0,1.54613214182
279,2_14_1,14,1.0,1947.04623334,2_ND,test,05,4,21.0,11100,ignore,1.0,5200.0,1.36110519265
280,2_14_1,14,1.0,1950.78082116,2_ND,test,05,4,22.0,00110,kill,1.0,5300.0,1.58876185761
281,2_14_1,14,1.0,1954.14036594,2_ND,test,05,4,23.0,00010,kill,1.0,5400.0,1.24882434829
282,2_14_1,14,1.0,1958.71871679,2_ND,test,05,4,24.0,11001,ignore,1.0,5500.0,2.43448269067
283,2_14_1,14,1.0,1962.23448622,2_ND,test,05,5,0.0,01000,ignore,1.0,5600.0,1.3859557294
284,2_14_1,14,1.0,1966.48469528,2_ND,test,05,5,1.0,11011,ignore,1.0,5700.0,2.15737044842
285,2_14_1,14,1.0,1970.71929974,2_ND,test,05,5,2.0,00101,kill,1.0,5800.0,2.09708307008
286,2_14_1,14,1.0,1974.96946898,2_ND,test,05,5,3.0,00100,kill,1.0,5900.0,2.13199279276
287,2_14_1,14,1.0,1978.23522928,2_ND,test,05,5,4.0,00000,kill,0.0,5800.0,1.15428163011
288,2_14_1,14,1.0,1984.43865859,2_ND,test,05,5,5.0,01001,kill,0.0,5700.0,4.07518136134
289,2_14_1,14,1.0,1988.22008405,2_ND,test,05,5,6.0,10100,ignore,0.0,5600.0,1.67450324995
290,2_14_1,14,1.0,1994.09542248,2_ND,test,05,5,7.0,01101,ignore,1.0,5700.0,3.77379824893
291,2_14_1,14,1.0,2003.98650264,2_ND,test,05,5,8.0,00010,kill,0.0,5600.0,7.76424524495
292,2_14_1,14,1.0,2008.95548308,2_ND,test,05,5,9.0,11001,ignore,1.0,5700.0,2.88103492656
293,2_14_1,14,1.0,2013.22132672,2_ND,test,05,5,10.0,00110,ignore,0.0,5600.0,2.15506574002
294,2_14_1,14,1.0,2020.89354866,2_ND,test,05,5,11.0,11110,ignore,0.0,5500.0,5.58930457661
295,2_14_1,14,1.0,2026.94070569,2_ND,test,05,5,12.0,11011,kill,0.0,5400.0,3.88914492198
296,2_14_1,14,1.0,2046.78539569,2_ND,test,05,5,13.0,10001,kill,0.0,5300.0,17.7037411074
297,2_14_1,14,1.0,2055.23895236,2_ND,test,05,5,14.0,01011,ignore,1.0,5400.0,6.3438428693
298,2_14_1,14,1.0,2060.41109528,2_ND,test,05,5,15.0,01111,ignore,0.0,5300.0,3.04194782754
299,2_14_1,14,1.0,2075.09928391,2_ND,test,05,5,16.0,01010,kill,0.0,5200.0,12.5854571012
300,2_14_1,14,1.0,2080.92150403,2_ND,test,05,5,17.0,10010,ignore,1.0,5300.0,3.6569268721
301,2_14_1,14,1.0,2084.70293278,2_ND,test,05,5,18.0,00000,ignore,1.0,5400.0,1.65940933945
302,2_14_1,14,1.0,2088.57813368,2_ND,test,05,5,19.0,10101,ignore,0.0,5300.0,1.74531248011
303,2_14_1,14,1.0,2092.73457633,2_ND,test,05,5,20.0,00011,ignore,1.0,5400.0,1.97806709107
304,2_14_1,14,1.0,2099.07863227,2_ND,test,05,5,21.0,11100,kill,0.0,5300.0,4.22237972842
305,2_14_1,14,1.0,2102.58727287,2_ND,test,05,5,22.0,00001,ignore,1.0,5400.0,1.41504374389
306,2_14_1,14,1.0,2106.699947,2_ND,test,05,5,23.0,00100,ignore,0.0,5300.0,1.99908575248
307,2_14_1,14,1.0,2112.35080503,2_ND,test,05,5,24.0,00111,kill,1.0,5400.0,3.58326898295
308,2_14_1,14,1.0,2116.29166015,2_ND,test,05,5,25.0,11111,kill,1.0,5500.0,1.86125031457
309,2_14_1,14,1.0,2119.77047461,2_ND,test,05,5,26.0,01110,kill,1.0,5600.0,1.37915860491
310,2_14_1,14,1.0,2124.039467,2_ND,test,05,5,27.0,01000,ignore,1.0,5700.0,2.19692325124
311,2_14_1,14,1.0,2127.44585967,2_ND,test,05,5,28.0,10000,ignore,1.0,5800.0,1.25555784083
312,2_14_1,14,1.0,2131.06176036,2_ND,test,05,5,29.0,01100,kill,0.0,5700.0,1.51701497979
313,2_14_1,14,1.0,2137.51516965,2_ND,test,05,5,30.0,00101,ignore,0.0,5600.0,4.2873101869
314,2_14_1,14,1.0,2142.34356001,2_ND,test,05,5,31.0,10011,ignore,1.0,5700.0,2.70808121736
315,2_14_1,14,1.0,2146.62499225,2_ND,test,05,5,32.0,11000,ignore,1.0,5800.0,2.18238930195
316,2_14_1,14,1.0,2150.68772597,2_ND,test,05,5,33.0,11010,ignore,1.0,5900.0,1.9394018514
317,2_14_1,14,1.0,2157.31300436,2_ND,test,05,5,34.0,10111,kill,1.0,6000.0,4.5446940596
318,2_14_1,14,1.0,2161.02264764,2_ND,test,05,5,35.0,11101,kill,0.0,5900.0,1.55025467151
319,2_14_1,14,1.0,2170.00746177,2_ND,test,05,5,36.0,10110,kill,1.0,6000.0,6.8648892414
320,2_14_1,14,1.0,2174.14828011,2_ND,test,05,5,37.0,11011,ignore,1.0,6100.0,2.0338990009
321,2_14_1,14,1.0,2183.69564096,2_ND,test,05,5,38.0,00011,ignore,1.0,6200.0,7.41840556381
322,2_14_1,14,1.0,2189.55527051,2_ND,test,05,5,39.0,01100,kill,0.0,6100.0,3.74736553439
323,2_14_1,14,1.0,2198.05888624,2_ND,test,05,5,40.0,00100,kill,1.0,6200.0,6.38477833295
324,2_14_1,14,1.0,2208.84401796,2_ND,test,05,5,41.0,01001,ignore,1.0,6300.0,8.67429675399
325,2_14_1,14,1.0,2213.78173336,2_ND,test,05,5,42.0,01110,kill,1.0,6400.0,2.83281298814
326,2_14_1,14,1.0,2217.90695284,2_ND,test,05,5,43.0,10010,ignore,1.0,6500.0,1.92096582636
327,2_14_1,14,1.0,2224.95998125,2_ND,test,05,5,44.0,10111,kill,1.0,6600.0,4.9204309074
328,2_14_1,14,1.0,2229.34143758,2_ND,test,05,5,45.0,10101,kill,1.0,6700.0,2.28273279135
329,2_14_1,14,1.0,2236.76366065,2_ND,test,05,5,46.0,01010,ignore,1.0,6800.0,5.30706318817
