,unique_id,pair_id,sbj_id,wall_time,condition,block,rule_id,rule_num,trial,stimulus,choice,correct,points,reaction_time
0,2_10_1,10,1.0,14.3942422522,2_ND,training,05,1_B,1.0,00110,ignore,1.0,100.0,2.61899360519
1,2_10_1,10,1.0,18.4414727637,2_ND,training,05,1_B,2.0,10100,kill,0.0,0.0,1.84141931283
2,2_10_1,10,1.0,22.8354366774,2_ND,training,05,1_B,3.0,01000,ignore,0.0,0.0,2.21392201514
3,2_10_1,10,1.0,28.0014282295,2_ND,training,05,1_B,4.0,10110,ignore,1.0,100.0,3.07740232187
4,2_10_1,10,1.0,32.3610140553,2_ND,training,05,1_B,5.0,11101,kill,1.0,200.0,2.22251356079
5,2_10_1,10,1.0,36.1299491806,2_ND,training,05,1_B,6.0,10111,ignore,1.0,300.0,1.66047958789
6,2_10_1,10,1.0,40.2551432068,2_ND,training,05,1_B,7.0,11100,kill,1.0,400.0,2.02613097591
7,2_10_1,10,1.0,43.7084486406,2_ND,training,05,1_B,8.0,10000,kill,0.0,300.0,1.31528525795
8,2_10_1,10,1.0,47.889195417,2_ND,training,05,1_B,9.0,00111,ignore,1.0,400.0,2.04506045652
9,2_10_1,10,1.0,51.4862848503,2_ND,training,05,1_B,10.0,01001,ignore,0.0,300.0,1.4762260749
10,2_10_1,10,1.0,55.6302650825,2_ND,training,05,1_B,11.0,01110,ignore,1.0,400.0,2.03695826113
11,2_10_1,10,1.0,59.6460634604,2_ND,training,05,1_B,12.0,00000,kill,0.0,300.0,1.91202697338
12,2_10_1,10,1.0,63.4463576453,2_ND,training,05,1_B,13.0,01111,ignore,1.0,400.0,1.68648165778
13,2_10_1,10,1.0,67.9621788074,2_ND,training,05,1_B,14.0,10010,kill,0.0,300.0,2.38365019995
14,2_10_1,10,1.0,74.3687241957,2_ND,training,05,1_B,15.0,01101,ignore,0.0,200.0,4.27414740363
15,2_10_1,10,1.0,78.9314614043,2_ND,training,05,1_B,16.0,11011,ignore,1.0,300.0,2.45604201844
16,2_10_1,10,1.0,82.2284974278,2_ND,training,05,1_B,17.0,00001,kill,1.0,400.0,1.18470263145
17,2_10_1,10,1.0,86.9162209351,2_ND,training,05,1_B,18.0,11111,ignore,1.0,500.0,2.58035997624
18,2_10_1,10,1.0,91.1664308179,2_ND,training,05,1_B,19.0,10101,kill,1.0,600.0,2.12817528592
19,2_10_1,10,1.0,95.3384649427,2_ND,training,05,1_B,20.0,00101,kill,1.0,700.0,2.03653500599
20,2_10_1,10,1.0,100.385586664,2_ND,training,05,1_B,21.0,00010,ignore,1.0,800.0,2.93211496611
21,2_10_1,10,1.0,104.463899128,2_ND,training,05,1_B,22.0,10001,kill,1.0,900.0,1.95166188195
22,2_10_1,10,1.0,108.807913188,2_ND,training,05,1_B,23.0,11000,kill,1.0,1000.0,2.23317335028
23,2_10_1,10,1.0,114.823810914,2_ND,training,05,1_B,24.0,10011,ignore,1.0,1100.0,3.88692683516
24,2_10_1,10,1.0,118.167735068,2_ND,training,05,1_B,25.0,01011,ignore,1.0,1200.0,1.21130119961
25,2_10_1,10,1.0,121.16786069,2_ND,training,05,1_B,26.0,00011,ignore,1.0,1300.0,0.893976845358
26,2_10_1,10,1.0,124.511781559,2_ND,training,05,1_B,27.0,11110,ignore,1.0,1400.0,1.24767692044
27,2_10_1,10,1.0,128.027577269,2_ND,training,05,1_B,28.0,00100,kill,0.0,1300.0,1.36320997355
28,2_10_1,10,1.0,131.824577371,2_ND,training,05,1_B,29.0,11001,kill,1.0,1400.0,1.68072604472
29,2_10_1,10,1.0,138.606175256,2_ND,training,05,1_B,30.0,01100,ignore,0.0,1300.0,4.6625030841
30,2_10_1,10,1.0,142.450136973,2_ND,training,05,1_B,31.0,01010,ignore,1.0,1400.0,1.75554326706
31,2_10_1,10,1.0,145.934659834,2_ND,training,05,1_B,32.0,11010,ignore,1.0,1500.0,1.38328318725
32,2_10_1,10,1.0,149.841101974,2_ND,training,05,1_B,33.0,10000,kill,0.0,1400.0,1.76948194967
33,2_10_1,10,1.0,153.21625505,2_ND,training,05,1_B,34.0,10011,ignore,1.0,1500.0,1.23671046598
34,2_10_1,10,1.0,158.57586756,2_ND,training,05,1_B,35.0,00101,kill,1.0,1600.0,3.22949706534
35,2_10_1,10,1.0,163.357375128,2_ND,training,05,1_B,36.0,11010,ignore,1.0,1700.0,2.67848455775
36,2_10_1,10,1.0,167.263807006,2_ND,training,05,1_B,37.0,10100,kill,0.0,1600.0,1.76502730221
37,2_10_1,10,1.0,171.670255098,2_ND,training,05,1_B,38.0,11100,kill,1.0,1700.0,2.26793487208
38,2_10_1,10,1.0,174.857948842,2_ND,training,05,1_B,39.0,11110,ignore,1.0,1800.0,1.11447512052
39,2_10_1,10,1.0,178.061198342,2_ND,training,05,1_B,40.0,01100,kill,1.0,1900.0,1.08195631728
40,2_10_1,10,1.0,181.170756559,2_ND,training,05,1_B,41.0,01111,ignore,1.0,2000.0,0.987505557532
41,2_10_1,10,1.0,184.202114387,2_ND,training,05,1_B,42.0,11111,ignore,1.0,2100.0,0.899947986009
42,2_10_1,10,1.0,187.389756405,2_ND,training,05,1_B,43.0,11011,ignore,1.0,2200.0,1.07119307455
43,2_10_1,10,1.0,191.077451175,2_ND,training,05,1_B,44.0,00100,kill,0.0,2100.0,1.56577224768
44,2_10_1,10,1.0,194.452617798,2_ND,training,05,1_B,45.0,11000,kill,1.0,2200.0,1.26126419044
45,2_10_1,10,1.0,197.76527403,2_ND,training,05,1_B,46.0,00010,ignore,1.0,2300.0,1.18207935274
46,2_10_1,10,1.0,202.171726228,2_ND,training,05,1_B,47.0,01101,kill,1.0,2400.0,2.25463374062
47,2_10_1,10,1.0,205.921926874,2_ND,training,05,1_B,48.0,10101,kill,1.0,2500.0,1.61368998429
48,2_10_1,10,1.0,209.203299994,2_ND,training,05,1_B,49.0,10010,ignore,1.0,2600.0,1.19675288181
49,2_10_1,10,1.0,213.781657411,2_ND,training,05,1_B,50.0,01011,ignore,1.0,2700.0,2.45285179953
50,2_10_1,10,1.0,217.719344484,2_ND,training,05,1_B,51.0,10111,ignore,1.0,2800.0,1.80721528907
51,2_10_1,10,1.0,221.07886052,2_ND,training,05,1_B,52.0,00011,ignore,1.0,2900.0,1.21954420635
52,2_10_1,10,1.0,224.985346997,2_ND,training,05,1_B,53.0,01010,ignore,1.0,3000.0,1.79327742753
53,2_10_1,10,1.0,228.688621334,2_ND,training,05,1_B,54.0,11101,kill,1.0,3100.0,1.57440443568
54,2_10_1,10,1.0,233.970116381,2_ND,training,05,1_B,55.0,00001,kill,1.0,3200.0,3.14250561295
55,2_10_1,10,1.0,237.032765531,2_ND,training,05,1_B,56.0,01110,ignore,1.0,3300.0,0.946597188782
56,2_10_1,10,1.0,240.782944829,2_ND,training,05,1_B,57.0,10001,kill,1.0,3400.0,1.62511869412
57,2_10_1,10,1.0,244.481411874,2_ND,training,05,1_B,58.0,00111,ignore,1.0,3500.0,1.53988676796
58,2_10_1,10,1.0,248.97086888,2_ND,training,05,1_B,59.0,11001,kill,1.0,3600.0,2.30774548695
59,2_10_1,10,1.0,253.033554978,2_ND,training,05,1_B,60.0,01000,ignore,0.0,3500.0,1.94552160346
60,2_10_1,10,1.0,256.189967663,2_ND,training,05,1_B,61.0,00110,ignore,1.0,3600.0,1.01357536466
61,2_10_1,10,1.0,260.174514539,2_ND,training,05,1_B,62.0,01001,kill,1.0,3700.0,1.84298342736
62,2_10_1,10,1.0,263.518449367,2_ND,training,05,1_B,63.0,10110,ignore,1.0,3800.0,1.22940551742
63,2_10_1,10,1.0,266.721714056,2_ND,training,05,1_B,64.0,00000,kill,0.0,3700.0,1.0524044053
64,2_10_1,10,1.0,270.690685472,2_ND,training,05,1_B,65.0,01001,ignore,0.0,3600.0,1.8402907693
65,2_10_1,10,1.0,273.987682085,2_ND,training,05,1_B,66.0,00000,kill,0.0,3500.0,1.16144617783
66,2_10_1,10,1.0,277.565972996,2_ND,training,05,1_B,67.0,01010,ignore,1.0,3600.0,1.45851216992
67,2_10_1,10,1.0,280.644278481,2_ND,training,05,1_B,68.0,10011,ignore,1.0,3700.0,0.906055422203
68,2_10_1,10,1.0,284.175699736,2_ND,training,05,1_B,69.0,00001,kill,1.0,3800.0,1.39403124042
69,2_10_1,10,1.0,288.238442897,2_ND,training,05,1_B,70.0,11111,ignore,1.0,3900.0,1.95616168757
70,2_10_1,10,1.0,292.926066236,2_ND,training,05,1_B,71.0,00110,ignore,1.0,4000.0,2.54585667702
71,2_10_1,10,1.0,299.613934249,2_ND,training,05,1_B,72.0,10100,kill,0.0,3900.0,4.55188898646
72,2_10_1,10,1.0,302.739044117,2_ND,training,05,1_B,73.0,11010,ignore,1.0,4000.0,0.970291266041
73,2_10_1,10,1.0,305.504806265,2_ND,training,05,1_B,74.0,10010,ignore,1.0,4100.0,0.640661723079
74,2_10_1,10,1.0,308.817495339,2_ND,training,05,1_B,75.0,00010,ignore,1.0,4200.0,1.17088587588
75,2_10_1,10,1.0,312.067664169,2_ND,training,05,1_B,76.0,10110,ignore,1.0,4300.0,1.12474654981
76,2_10_1,10,1.0,317.239777526,2_ND,training,05,1_B,77.0,10000,kill,0.0,4200.0,3.04404439786
77,2_10_1,10,1.0,320.896175227,2_ND,training,05,1_B,78.0,00011,ignore,1.0,4300.0,1.51187598091
78,2_10_1,10,1.0,326.365214175,2_ND,training,05,1_B,79.0,00101,kill,1.0,4400.0,3.32958274269
79,2_10_1,10,1.0,329.990375975,2_ND,training,05,1_B,80.0,11000,kill,1.0,4500.0,1.50729324849
80,2_10_1,10,1.0,336.084422363,2_ND,training,05,1_B,81.0,01000,kill,1.0,4600.0,3.95737480002
81,2_10_1,10,1.0,339.240858859,2_ND,training,05,1_B,82.0,10111,ignore,1.0,4700.0,1.06073403361
82,2_10_1,10,1.0,342.115962877,2_ND,training,05,1_B,83.0,11110,ignore,1.0,4800.0,0.735895771677
83,2_10_1,10,1.0,345.162972934,2_ND,training,05,1_B,84.0,11011,ignore,1.0,4900.0,0.92863162968
84,2_10_1,10,1.0,348.67875838,2_ND,training,05,1_B,85.0,11100,kill,1.0,5000.0,1.41421160212
85,2_10_1,10,1.0,351.585190668,2_ND,training,05,1_B,86.0,11101,kill,1.0,5100.0,0.770782915271
86,2_10_1,10,1.0,354.55407382,2_ND,training,05,1_B,87.0,10101,kill,1.0,5200.0,0.818017121512
87,2_10_1,10,1.0,357.741703522,2_ND,training,05,1_B,88.0,01101,kill,1.0,5300.0,1.01934452517
88,2_10_1,10,1.0,361.226220635,2_ND,training,05,1_B,89.0,11001,kill,1.0,5400.0,1.3616470906
89,2_10_1,10,1.0,365.007700698,2_ND,training,05,1_B,90.0,01100,kill,1.0,5500.0,1.65276328953
90,2_10_1,10,1.0,369.58603102,2_ND,training,05,1_B,91.0,01110,ignore,1.0,5600.0,2.44974040215
91,2_10_1,10,1.0,373.461222481,2_ND,training,05,1_B,92.0,01011,ignore,1.0,5700.0,1.73469415403
92,2_10_1,10,1.0,376.883254245,2_ND,training,05,1_B,93.0,00100,kill,0.0,5600.0,1.26994112607
93,2_10_1,10,1.0,380.555290217,2_ND,training,05,1_B,94.0,01111,ignore,1.0,5700.0,1.56516589672
94,2_10_1,10,1.0,384.524216886,2_ND,training,05,1_B,95.0,10001,kill,1.0,5800.0,1.85935120858
95,2_10_1,10,1.0,388.258799376,2_ND,training,05,1_B,96.0,00111,ignore,1.0,5900.0,1.58586188253
96,2_10_1,10,1.0,392.540246802,2_ND,training,05,1_B,97.0,11001,kill,1.0,6000.0,2.15656581207
97,2_10_1,10,1.0,396.259201694,2_ND,training,05,1_B,98.0,01111,ignore,1.0,6100.0,1.61470563241
98,2_10_1,10,1.0,400.071905342,2_ND,training,05,1_B,99.0,00011,ignore,1.0,6200.0,1.69729785872
99,2_10_1,10,1.0,405.009594878,2_ND,training,05,1_B,100.0,01000,kill,1.0,6300.0,2.81148068277
100,2_10_1,10,1.0,409.400494195,2_ND,training,05,1_B,101.0,11000,kill,1.0,6400.0,2.24958916336
101,2_10_1,10,1.0,413.353736202,2_ND,training,05,1_B,102.0,01110,ignore,1.0,6500.0,1.84978301503
102,2_10_1,10,1.0,418.135226528,2_ND,training,05,1_B,103.0,00101,kill,1.0,6600.0,2.64495626432
103,2_10_1,10,1.0,421.932322694,2_ND,training,05,1_B,104.0,11011,ignore,1.0,6700.0,1.68330252315
104,2_10_1,10,1.0,427.370074425,2_ND,training,05,1_B,105.0,01100,kill,1.0,6800.0,3.30742896929
105,2_10_1,10,1.0,431.151511793,2_ND,training,05,1_B,106.0,10000,kill,0.0,6700.0,1.63331941641
106,2_10_1,10,1.0,435.057937512,2_ND,training,05,1_B,107.0,10010,ignore,1.0,6800.0,1.77956535679
107,2_10_1,10,1.0,438.901844218,2_ND,training,05,1_B,108.0,10001,kill,1.0,6900.0,1.71731688262
108,2_10_1,10,1.0,442.855148626,2_ND,training,05,1_B,109.0,11010,ignore,1.0,7000.0,1.82008947064
109,2_10_1,10,1.0,446.074094281,2_ND,training,05,1_B,110.0,00110,ignore,1.0,7100.0,1.11429243523
110,2_10_1,10,1.0,450.183627867,2_ND,training,05,1_B,111.0,10100,kill,0.0,7000.0,1.99869410805
111,2_10_1,10,1.0,454.074439536,2_ND,training,05,1_B,112.0,10110,ignore,1.0,7100.0,1.76327516551
112,2_10_1,10,1.0,456.933956188,2_ND,training,05,1_B,113.0,00010,ignore,1.0,7200.0,0.738754693883
113,2_10_1,10,1.0,459.762220517,2_ND,training,05,1_B,114.0,10111,ignore,1.0,7300.0,0.696087209442
114,2_10_1,10,1.0,463.668693858,2_ND,training,05,1_B,115.0,00000,kill,0.0,7200.0,1.77012237451
115,2_10_1,10,1.0,467.606369436,2_ND,training,05,1_B,116.0,11101,kill,1.0,7300.0,1.81833240759
116,2_10_1,10,1.0,471.778453234,2_ND,training,05,1_B,117.0,11111,ignore,1.0,7400.0,2.04225736622
117,2_10_1,10,1.0,474.700479457,2_ND,training,05,1_B,118.0,00111,ignore,1.0,7500.0,0.81096382708
118,2_10_1,10,1.0,477.731850011,2_ND,training,05,1_B,119.0,01011,ignore,1.0,7600.0,0.923479904413
119,2_10_1,10,1.0,481.52890964,2_ND,training,05,1_B,120.0,01001,ignore,0.0,7500.0,1.66721349096
120,2_10_1,10,1.0,485.404105205,2_ND,training,05,1_B,121.0,11100,kill,1.0,7600.0,1.77577371327
121,2_10_1,10,1.0,488.9511401,2_ND,training,05,1_B,122.0,10011,ignore,1.0,7700.0,1.44677022665
122,2_10_1,10,1.0,492.498180742,2_ND,training,05,1_B,123.0,00001,kill,1.0,7800.0,1.43889546419
123,2_10_1,10,1.0,497.764068718,2_ND,training,05,1_B,124.0,00100,kill,0.0,7700.0,3.12135927711
124,2_10_1,10,1.0,502.217382362,2_ND,training,05,1_B,125.0,01101,ignore,0.0,7600.0,2.30792365643
125,2_10_1,10,1.0,505.451959721,2_ND,training,05,1_B,126.0,01010,ignore,1.0,7700.0,1.13753534139
126,2_10_1,10,1.0,509.530294353,2_ND,training,05,1_B,127.0,10101,kill,1.0,7800.0,1.95931413783
127,2_10_1,10,1.0,513.342938064,2_ND,training,05,1_B,128.0,11110,ignore,1.0,7900.0,1.71030956741
128,2_10_1,10,1.0,516.546218353,2_ND,training,05,1_B,129.0,10011,ignore,1.0,8000.0,1.07136262292
129,2_10_1,10,1.0,520.343275108,2_ND,training,05,1_B,130.0,00101,kill,1.0,8100.0,1.66256425288
130,2_10_1,10,1.0,523.984085032,2_ND,training,05,1_B,131.0,01111,ignore,1.0,8200.0,1.52173195511
131,2_10_1,10,1.0,527.265468415,2_ND,training,05,1_B,132.0,00010,ignore,1.0,8300.0,1.1356932989
132,2_10_1,10,1.0,530.484385334,2_ND,training,05,1_B,133.0,01110,ignore,1.0,8400.0,1.11246065595
133,2_10_1,10,1.0,536.250305125,2_ND,training,05,1_B,134.0,01000,ignore,0.0,8300.0,3.63825561408
134,2_10_1,10,1.0,539.703596191,2_ND,training,05,1_B,135.0,10110,ignore,1.0,8400.0,1.31015036436
135,2_10_1,10,1.0,544.094390001,2_ND,training,05,1_B,136.0,10101,kill,1.0,8500.0,2.25684033264
136,2_10_1,10,1.0,549.094669982,2_ND,training,05,1_B,137.0,00001,kill,1.0,8600.0,2.85022392291
137,2_10_1,10,1.0,552.34479078,2_ND,training,05,1_B,138.0,01101,kill,1.0,8700.0,1.13057728963
138,2_10_1,10,1.0,555.43867501,2_ND,training,05,1_B,139.0,11100,kill,1.0,8800.0,0.968272696184
139,2_10_1,10,1.0,559.438909422,2_ND,training,05,1_B,140.0,11010,ignore,1.0,8900.0,1.87289701517
140,2_10_1,10,1.0,563.345333089,2_ND,training,05,1_B,141.0,00111,ignore,1.0,9000.0,1.77265574742
141,2_10_1,10,1.0,566.282951603,2_ND,training,05,1_B,142.0,00110,ignore,1.0,9100.0,0.804606378877
142,2_10_1,10,1.0,569.283137162,2_ND,training,05,1_B,143.0,01011,ignore,1.0,9200.0,0.86650220885
143,2_10_1,10,1.0,572.877057724,2_ND,training,05,1_B,144.0,01001,kill,1.0,9300.0,1.48186140303
144,2_10_1,10,1.0,576.439723911,2_ND,training,05,1_B,145.0,11011,ignore,1.0,9400.0,1.41664932183
145,2_10_1,10,1.0,580.408671517,2_ND,training,05,1_B,146.0,10000,kill,0.0,9300.0,1.81736232816
146,2_10_1,10,1.0,583.81508882,2_ND,training,05,1_B,147.0,11001,kill,1.0,9400.0,1.2503851786
147,2_10_1,10,1.0,586.612042532,2_ND,training,05,1_B,148.0,10001,kill,1.0,9500.0,0.657412938142
148,2_10_1,10,1.0,590.784149731,2_ND,training,05,1_B,149.0,00011,ignore,1.0,9600.0,2.05125246163
149,2_10_1,10,1.0,594.753082558,2_ND,training,05,1_B,150.0,10111,ignore,1.0,9700.0,1.80588024959
150,2_10_1,10,1.0,598.893935792,2_ND,training,05,1_B,151.0,10010,ignore,1.0,9800.0,1.95601143405
151,2_10_1,10,1.0,602.550366746,2_ND,training,05,1_B,152.0,11000,kill,1.0,9900.0,1.51700964291
152,2_10_1,10,1.0,606.284863436,2_ND,training,05,1_B,153.0,10100,kill,0.0,9800.0,1.58349887905
153,2_10_1,10,1.0,609.706923937,2_ND,training,05,1_B,154.0,11111,ignore,1.0,9900.0,1.28867724763
154,2_10_1,10,1.0,614.082109855,2_ND,training,05,1_B,155.0,00000,kill,0.0,9800.0,2.19124522812
155,2_10_1,10,1.0,617.566694706,2_ND,training,05,1_B,156.0,01010,ignore,1.0,9900.0,1.3530662187
156,2_10_1,10,1.0,620.551229677,2_ND,training,05,1_B,157.0,11110,ignore,1.0,10000.0,0.873808388991
157,2_10_1,10,1.0,624.176368487,2_ND,training,05,1_B,158.0,01100,kill,1.0,10100.0,1.48350967596
158,2_10_1,10,1.0,627.301530492,2_ND,training,05,1_B,159.0,00100,kill,0.0,10000.0,1.01135153043
159,2_10_1,10,1.0,630.629815554,2_ND,training,05,1_B,160.0,11101,kill,1.0,10100.0,1.19421786679
160,2_10_1,10,1.0,636.489484511,2_ND,training,05,1_B,161.0,01010,ignore,1.0,10200.0,3.66385906055
161,2_10_1,10,1.0,640.739690699,2_ND,training,05,1_B,162.0,00101,ignore,0.0,10100.0,2.13757146792
162,2_10_1,10,1.0,644.08358899,2_ND,training,05,1_B,163.0,11001,kill,1.0,10200.0,1.24915071865
163,2_10_1,10,1.0,647.06814572,2_ND,training,05,1_B,164.0,11100,kill,1.0,10300.0,0.867216118344
164,2_10_1,10,1.0,650.240177381,2_ND,training,05,1_B,165.0,00000,kill,0.0,10200.0,1.0427339901
165,2_10_1,10,1.0,653.646615622,2_ND,training,05,1_B,166.0,10011,ignore,1.0,10300.0,1.25568633633
166,2_10_1,10,1.0,657.084282784,2_ND,training,05,1_B,167.0,01111,ignore,1.0,10400.0,1.33202251504
167,2_10_1,10,1.0,660.256342361,2_ND,training,05,1_B,168.0,11011,ignore,1.0,10500.0,1.05360438084
168,2_10_1,10,1.0,664.615878924,2_ND,training,05,1_B,169.0,10101,kill,1.0,10600.0,2.21676369514
169,2_10_1,10,1.0,668.647330352,2_ND,training,05,1_B,170.0,00001,ignore,0.0,10500.0,1.90843813106
170,2_10_1,10,1.0,671.756817138,2_ND,training,05,1_B,171.0,11010,ignore,1.0,10600.0,0.992666724962
171,2_10_1,10,1.0,674.600718097,2_ND,training,05,1_B,172.0,01011,ignore,1.0,10700.0,0.759862850555
172,2_10_1,10,1.0,677.522727487,2_ND,training,05,1_B,173.0,00110,ignore,1.0,10800.0,0.771047295786
173,2_10_1,10,1.0,681.304171834,2_ND,training,05,1_B,174.0,11110,ignore,1.0,10900.0,1.66493751958
174,2_10_1,10,1.0,684.460547982,2_ND,training,05,1_B,175.0,00111,ignore,1.0,11000.0,0.998715866075
175,2_10_1,10,1.0,687.273183072,2_ND,training,05,1_B,176.0,11111,ignore,1.0,11100.0,0.704595417761
176,2_10_1,10,1.0,691.257803433,2_ND,training,05,1_B,177.0,01001,kill,1.0,11200.0,1.86689590592
177,2_10_1,10,1.0,694.461080438,2_ND,training,05,1_B,178.0,11000,kill,1.0,11300.0,1.09285298185
178,2_10_1,10,1.0,701.995614321,2_ND,training,05,1_B,179.0,01100,kill,1.0,11400.0,5.41872988153
179,2_10_1,10,1.0,708.886587738,2_ND,training,05,1_B,180.0,10110,ignore,1.0,11500.0,4.77033625999
180,2_10_1,10,1.0,712.199281328,2_ND,training,05,1_B,181.0,10111,ignore,1.0,11600.0,1.18967906094
181,2_10_1,10,1.0,716.058827538,2_ND,training,05,1_B,182.0,11101,kill,1.0,11700.0,1.77078004157
182,2_10_1,10,1.0,719.449594664,2_ND,training,05,1_B,183.0,01000,kill,1.0,11800.0,1.25442724466
183,2_10_1,10,1.0,722.996659528,2_ND,training,05,1_B,184.0,10010,ignore,1.0,11900.0,1.44204339864
184,2_10_1,10,1.0,726.449941151,2_ND,training,05,1_B,185.0,00011,ignore,1.0,12000.0,1.33278568798
185,2_10_1,10,1.0,730.997008888,2_ND,training,05,1_B,186.0,00100,kill,0.0,11900.0,2.39716644847
186,2_10_1,10,1.0,734.200271934,2_ND,training,05,1_B,187.0,01101,kill,1.0,12000.0,0.976057963375
187,2_10_1,10,1.0,738.028631507,2_ND,training,05,1_B,188.0,10100,kill,0.0,11900.0,1.49826531077
188,2_10_1,10,1.0,741.23187649,2_ND,training,05,1_B,189.0,10001,kill,1.0,12000.0,1.07300966426
189,2_10_1,10,1.0,744.950850267,2_ND,training,05,1_B,190.0,00010,ignore,1.0,12100.0,1.61211889077
190,2_10_1,10,1.0,749.779200397,2_ND,training,05,1_B,191.0,10000,kill,0.0,12000.0,2.69832459112
191,2_10_1,10,1.0,753.935659882,2_ND,training,05,1_B,192.0,01110,ignore,1.0,12100.0,2.06412582213
192,2_10_1,10,1.0,758.623332894,2_ND,training,05,1_B,193.0,11100,ignore,0.0,12000.0,2.57150240796
193,2_10_1,10,1.0,762.576650028,2_ND,training,05,1_B,194.0,10100,kill,0.0,11900.0,1.80186979424
194,2_10_1,10,1.0,766.217501415,2_ND,training,05,1_B,195.0,10011,ignore,1.0,12000.0,1.51667793568
195,2_10_1,10,1.0,770.96772423,2_ND,training,05,1_B,196.0,01000,kill,1.0,12100.0,2.62342690515
196,2_10_1,10,1.0,774.84286889,2_ND,training,05,1_B,197.0,00111,ignore,1.0,12200.0,1.74050190424
197,2_10_1,10,1.0,779.046233748,2_ND,training,05,1_B,198.0,00001,kill,1.0,12300.0,2.07248500852
198,2_10_1,10,1.0,782.796386772,2_ND,training,05,1_B,199.0,11001,kill,1.0,12400.0,1.63780977986
199,2_10_1,10,1.0,786.359095244,2_ND,training,05,1_B,200.0,10111,ignore,1.0,12500.0,1.4624360037
200,2_10_1,10,1.0,789.468620619,2_ND,training,05,1_B,201.0,01010,ignore,1.0,12600.0,0.987231324329
201,2_10_1,10,1.0,793.406263766,2_ND,training,05,1_B,202.0,01100,kill,1.0,12700.0,1.82269714925
202,2_10_1,10,1.0,797.578345101,2_ND,training,05,1_B,203.0,00010,ignore,1.0,12800.0,2.05499155748
203,2_10_1,10,1.0,800.828521321,2_ND,training,05,1_B,204.0,10010,ignore,1.0,12900.0,1.1178049192
204,2_10_1,10,1.0,806.453805047,2_ND,training,05,1_B,205.0,10101,kill,1.0,13000.0,3.46643209054
205,2_10_1,10,1.0,811.21964807,2_ND,training,05,1_B,206.0,11000,kill,1.0,13100.0,2.65749422283
206,2_10_1,10,1.0,814.704176268,2_ND,training,05,1_B,207.0,10001,kill,1.0,13200.0,1.35106242788
207,2_10_1,10,1.0,820.391937544,2_ND,training,05,1_B,208.0,00000,kill,0.0,13100.0,3.55617039078
208,2_10_1,10,1.0,825.845324262,2_ND,training,05,1_B,209.0,11110,ignore,1.0,13200.0,3.31946320903
209,2_10_1,10,1.0,828.798624975,2_ND,training,05,1_B,210.0,11010,ignore,1.0,13300.0,0.842642688503
210,2_10_1,10,1.0,832.111267249,2_ND,training,05,1_B,211.0,00011,ignore,1.0,13400.0,1.18890398266
211,2_10_1,10,1.0,835.75208251,2_ND,training,05,1_B,212.0,10110,ignore,1.0,13500.0,1.49850957538
212,2_10_1,10,1.0,838.752231121,2_ND,training,05,1_B,213.0,11111,ignore,1.0,13600.0,0.902218620517
213,2_10_1,10,1.0,842.986794932,2_ND,training,05,1_B,214.0,00101,kill,1.0,13700.0,2.06703318673
214,2_10_1,10,1.0,938.882025943,2_ND,test,05,2,0.0,01111,ignore,0.0,0.0,3.9915706132
215,2_10_1,10,1.0,949.523138427,2_ND,test,05,2,1.0,00110,ignore,0.0,0.0,8.512948282
216,2_10_1,10,1.0,953.523353544,2_ND,test,05,2,2.0,01101,ignore,1.0,100.0,1.8498667629
217,2_10_1,10,1.0,956.851632858,2_ND,test,05,2,3.0,01011,kill,0.0,0.0,1.24528066414
218,2_10_1,10,1.0,961.21120842,2_ND,test,05,2,4.0,10000,ignore,1.0,100.0,2.24194799176
219,2_10_1,10,1.0,966.430193897,2_ND,test,05,2,5.0,01001,ignore,1.0,200.0,3.08454387998
220,2_10_1,10,1.0,970.399173934,2_ND,test,05,2,6.0,01110,kill,1.0,300.0,1.85945178812
221,2_10_1,10,1.0,974.118085721,2_ND,test,05,2,7.0,11101,ignore,1.0,400.0,1.60234543285
222,2_10_1,10,1.0,977.430731279,2_ND,test,05,2,8.0,00100,ignore,0.0,300.0,1.21152945359
223,2_10_1,10,1.0,982.540379813,2_ND,test,05,2,9.0,11011,kill,0.0,200.0,2.97290510259
224,2_10_1,10,1.0,986.774944856,2_ND,test,05,2,10.0,01011,ignore,1.0,300.0,2.11663696491
225,2_10_1,10,1.0,992.57210958,2_ND,test,05,2,11.0,11001,kill,0.0,200.0,3.71560620933
226,2_10_1,10,1.0,1002.32255285,2_ND,test,05,2,12.0,00011,kill,0.0,100.0,7.63774984266
227,2_10_1,10,1.0,1011.36991391,2_ND,test,05,2,13.0,00110,ignore,0.0,0.0,6.92540815795
228,2_10_1,10,1.0,1016.99516192,2_ND,test,05,2,14.0,00100,ignore,0.0,0.0,3.38028632738
229,2_10_1,10,1.0,1020.69842887,2_ND,test,05,2,15.0,11110,ignore,0.0,0.0,1.59247426908
230,2_10_1,10,1.0,1024.18297061,2_ND,test,05,2,16.0,10000,kill,0.0,0.0,1.37616749244
231,2_10_1,10,1.0,1028.96449419,2_ND,test,05,2,17.0,00101,kill,1.0,100.0,2.62078351054
232,2_10_1,10,1.0,1039.41809028,2_ND,test,05,2,18.0,10011,ignore,1.0,200.0,8.31580457682
233,2_10_1,10,1.0,1043.10579613,2_ND,test,05,2,19.0,11111,ignore,0.0,100.0,1.56369784592
234,2_10_1,10,1.0,1057.7939626,2_ND,test,05,2,20.0,11011,ignore,1.0,200.0,12.5597551278
235,2_10_1,10,1.0,1065.76310192,2_ND,test,05,2,21.0,11010,kill,0.0,100.0,5.87889032437
236,2_10_1,10,1.0,1074.51352425,2_ND,test,05,2,22.0,11100,kill,0.0,0.0,6.61244526112
237,2_10_1,10,1.0,1080.5763331,2_ND,test,05,2,23.0,01111,ignore,0.0,0.0,3.95501425972
238,2_10_1,10,1.0,1084.35777704,2_ND,test,05,2,24.0,01110,ignore,0.0,0.0,1.69096504225
239,2_10_1,10,1.0,1091.38935532,2_ND,test,05,2,25.0,01000,ignore,1.0,100.0,4.92012711612
240,2_10_1,10,1.0,1096.26458085,2_ND,test,05,2,26.0,11000,kill,0.0,0.0,2.78113439767
241,2_10_1,10,1.0,1101.1241677,2_ND,test,05,2,27.0,01010,kill,0.0,0.0,2.74415150481
242,2_10_1,10,1.0,1106.03065788,2_ND,test,05,2,28.0,00010,ignore,1.0,100.0,2.7787586678
243,2_10_1,10,1.0,1109.74958444,2_ND,test,05,2,29.0,10101,kill,1.0,200.0,1.61574180698
244,2_10_1,10,1.0,1113.74980408,2_ND,test,05,2,30.0,10010,ignore,1.0,300.0,1.88847206537
245,2_10_1,10,1.0,1118.06246113,2_ND,test,05,2,31.0,00001,kill,0.0,200.0,2.18516119206
246,2_10_1,10,1.0,1122.37517894,2_ND,test,05,2,32.0,11101,ignore,1.0,300.0,2.19583822376
247,2_10_1,10,1.0,1125.42222964,2_ND,test,05,2,33.0,10111,ignore,0.0,200.0,0.92113167997
248,2_10_1,10,1.0,1129.43803212,2_ND,test,05,2,34.0,00111,kill,1.0,300.0,1.91539289859
249,2_10_1,10,1.0,1133.4538383,2_ND,test,05,2,35.0,01001,ignore,1.0,400.0,1.86828267203
250,2_10_1,10,1.0,1137.20401144,2_ND,test,05,2,36.0,01101,ignore,1.0,500.0,1.63527969118
251,2_10_1,10,1.0,1142.86054585,2_ND,test,05,2,37.0,10100,kill,1.0,600.0,3.54320342972
252,2_10_1,10,1.0,1152.62666105,2_ND,test,05,2,38.0,10110,ignore,0.0,500.0,7.6439492373
253,2_10_1,10,1.0,1159.36131785,2_ND,test,05,2,39.0,00000,kill,0.0,400.0,4.603454271
254,2_10_1,10,1.0,1166.38884051,2_ND,test,05,2,40.0,10001,kill,0.0,300.0,4.82222791489
255,2_10_1,10,1.0,1174.5871337,2_ND,test,05,2,41.0,01100,kill,0.0,200.0,6.0707583246
256,2_10_1,10,1.0,1181.77495142,2_ND,test,05,2,42.0,10000,ignore,1.0,300.0,4.98740579905
257,2_10_1,10,1.0,1184.94700033,2_ND,test,05,2,43.0,00000,ignore,1.0,400.0,0.97060326789
258,2_10_1,10,1.0,1188.66590308,2_ND,test,05,2,44.0,11101,kill,0.0,300.0,1.62785404718
259,2_10_1,10,1.0,1193.30676022,2_ND,test,05,2,45.0,10001,ignore,1.0,400.0,2.50990051657
260,2_10_1,10,1.0,1196.19752262,2_ND,test,05,2,46.0,00001,ignore,1.0,500.0,0.750893207925
261,2_10_1,10,1.0,1200.1977283,2_ND,test,05,2,47.0,00111,kill,1.0,600.0,1.91722139364
262,2_10_1,10,1.0,1203.44790534,2_ND,test,05,2,48.0,10111,kill,1.0,700.0,1.15945757658
263,2_10_1,10,1.0,1207.87000812,2_ND,test,05,2,49.0,00110,ignore,0.0,600.0,2.32460343949
264,2_10_1,10,1.0,1213.32335256,2_ND,test,05,2,50.0,11010,kill,0.0,500.0,3.3275908572
265,2_10_1,10,1.0,1221.21437237,2_ND,test,05,2,51.0,01010,kill,0.0,400.0,5.76444065663
266,2_10_1,10,1.0,1224.57391262,2_ND,test,05,2,52.0,00010,ignore,1.0,500.0,1.26578000668
267,2_10_1,10,1.0,1233.04304517,2_ND,test,05,2,53.0,01111,kill,1.0,600.0,6.4001698768
268,2_10_1,10,1.0,1236.48083139,2_ND,test,05,2,54.0,00101,ignore,0.0,500.0,1.19648193284
269,2_10_1,10,1.0,1249.1376002,2_ND,test,05,2,55.0,00011,kill,0.0,400.0,10.5267334269
270,2_10_1,10,1.0,1255.55975964,2_ND,test,05,2,56.0,01101,ignore,1.0,500.0,4.28945602067
271,2_10_1,10,1.0,1264.87272829,2_ND,test,05,2,57.0,01100,kill,0.0,400.0,7.22870228168
272,2_10_1,10,1.0,1271.4042998,2_ND,test,05,2,58.0,01001,ignore,1.0,500.0,4.38289400599
273,2_10_1,10,1.0,1274.34192201,2_ND,test,05,2,59.0,11000,ignore,1.0,600.0,0.824322432563
274,2_10_1,10,1.0,1277.54520886,2_ND,test,05,2,60.0,10110,kill,1.0,700.0,1.12771385161
275,2_10_1,10,1.0,1280.52976313,2_ND,test,05,2,61.0,10011,kill,0.0,600.0,0.855919188236
276,2_10_1,10,1.0,1284.56115873,2_ND,test,05,2,62.0,10010,kill,0.0,500.0,1.95012609391
277,2_10_1,10,1.0,1291.46774209,2_ND,test,05,2,63.0,11001,ignore,1.0,600.0,4.75137311603
278,2_10_1,10,1.0,1294.81165803,2_ND,test,05,2,64.0,10101,ignore,0.0,500.0,1.20286196012
279,2_10_1,10,1.0,1301.17133705,2_ND,test,05,2,65.0,01011,kill,0.0,400.0,4.24067042629
280,2_10_1,10,1.0,1309.23420952,2_ND,test,05,2,66.0,11100,kill,0.0,300.0,5.94549040328
281,2_10_1,10,1.0,1315.40638775,2_ND,test,05,2,67.0,01000,ignore,1.0,400.0,4.07665557008
282,2_10_1,10,1.0,1320.26599594,2_ND,test,05,2,68.0,00100,ignore,0.0,300.0,2.74842716173
283,2_10_1,10,1.0,1325.0943391,2_ND,test,05,2,69.0,10100,kill,1.0,400.0,2.71475723588
284,2_10_1,10,1.0,1330.43835192,2_ND,test,05,2,70.0,01110,ignore,0.0,300.0,3.26280203113
285,2_10_1,10,1.0,1334.03227823,2_ND,test,05,2,71.0,11110,kill,1.0,400.0,1.46962723579
286,2_10_1,10,1.0,1342.50145922,2_ND,test,05,2,72.0,11111,ignore,0.0,300.0,6.34193924749
287,2_10_1,10,1.0,1347.8923142,2_ND,test,05,2,73.0,11011,ignore,1.0,400.0,3.26815491549
288,2_10_1,10,1.0,1353.09573366,2_ND,test,05,2,74.0,01101,ignore,1.0,500.0,3.075462163
289,2_10_1,10,1.0,1357.00211628,2_ND,test,05,3,0.0,00001,ignore,1.0,600.0,1.7937425566
290,2_10_1,10,1.0,1361.53360609,2_ND,test,05,3,1.0,00111,kill,0.0,500.0,2.37422404935
291,2_10_1,10,1.0,1369.78399989,2_ND,test,05,3,2.0,00110,kill,0.0,400.0,6.14575084271
292,2_10_1,10,1.0,1374.75298937,2_ND,test,05,3,3.0,01010,kill,0.0,300.0,2.87111285723
293,2_10_1,10,1.0,1380.51889192,2_ND,test,05,3,4.0,10010,ignore,0.0,200.0,3.65606353014
294,2_10_1,10,1.0,1388.26923009,2_ND,test,05,3,5.0,00100,kill,0.0,100.0,5.64835626342
295,2_10_1,10,1.0,1398.08221988,2_ND,test,05,3,6.0,00010,ignore,1.0,200.0,7.68239730726
296,2_10_1,10,1.0,1402.76997294,2_ND,test,05,3,7.0,10101,ignore,1.0,300.0,2.53396242759
297,2_10_1,10,1.0,1409.53590505,2_ND,test,05,3,8.0,10111,ignore,1.0,400.0,4.66864910999
298,2_10_1,10,1.0,1412.52043017,2_ND,test,05,3,9.0,11011,ignore,0.0,300.0,0.875118386228
299,2_10_1,10,1.0,1418.6300824,2_ND,test,05,3,10.0,11100,ignore,0.0,200.0,4.02749926823
300,2_10_1,10,1.0,1423.98973144,2_ND,test,05,3,11.0,10110,ignore,0.0,100.0,3.25350930238
301,2_10_1,10,1.0,1430.55254501,2_ND,test,05,3,12.0,11001,kill,1.0,200.0,4.45109514702
302,2_10_1,10,1.0,1441.2718156,2_ND,test,05,3,13.0,10011,kill,1.0,300.0,8.62803796406
303,2_10_1,10,1.0,1444.89699341,2_ND,test,05,3,14.0,01001,kill,0.0,200.0,1.50512114088
304,2_10_1,10,1.0,1451.53793347,2_ND,test,05,3,15.0,10001,ignore,0.0,100.0,4.53342791916
305,2_10_1,10,1.0,1461.91345849,2_ND,test,05,3,16.0,11000,kill,1.0,200.0,8.27303446019
306,2_10_1,10,1.0,1465.88234369,2_ND,test,05,3,17.0,01100,ignore,1.0,300.0,1.86730109779
307,2_10_1,10,1.0,1468.92938782,2_ND,test,05,3,18.0,10000,kill,1.0,400.0,0.950178641586
308,2_10_1,10,1.0,1471.83577783,2_ND,test,05,3,19.0,11010,kill,1.0,500.0,0.808557718085
309,2_10_1,10,1.0,1474.52338598,2_ND,test,05,3,20.0,10100,kill,1.0,600.0,0.564255343954
310,2_10_1,10,1.0,1477.30479379,2_ND,test,05,3,21.0,11101,kill,0.0,500.0,0.672491248553
311,2_10_1,10,1.0,1485.5864083,2_ND,test,05,3,22.0,00101,ignore,1.0,600.0,6.14041602162
312,2_10_1,10,1.0,1493.19619333,2_ND,test,05,3,23.0,01000,ignore,1.0,700.0,5.53272263077
313,2_10_1,10,1.0,1497.18076936,2_ND,test,05,3,24.0,00011,kill,0.0,600.0,1.82627490729
314,2_10_1,10,1.0,1501.24339182,2_ND,test,05,3,25.0,00000,ignore,1.0,700.0,1.96435953615
315,2_10_1,10,1.0,1506.75932629,2_ND,test,05,3,26.0,01011,ignore,1.0,800.0,3.41818469935
316,2_10_1,10,1.0,1512.90029488,2_ND,test,05,3,27.0,01110,ignore,1.0,900.0,4.0245557771
317,2_10_1,10,1.0,1515.97849404,2_ND,test,05,3,28.0,11111,ignore,1.0,1000.0,0.969329807711
318,2_10_1,10,1.0,1519.16621119,2_ND,test,05,3,29.0,11110,ignore,0.0,900.0,1.05369551822
319,2_10_1,10,1.0,1523.80703671,2_ND,test,05,3,30.0,01111,ignore,1.0,1000.0,2.5460734362
320,2_10_1,10,1.0,1530.8698513,2_ND,test,05,3,31.0,11011,kill,1.0,1100.0,4.96231920827
321,2_10_1,10,1.0,1546.01123781,2_ND,test,05,3,32.0,11100,kill,1.0,1200.0,13.0074231808
322,2_10_1,10,1.0,1550.19892088,2_ND,test,05,3,33.0,10101,kill,0.0,1100.0,2.08616054219
323,2_10_1,10,1.0,1558.66802757,2_ND,test,05,3,34.0,00111,kill,0.0,1000.0,6.33645745711
324,2_10_1,10,1.0,1569.0279373,2_ND,test,05,3,35.0,00100,ignore,1.0,1100.0,8.23135019211
325,2_10_1,10,1.0,1574.0125589,2_ND,test,05,3,36.0,01111,ignore,1.0,1200.0,2.91264605073
326,2_10_1,10,1.0,1580.09096865,2_ND,test,05,3,37.0,10110,kill,1.0,1300.0,3.98008648199
327,2_10_1,10,1.0,1586.7631672,2_ND,test,05,3,38.0,10111,kill,0.0,1200.0,4.5452794736
328,2_10_1,10,1.0,1593.41974307,2_ND,test,05,3,39.0,01011,ignore,1.0,1300.0,4.53399896465
329,2_10_1,10,1.0,1598.59188434,2_ND,test,05,3,40.0,11010,kill,1.0,1400.0,3.03585188615
330,2_10_1,10,1.0,1601.09200278,2_ND,test,05,3,41.0,01000,ignore,1.0,1500.0,0.422340481871
331,2_10_1,10,1.0,1606.90476718,2_ND,test,05,3,42.0,11111,kill,0.0,1400.0,3.6695116309
332,2_10_1,10,1.0,1615.54580249,2_ND,test,05,3,43.0,01101,kill,0.0,1300.0,6.47903327048
333,2_10_1,10,1.0,1622.46800975,2_ND,test,05,3,44.0,00010,ignore,1.0,1400.0,4.80686264488
334,2_10_1,10,1.0,1627.28075076,2_ND,test,05,3,45.0,01010,ignore,1.0,1500.0,2.70450304879
335,2_10_1,10,1.0,1630.85904701,2_ND,test,05,3,46.0,00000,kill,0.0,1400.0,1.46937229744
336,2_10_1,10,1.0,1633.85920834,2_ND,test,05,3,47.0,01110,ignore,1.0,1500.0,0.865911047451
337,2_10_1,10,1.0,1637.01559681,2_ND,test,05,3,48.0,11110,ignore,0.0,1400.0,1.03481324842
338,2_10_1,10,1.0,1642.23460651,2_ND,test,05,3,49.0,00001,ignore,1.0,1500.0,3.09884752264
339,2_10_1,10,1.0,1645.50038159,2_ND,test,05,3,50.0,00011,ignore,1.0,1600.0,1.14601317058
340,2_10_1,10,1.0,1650.65686283,2_ND,test,05,3,51.0,10000,kill,1.0,1700.0,3.06936499003
341,2_10_1,10,1.0,1654.82894868,2_ND,test,05,3,52.0,10100,ignore,0.0,1600.0,2.04361375321
342,2_10_1,10,1.0,1659.57913824,2_ND,test,05,3,53.0,01001,ignore,1.0,1700.0,2.63506826888
343,2_10_1,10,1.0,1662.73554764,2_ND,test,05,3,54.0,11001,kill,1.0,1800.0,1.06859648021
344,2_10_1,10,1.0,1666.00135803,2_ND,test,05,3,55.0,11101,kill,0.0,1700.0,1.1764423825
345,2_10_1,10,1.0,1674.22046913,2_ND,test,05,3,56.0,00101,ignore,1.0,1800.0,6.08943902478
346,2_10_1,10,1.0,1678.12695109,2_ND,test,05,3,57.0,11000,kill,1.0,1900.0,1.80916653222
347,2_10_1,10,1.0,1682.89278795,2_ND,test,05,3,58.0,00110,ignore,1.0,2000.0,2.63559333515
348,2_10_1,10,1.0,1685.98668696,2_ND,test,05,3,59.0,10010,kill,1.0,2100.0,0.993729173364
349,2_10_1,10,1.0,1688.92431328,2_ND,test,05,3,60.0,10011,kill,1.0,2200.0,0.857358091502
350,2_10_1,10,1.0,1692.12760999,2_ND,test,05,3,61.0,10001,kill,1.0,2300.0,1.07796556731
351,2_10_1,10,1.0,1695.9246532,2_ND,test,05,3,62.0,01100,ignore,1.0,2400.0,1.68626654072
352,2_10_1,10,1.0,1700.89362831,2_ND,test,05,3,63.0,10010,kill,1.0,2500.0,2.85084176867
353,2_10_1,10,1.0,1704.72196243,2_ND,test,05,3,64.0,11001,ignore,0.0,2400.0,1.73762122401
354,2_10_1,10,1.0,1708.94093189,2_ND,test,05,3,65.0,00110,ignore,1.0,2500.0,1.96893734223
355,2_10_1,10,1.0,1712.56611175,2_ND,test,05,3,66.0,11110,kill,1.0,2600.0,1.43395844546
356,2_10_1,10,1.0,1715.80064026,2_ND,test,05,3,67.0,01101,ignore,1.0,2700.0,1.14121860533
357,2_10_1,10,1.0,1719.11328746,2_ND,test,05,3,68.0,11011,kill,1.0,2800.0,1.20087459045
358,2_10_1,10,1.0,1722.6603281,2_ND,test,05,3,69.0,01000,ignore,1.0,2900.0,1.42662147566
359,2_10_1,10,1.0,1725.95735797,2_ND,test,05,3,70.0,01001,ignore,1.0,3000.0,1.11248939296
360,2_10_1,10,1.0,1728.97309764,2_ND,test,05,3,71.0,01111,ignore,1.0,3100.0,0.88405477603
361,2_10_1,10,1.0,1732.02017174,2_ND,test,05,3,72.0,01011,ignore,1.0,3200.0,0.959877793803
362,2_10_1,10,1.0,1735.27031881,2_ND,test,05,3,73.0,10111,kill,0.0,3100.0,1.10586304843
363,2_10_1,10,1.0,1741.14560757,2_ND,test,05,3,74.0,11101,ignore,1.0,3200.0,3.78822710286
364,2_10_1,10,1.0,1744.37459311,2_ND,test,05,3,75.0,00100,kill,0.0,3100.0,1.11239045554
365,2_10_1,10,1.0,1749.68751085,2_ND,test,05,3,76.0,10001,ignore,0.0,3000.0,3.16883733743
366,2_10_1,10,1.0,1758.58489755,2_ND,test,05,3,77.0,10000,kill,1.0,3100.0,6.79930768432
367,2_10_1,10,1.0,1761.81939486,2_ND,test,05,3,78.0,10110,kill,1.0,3200.0,1.15746240686
368,2_10_1,10,1.0,1764.72587969,2_ND,test,05,3,79.0,00111,kill,0.0,3100.0,0.747877463737
369,2_10_1,10,1.0,1769.46046506,2_ND,test,05,3,80.0,01100,ignore,1.0,3200.0,2.64787101844
370,2_10_1,10,1.0,1773.56999823,2_ND,test,05,3,81.0,01110,ignore,1.0,3300.0,2.01478478236
371,2_10_1,10,1.0,1778.38273513,2_ND,test,05,4,0.0,11111,kill,0.0,3200.0,2.72693269751
372,2_10_1,10,1.0,1787.96955642,2_ND,test,05,4,1.0,10100,kill,0.0,3100.0,7.42420346133
373,2_10_1,10,1.0,1794.88355722,2_ND,test,05,4,2.0,11000,ignore,1.0,3200.0,4.79008556651
374,2_10_1,10,1.0,1799.60249815,2_ND,test,05,4,3.0,11100,ignore,1.0,3300.0,2.61771645026
375,2_10_1,10,1.0,1802.96205688,2_ND,test,05,4,4.0,11010,ignore,1.0,3400.0,1.22940305425
376,2_10_1,10,1.0,1807.24348419,2_ND,test,05,4,5.0,00001,kill,0.0,3300.0,2.18524247675
377,2_10_1,10,1.0,1811.3999642,2_ND,test,05,4,6.0,00000,ignore,1.0,3400.0,1.972718312
378,2_10_1,10,1.0,1815.94704015,2_ND,test,05,4,7.0,10101,kill,0.0,3300.0,2.40522143305
379,2_10_1,10,1.0,1823.29118968,2_ND,test,05,4,8.0,01010,ignore,0.0,3200.0,5.24388035058
380,2_10_1,10,1.0,1829.4164498,2_ND,test,05,4,9.0,00011,ignore,0.0,3100.0,3.98834180459
381,2_10_1,10,1.0,1835.90114016,2_ND,test,05,4,10.0,00101,ignore,1.0,3200.0,4.39749446094
382,2_10_1,10,1.0,1839.54196158,2_ND,test,05,4,11.0,00010,kill,1.0,3300.0,1.51892681217
383,2_10_1,10,1.0,1842.96396297,2_ND,test,05,4,12.0,10011,kill,1.0,3400.0,1.26520567695
384,2_10_1,10,1.0,1845.91723905,2_ND,test,05,4,13.0,01011,kill,1.0,3500.0,0.865660624915
385,2_10_1,10,1.0,1848.87050486,2_ND,test,05,4,14.0,11110,kill,0.0,3400.0,0.854520106261
386,2_10_1,10,1.0,1862.24615673,2_ND,test,05,4,15.0,11111,kill,0.0,3300.0,11.2361316204
387,2_10_1,10,1.0,1870.96533536,2_ND,test,05,4,16.0,11000,ignore,1.0,3400.0,6.61756948096
388,2_10_1,10,1.0,1877.24688049,2_ND,test,05,4,17.0,01010,ignore,0.0,3300.0,4.16091618522
389,2_10_1,10,1.0,1881.12205759,2_ND,test,05,4,18.0,01100,ignore,1.0,3400.0,1.80604815584
390,2_10_1,10,1.0,1890.01310285,2_ND,test,05,4,19.0,00011,kill,1.0,3500.0,6.78535668585
391,2_10_1,10,1.0,1898.04473901,2_ND,test,05,4,20.0,11001,ignore,1.0,3600.0,5.89898036975
392,2_10_1,10,1.0,1901.82617104,2_ND,test,05,4,21.0,00111,kill,1.0,3700.0,1.67113978791
393,2_10_1,10,1.0,1905.1856916,2_ND,test,05,4,22.0,10111,kill,1.0,3800.0,1.22379399996
394,2_10_1,10,1.0,1910.56097481,2_ND,test,05,4,23.0,11100,ignore,1.0,3900.0,3.29532493966
395,2_10_1,10,1.0,1914.54554426,2_ND,test,05,4,24.0,00100,ignore,1.0,4000.0,1.819023738
396,2_10_1,10,1.0,1921.81150244,2_ND,test,05,4,25.0,01101,ignore,1.0,4100.0,5.13638750301
397,2_10_1,10,1.0,1926.46800277,2_ND,test,05,4,26.0,10010,kill,1.0,4200.0,2.54266030019
398,2_10_1,10,1.0,1935.60904116,2_ND,test,05,4,27.0,11101,kill,0.0,4100.0,7.01159086869
399,2_10_1,10,1.0,1939.84365669,2_ND,test,05,4,28.0,01110,kill,1.0,4200.0,2.14947515952
400,2_10_1,10,1.0,1946.4533354,2_ND,test,05,4,29.0,01001,ignore,1.0,4300.0,4.44868903802
401,2_10_1,10,1.0,1953.09425945,2_ND,test,05,4,30.0,11010,kill,0.0,4200.0,4.52596245386
402,2_10_1,10,1.0,1960.95400354,2_ND,test,05,4,31.0,00010,ignore,0.0,4100.0,5.76291348969
403,2_10_1,10,1.0,1964.75110217,2_ND,test,05,4,32.0,10110,kill,1.0,4200.0,1.65351209397
404,2_10_1,10,1.0,1968.18874223,2_ND,test,05,4,33.0,10000,kill,0.0,4100.0,1.36366976575
405,2_10_1,10,1.0,1975.20471016,2_ND,test,05,4,34.0,10011,ignore,0.0,4000.0,4.88845646527
406,2_10_1,10,1.0,1981.15812089,2_ND,test,05,4,35.0,01111,ignore,0.0,3900.0,3.82218398831
407,2_10_1,10,1.0,1989.23667064,2_ND,test,05,4,36.0,10101,ignore,1.0,4000.0,5.99915348972
408,2_10_1,10,1.0,1995.89323625,2_ND,test,05,4,37.0,00000,ignore,1.0,4100.0,4.54989258515
409,2_10_1,10,1.0,1998.830817,2_ND,test,05,4,38.0,10100,ignore,1.0,4200.0,0.795524661899
410,2_10_1,10,1.0,2001.56534817,2_ND,test,05,4,39.0,10001,ignore,1.0,4300.0,0.612858253044
411,2_10_1,10,1.0,2005.23739441,2_ND,test,05,4,40.0,11011,kill,0.0,4200.0,1.55940494679
412,2_10_1,10,1.0,2010.40954102,2_ND,test,05,4,41.0,01000,kill,0.0,4100.0,3.09704694355
413,2_10_1,10,1.0,2013.47218935,2_ND,test,05,4,42.0,00001,ignore,1.0,4200.0,0.914150228069
414,2_10_1,10,1.0,2021.69130414,2_ND,test,05,4,43.0,00110,kill,1.0,4300.0,6.11161660884
415,2_10_1,10,1.0,2025.30083752,2_ND,test,05,4,44.0,00101,ignore,1.0,4400.0,1.4664300379
416,2_10_1,10,1.0,2030.97301266,2_ND,test,05,4,45.0,01011,ignore,0.0,4300.0,3.56322532733
417,2_10_1,10,1.0,2036.41075126,2_ND,test,05,4,46.0,10010,ignore,0.0,4200.0,3.35075247867
418,2_10_1,10,1.0,2041.72348836,2_ND,test,05,4,47.0,01101,ignore,1.0,4300.0,3.16447752211
419,2_10_1,10,1.0,2046.36436725,2_ND,test,05,4,48.0,00010,kill,1.0,4400.0,2.49958598176
420,2_10_1,10,1.0,2051.13022465,2_ND,test,05,4,49.0,10001,ignore,1.0,4500.0,2.67318668425
421,2_10_1,10,1.0,2057.16174545,2_ND,test,05,4,50.0,00111,kill,1.0,4600.0,3.88437334634
422,2_10_1,10,1.0,2060.47439183,2_ND,test,05,4,51.0,10011,kill,1.0,4700.0,1.22449641465
423,2_10_1,10,1.0,2067.08410256,2_ND,test,05,4,52.0,01111,ignore,0.0,4600.0,4.48379047762
424,2_10_1,10,1.0,2072.31875669,2_ND,test,05,4,53.0,01110,kill,1.0,4700.0,3.14982287737
425,2_10_1,10,1.0,2077.25644458,2_ND,test,05,4,54.0,11101,ignore,1.0,4800.0,2.86020059256
426,2_10_1,10,1.0,2080.50664133,2_ND,test,05,4,55.0,11000,ignore,1.0,4900.0,1.16198930737
427,2_10_1,10,1.0,2085.2099715,2_ND,test,05,4,56.0,11010,kill,0.0,4800.0,2.50303483377
428,2_10_1,10,1.0,2090.81964405,2_ND,test,05,4,57.0,10100,ignore,1.0,4900.0,3.48123534669
429,2_10_1,10,1.0,2099.78883304,2_ND,test,05,4,58.0,11111,ignore,1.0,5000.0,6.82661113034
430,2_10_1,10,1.0,2105.13282165,2_ND,test,05,4,59.0,00110,kill,1.0,5100.0,3.25520109135
431,2_10_1,10,1.0,2109.16426282,2_ND,test,05,4,60.0,00100,ignore,1.0,5200.0,1.9298743002
432,2_10_1,10,1.0,2117.47716906,2_ND,test,05,4,61.0,11110,kill,0.0,5100.0,6.20067219977
433,2_10_1,10,1.0,2124.0243189,2_ND,test,05,4,62.0,01100,ignore,1.0,5200.0,4.45741359499
434,2_10_1,10,1.0,2129.02459149,2_ND,test,05,4,63.0,00000,ignore,1.0,5300.0,2.83914949938
435,2_10_1,10,1.0,2134.02485628,2_ND,test,05,4,64.0,00011,kill,1.0,5400.0,2.90931214676
436,2_10_1,10,1.0,2138.36878085,2_ND,test,05,4,65.0,11001,ignore,1.0,5500.0,2.18830132646
437,2_10_1,10,1.0,2141.83766215,2_ND,test,05,4,66.0,11100,ignore,1.0,5600.0,1.34050075476
438,2_10_1,10,1.0,2145.82226568,2_ND,test,05,4,67.0,10110,kill,1.0,5700.0,1.87113502578
439,2_10_1,10,1.0,2149.36930427,2_ND,test,05,4,68.0,10111,kill,1.0,5800.0,1.40721660277
440,2_10_1,10,1.0,2152.76008125,2_ND,test,05,4,69.0,01001,ignore,1.0,5900.0,1.31075753638
441,2_10_1,10,1.0,2156.72905965,2_ND,test,05,4,70.0,00101,ignore,1.0,6000.0,1.82453057064
442,2_10_1,10,1.0,2159.72922181,2_ND,test,05,4,71.0,10000,ignore,1.0,6100.0,0.860978134007
443,2_10_1,10,1.0,2162.82312903,2_ND,test,05,5,0.0,01000,ignore,1.0,6200.0,1.00551832744
444,2_10_1,10,1.0,2169.35462623,2_ND,test,05,5,1.0,11011,kill,0.0,6100.0,4.43154412589
445,2_10_1,10,1.0,2172.96420764,2_ND,test,05,5,2.0,10101,ignore,0.0,6000.0,1.50502220345
446,2_10_1,10,1.0,2182.87096671,2_ND,test,05,5,3.0,01010,ignore,1.0,6100.0,7.78602133189
