,unique_id,pair_id,sbj_id,wall_time,condition,block,rule_id,rule_num,trial,stimulus,choice,correct,points,reaction_time
0,3_24_1,24,1.0,18.5518601586,3_D,training,05,1_A,1.0,00011,ignore,1.0,100.0,3.11101264844
1,3_24_1,24,1.0,24.3021360626,3_D,training,05,1_A,2.0,01101,kill,0.0,0.0,3.61583844169
2,3_24_1,24,1.0,28.3960726545,3_D,training,05,1_A,3.0,10000,ignore,0.0,0.0,1.94903386314
3,3_24_1,24,1.0,33.5837896453,3_D,training,05,1_A,4.0,11111,ignore,1.0,100.0,3.05417210697
4,3_24_1,24,1.0,36.9501503079,3_D,training,05,1_A,5.0,11011,ignore,1.0,200.0,1.24251290839
5,3_24_1,24,1.0,40.8721794214,3_D,training,05,1_A,6.0,11000,ignore,0.0,100.0,1.793061942
6,3_24_1,24,1.0,44.9041913345,3_D,training,05,1_A,7.0,00000,kill,1.0,200.0,1.88925194993
7,3_24_1,24,1.0,48.4512277846,3_D,training,05,1_A,8.0,00001,ignore,1.0,300.0,1.37995268019
8,3_24_1,24,1.0,54.0296327727,3_D,training,05,1_A,9.0,01110,ignore,0.0,200.0,3.43612290578
9,3_24_1,24,1.0,57.3891472331,3_D,training,05,1_A,10.0,00110,kill,1.0,300.0,1.23299442291
10,3_24_1,24,1.0,60.404971178,3_D,training,05,1_A,11.0,01011,ignore,1.0,400.0,0.91205840536
11,3_24_1,24,1.0,65.2177147488,3_D,training,05,1_A,12.0,11010,kill,1.0,500.0,2.69289269526
12,3_24_1,24,1.0,68.6397276657,3_D,training,05,1_A,13.0,01001,ignore,1.0,600.0,1.28843563989
13,3_24_1,24,1.0,72.5774123434,3_D,training,05,1_A,14.0,01111,ignore,1.0,700.0,1.78814169515
14,3_24_1,24,1.0,75.9525570306,3_D,training,05,1_A,15.0,10101,ignore,1.0,800.0,1.2602586393
15,3_24_1,24,1.0,79.9996792747,3_D,training,05,1_A,16.0,11100,kill,0.0,700.0,1.94726410093
16,3_24_1,24,1.0,83.4713189796,3_D,training,05,1_A,17.0,10011,ignore,1.0,800.0,1.36661211129
17,3_24_1,24,1.0,87.8309405622,3_D,training,05,1_A,18.0,11110,kill,0.0,700.0,2.2897249556
18,3_24_1,24,1.0,92.4248763524,3_D,training,05,1_A,19.0,00100,ignore,0.0,600.0,2.4702365317
19,3_24_1,24,1.0,96.3625735383,3_D,training,05,1_A,20.0,00111,ignore,1.0,700.0,1.84374295407
20,3_24_1,24,1.0,99.956495858,3_D,training,05,1_A,21.0,01000,ignore,0.0,600.0,1.5158308405
21,3_24_1,24,1.0,102.925389352,3_D,training,05,1_A,22.0,10001,ignore,1.0,700.0,0.888684907598
22,3_24_1,24,1.0,105.800518164,3_D,training,05,1_A,23.0,10111,ignore,1.0,800.0,0.800258376303
23,3_24_1,24,1.0,110.628861493,3_D,training,05,1_A,24.0,10010,kill,1.0,900.0,2.74657729977
24,3_24_1,24,1.0,113.707157915,3_D,training,05,1_A,25.0,10100,ignore,1.0,1000.0,0.97271397429
25,3_24_1,24,1.0,116.660387186,3_D,training,05,1_A,26.0,00101,ignore,1.0,1100.0,0.855389131197
26,3_24_1,24,1.0,120.58247403,3_D,training,05,1_A,27.0,10110,ignore,1.0,1200.0,1.83144089369
27,3_24_1,24,1.0,123.738846216,3_D,training,05,1_A,28.0,11101,ignore,1.0,1300.0,1.07913319497
28,3_24_1,24,1.0,126.832754264,3_D,training,05,1_A,29.0,00010,kill,1.0,1400.0,0.998349547601
29,3_24_1,24,1.0,129.614122882,3_D,training,05,1_A,30.0,11001,ignore,1.0,1500.0,0.712243335569
30,3_24_1,24,1.0,132.989302528,3_D,training,05,1_A,31.0,01100,ignore,0.0,1400.0,1.30346835548
31,3_24_1,24,1.0,136.67698921,3_D,training,05,1_A,32.0,01010,kill,1.0,1500.0,1.61344358586
32,3_24_1,24,1.0,139.614620648,3_D,training,05,1_A,33.0,11011,ignore,1.0,1600.0,0.871464204009
33,3_24_1,24,1.0,142.255345448,3_D,training,05,1_A,34.0,00111,ignore,1.0,1700.0,0.591712522367
34,3_24_1,24,1.0,145.693038305,3_D,training,05,1_A,35.0,11010,kill,1.0,1800.0,1.38829057584
35,3_24_1,24,1.0,148.505644284,3_D,training,05,1_A,36.0,11110,ignore,1.0,1900.0,0.776797641258
36,3_24_1,24,1.0,151.318273035,3_D,training,05,1_A,37.0,11001,ignore,1.0,2000.0,0.756939292794
37,3_24_1,24,1.0,154.137185116,3_D,training,05,1_A,38.0,01101,ignore,1.0,2100.0,0.76144644545
38,3_24_1,24,1.0,156.918555979,3_D,training,05,1_A,39.0,11101,ignore,1.0,2200.0,0.727124668811
39,3_24_1,24,1.0,160.82496994,3_D,training,05,1_A,40.0,00010,kill,1.0,2300.0,1.83731786411
40,3_24_1,24,1.0,163.700146539,3_D,training,05,1_A,41.0,01001,ignore,1.0,2400.0,0.815043171229
41,3_24_1,24,1.0,167.762842242,3_D,training,05,1_A,42.0,10000,ignore,0.0,2300.0,2.00900083485
42,3_24_1,24,1.0,170.981734373,3_D,training,05,1_A,43.0,01110,ignore,0.0,2200.0,1.16362731335
43,3_24_1,24,1.0,175.247534504,3_D,training,05,1_A,44.0,00000,kill,1.0,2300.0,2.21631702798
44,3_24_1,24,1.0,178.747706574,3_D,training,05,1_A,45.0,11111,ignore,1.0,2400.0,1.44222662899
45,3_24_1,24,1.0,182.169731999,3_D,training,05,1_A,46.0,10110,ignore,1.0,2500.0,1.37129470069
46,3_24_1,24,1.0,186.107423091,3_D,training,05,1_A,47.0,10111,ignore,1.0,2600.0,1.87920907858
47,3_24_1,24,1.0,189.701369465,3_D,training,05,1_A,48.0,10010,kill,1.0,2700.0,1.54332373403
48,3_24_1,24,1.0,192.967143938,3_D,training,05,1_A,49.0,00110,ignore,0.0,2600.0,1.22872813495
49,3_24_1,24,1.0,196.107900972,3_D,training,05,1_A,50.0,00100,ignore,0.0,2500.0,1.06194520537
50,3_24_1,24,1.0,199.389324915,3_D,training,05,1_A,51.0,01010,kill,1.0,2600.0,1.2395378605
51,3_24_1,24,1.0,202.373845108,3_D,training,05,1_A,52.0,00001,ignore,1.0,2700.0,0.93743130465
52,3_24_1,24,1.0,205.202090295,3_D,training,05,1_A,53.0,10101,ignore,1.0,2800.0,0.775506080471
53,3_24_1,24,1.0,208.077214937,3_D,training,05,1_A,54.0,00011,ignore,1.0,2900.0,0.844531938307
54,3_24_1,24,1.0,211.030479167,3_D,training,05,1_A,55.0,10011,ignore,1.0,3000.0,0.902755447279
55,3_24_1,24,1.0,213.71813089,3_D,training,05,1_A,56.0,01111,ignore,1.0,3100.0,0.630440423191
56,3_24_1,24,1.0,216.890250047,3_D,training,05,1_A,57.0,10100,ignore,1.0,3200.0,1.12893574044
57,3_24_1,24,1.0,219.754234296,3_D,training,05,1_A,58.0,00101,ignore,1.0,3300.0,0.798900425378
58,3_24_1,24,1.0,222.863773853,3_D,training,05,1_A,59.0,11100,ignore,1.0,3400.0,1.09178548737
59,3_24_1,24,1.0,226.473395034,3_D,training,05,1_A,60.0,01000,kill,1.0,3500.0,1.58878911125
60,3_24_1,24,1.0,229.256246687,3_D,training,05,1_A,61.0,01011,ignore,1.0,3600.0,0.728974933073
61,3_24_1,24,1.0,231.975138337,3_D,training,05,1_A,62.0,10001,ignore,1.0,3700.0,0.663358064461
62,3_24_1,24,1.0,235.022167891,3_D,training,05,1_A,63.0,11000,kill,1.0,3800.0,1.00033355431
63,3_24_1,24,1.0,238.303583175,3_D,training,05,1_A,64.0,01100,ignore,0.0,3700.0,1.26904811617
64,3_24_1,24,1.0,241.631830447,3_D,training,05,1_A,65.0,10100,kill,0.0,3600.0,1.27764002626
65,3_24_1,24,1.0,246.81960164,3_D,training,05,1_A,66.0,10101,ignore,1.0,3700.0,3.13425240376
66,3_24_1,24,1.0,251.741702275,3_D,training,05,1_A,67.0,01000,kill,1.0,3800.0,2.90790854069
67,3_24_1,24,1.0,255.116845038,3_D,training,05,1_A,68.0,01111,ignore,1.0,3900.0,1.34679706075
68,3_24_1,24,1.0,260.070227295,3_D,training,05,1_A,69.0,00110,ignore,0.0,3800.0,2.92048899062
69,3_24_1,24,1.0,263.414117301,3_D,training,05,1_A,70.0,01010,kill,1.0,3900.0,1.30238815266
70,3_24_1,24,1.0,266.67989434,3_D,training,05,1_A,71.0,01001,ignore,1.0,4000.0,1.21362678415
71,3_24_1,24,1.0,269.43002239,3_D,training,05,1_A,72.0,00111,ignore,1.0,4100.0,0.720723633253
72,3_24_1,24,1.0,272.148931359,3_D,training,05,1_A,73.0,11111,ignore,1.0,4200.0,0.680461382589
73,3_24_1,24,1.0,276.274087673,3_D,training,05,1_A,74.0,11010,kill,1.0,4300.0,2.09846234669
74,3_24_1,24,1.0,279.305479945,3_D,training,05,1_A,75.0,00010,kill,1.0,4400.0,1.00944343576
75,3_24_1,24,1.0,282.008759329,3_D,training,05,1_A,76.0,00011,ignore,1.0,4500.0,0.669706180345
76,3_24_1,24,1.0,284.96204633,3_D,training,05,1_A,77.0,00001,ignore,1.0,4600.0,0.944141840123
77,3_24_1,24,1.0,287.680883136,3_D,training,05,1_A,78.0,10011,ignore,1.0,4700.0,0.670208756891
78,3_24_1,24,1.0,292.493636008,3_D,training,05,1_A,79.0,10010,kill,1.0,4800.0,2.77526553649
79,3_24_1,24,1.0,295.134372676,3_D,training,05,1_A,80.0,00101,ignore,1.0,4900.0,0.611594604502
80,3_24_1,24,1.0,298.462650095,3_D,training,05,1_A,81.0,01100,ignore,0.0,4800.0,1.28776981417
81,3_24_1,24,1.0,301.806585324,3_D,training,05,1_A,82.0,11110,ignore,1.0,4900.0,1.36171046652
82,3_24_1,24,1.0,305.197323996,3_D,training,05,1_A,83.0,00000,kill,1.0,5000.0,1.35946121998
83,3_24_1,24,1.0,310.135091421,3_D,training,05,1_A,84.0,11100,ignore,1.0,5100.0,2.90959523505
84,3_24_1,24,1.0,313.150840316,3_D,training,05,1_A,85.0,11101,ignore,1.0,5200.0,1.01280271257
85,3_24_1,24,1.0,315.963474841,3_D,training,05,1_A,86.0,01101,ignore,1.0,5300.0,0.809777503237
86,3_24_1,24,1.0,318.854218805,3_D,training,05,1_A,87.0,11001,ignore,1.0,5400.0,0.870598245697
87,3_24_1,24,1.0,322.401254613,3_D,training,05,1_A,88.0,10110,ignore,1.0,5500.0,1.53684893165
88,3_24_1,24,1.0,325.229537966,3_D,training,05,1_A,89.0,01110,ignore,0.0,5400.0,0.799930274319
89,3_24_1,24,1.0,327.885900371,3_D,training,05,1_A,90.0,11011,ignore,1.0,5500.0,0.66148182145
90,3_24_1,24,1.0,330.557926678,3_D,training,05,1_A,91.0,10001,ignore,1.0,5600.0,0.631415748831
91,3_24_1,24,1.0,334.011261307,3_D,training,05,1_A,92.0,00100,kill,1.0,5700.0,1.4183508754
92,3_24_1,24,1.0,336.573832087,3_D,training,05,1_A,93.0,10111,ignore,1.0,5800.0,0.534152273317
93,3_24_1,24,1.0,339.573981866,3_D,training,05,1_A,94.0,11000,kill,1.0,5900.0,0.990169448798
94,3_24_1,24,1.0,342.120988488,3_D,training,05,1_A,95.0,01011,ignore,1.0,6000.0,0.539558418991
95,3_24_1,24,1.0,345.77741632,3_D,training,05,1_A,96.0,10000,kill,1.0,6100.0,1.60229998528
96,3_24_1,24,1.0,348.98070709,3_D,training,05,1_A,97.0,00100,kill,1.0,6200.0,1.1574190337
97,3_24_1,24,1.0,351.668315515,3_D,training,05,1_A,98.0,10101,ignore,1.0,6300.0,0.65119455742
98,3_24_1,24,1.0,354.355947033,3_D,training,05,1_A,99.0,00011,ignore,1.0,6400.0,0.661651164409
99,3_24_1,24,1.0,356.981050908,3_D,training,05,1_A,100.0,00101,ignore,1.0,6500.0,0.608062456762
100,3_24_1,24,1.0,359.606224059,3_D,training,05,1_A,101.0,11001,ignore,1.0,6600.0,0.605096068453
101,3_24_1,24,1.0,362.746982376,3_D,training,05,1_A,102.0,01110,kill,1.0,6700.0,1.12222680859
102,3_24_1,24,1.0,365.340831249,3_D,training,05,1_A,103.0,10011,ignore,1.0,6800.0,0.594590069767
103,3_24_1,24,1.0,369.075427214,3_D,training,05,1_A,104.0,10110,ignore,1.0,6900.0,1.73681442161
104,3_24_1,24,1.0,372.106796714,3_D,training,05,1_A,105.0,11000,kill,1.0,7000.0,1.00800851077
105,3_24_1,24,1.0,375.104261702,3_D,training,05,1_A,106.0,00110,kill,1.0,7100.0,0.988554596908
106,3_24_1,24,1.0,378.510641184,3_D,training,05,1_A,107.0,01010,kill,1.0,7200.0,1.37748309537
107,3_24_1,24,1.0,381.417047769,3_D,training,05,1_A,108.0,10010,kill,1.0,7300.0,0.903365146076
108,3_24_1,24,1.0,384.229699291,3_D,training,05,1_A,109.0,00000,kill,1.0,7400.0,0.750887527089
109,3_24_1,24,1.0,386.919858124,3_D,training,05,1_A,110.0,00010,kill,1.0,7500.0,0.653103193686
110,3_24_1,24,1.0,389.795017725,3_D,training,05,1_A,111.0,01000,kill,1.0,7600.0,0.872352292368
111,3_24_1,24,1.0,392.701401217,3_D,training,05,1_A,112.0,00001,ignore,1.0,7700.0,0.873799404926
112,3_24_1,24,1.0,395.295270617,3_D,training,05,1_A,113.0,01001,ignore,1.0,7800.0,0.596769077463
113,3_24_1,24,1.0,397.951648416,3_D,training,05,1_A,114.0,11101,ignore,1.0,7900.0,0.617395242297
114,3_24_1,24,1.0,400.670518898,3_D,training,05,1_A,115.0,01101,ignore,1.0,8000.0,0.685052244548
115,3_24_1,24,1.0,403.951927126,3_D,training,05,1_A,116.0,01100,kill,1.0,8100.0,1.29564265813
116,3_24_1,24,1.0,407.155203143,3_D,training,05,1_A,117.0,11110,ignore,1.0,8200.0,1.20141933775
117,3_24_1,24,1.0,410.092861521,3_D,training,05,1_A,118.0,10001,ignore,1.0,8300.0,0.942760155526
118,3_24_1,24,1.0,412.764849341,3_D,training,05,1_A,119.0,01011,ignore,1.0,8400.0,0.662995965597
119,3_24_1,24,1.0,415.452456162,3_D,training,05,1_A,120.0,11011,ignore,1.0,8500.0,0.68211375934
120,3_24_1,24,1.0,418.499486679,3_D,training,05,1_A,121.0,10000,kill,1.0,8600.0,1.05270382654
121,3_24_1,24,1.0,421.202712502,3_D,training,05,1_A,122.0,00111,ignore,1.0,8700.0,0.695331490446
122,3_24_1,24,1.0,424.874766712,3_D,training,05,1_A,123.0,10100,ignore,1.0,8800.0,1.66606787253
123,3_24_1,24,1.0,427.640548723,3_D,training,05,1_A,124.0,11111,ignore,1.0,8900.0,0.772090997466
124,3_24_1,24,1.0,430.781306718,3_D,training,05,1_A,125.0,11100,ignore,1.0,9000.0,1.13910754336
125,3_24_1,24,1.0,433.468924765,3_D,training,05,1_A,126.0,01111,ignore,1.0,9100.0,0.699889959149
126,3_24_1,24,1.0,436.172178812,3_D,training,05,1_A,127.0,10111,ignore,1.0,9200.0,0.693096355823
127,3_24_1,24,1.0,439.2348062,3_D,training,05,1_A,128.0,11010,kill,1.0,9300.0,1.06353087125
128,3_24_1,24,1.0,442.002542069,3_D,training,05,1_A,129.0,10001,ignore,1.0,9400.0,0.753484119126
129,3_24_1,24,1.0,445.018308604,3_D,training,05,1_A,130.0,10101,ignore,1.0,9500.0,1.00880904112
130,3_24_1,24,1.0,447.690307649,3_D,training,05,1_A,131.0,11101,ignore,1.0,9600.0,0.686697244617
131,3_24_1,24,1.0,450.299784825,3_D,training,05,1_A,132.0,10011,ignore,1.0,9700.0,0.567783528383
132,3_24_1,24,1.0,453.815582952,3_D,training,05,1_A,133.0,00100,kill,1.0,9800.0,1.43022091879
133,3_24_1,24,1.0,456.740599301,3_D,training,05,1_A,134.0,00010,kill,1.0,9900.0,0.91951109918
134,3_24_1,24,1.0,459.459482933,3_D,training,05,1_A,135.0,01000,kill,1.0,10000.0,0.695790448351
135,3_24_1,24,1.0,462.022122669,3_D,training,05,1_A,136.0,01101,ignore,1.0,10100.0,0.594234385409
136,3_24_1,24,1.0,465.053500829,3_D,training,05,1_A,137.0,01100,kill,1.0,10200.0,1.0160635267
137,3_24_1,24,1.0,468.725560812,3_D,training,05,1_A,138.0,01110,kill,1.0,10300.0,1.67690518045
138,3_24_1,24,1.0,471.663212455,3_D,training,05,1_A,139.0,10000,kill,1.0,10400.0,0.918319283962
139,3_24_1,24,1.0,474.585229381,3_D,training,05,1_A,140.0,11110,ignore,1.0,10500.0,0.927415053499
140,3_24_1,24,1.0,477.319715016,3_D,training,05,1_A,141.0,11010,kill,1.0,10600.0,0.736321787543
141,3_24_1,24,1.0,479.944846153,3_D,training,05,1_A,142.0,11011,ignore,1.0,10700.0,0.616571940449
142,3_24_1,24,1.0,483.163732511,3_D,training,05,1_A,143.0,00110,kill,1.0,10800.0,1.22173119179
143,3_24_1,24,1.0,486.992038636,3_D,training,05,1_A,144.0,00000,kill,1.0,10900.0,1.83434570275
144,3_24_1,24,1.0,490.273443015,3_D,training,05,1_A,145.0,10100,ignore,1.0,11000.0,1.302688993
145,3_24_1,24,1.0,493.101695258,3_D,training,05,1_A,146.0,01011,ignore,1.0,11100.0,0.823964786928
146,3_24_1,24,1.0,496.351869652,3_D,training,05,1_A,147.0,00011,ignore,1.0,11200.0,1.26967577559
147,3_24_1,24,1.0,499.320739413,3_D,training,05,1_A,148.0,10010,kill,1.0,11300.0,0.976085438655
148,3_24_1,24,1.0,502.367751328,3_D,training,05,1_A,149.0,10111,ignore,1.0,11400.0,1.07180718765
149,3_24_1,24,1.0,505.336681385,3_D,training,05,1_A,150.0,01001,ignore,1.0,11500.0,0.953783804848
150,3_24_1,24,1.0,507.930522882,3_D,training,05,1_A,151.0,01111,ignore,1.0,11600.0,0.585582178963
151,3_24_1,24,1.0,511.479249875,3_D,training,05,1_A,152.0,11100,ignore,1.0,11700.0,1.57659032442
152,3_24_1,24,1.0,514.510636374,3_D,training,05,1_A,153.0,01010,kill,1.0,11800.0,1.03107571587
153,3_24_1,24,1.0,517.213862838,3_D,training,05,1_A,154.0,11111,ignore,1.0,11900.0,0.73241856063
154,3_24_1,24,1.0,520.01090883,3_D,training,05,1_A,155.0,00101,ignore,1.0,12000.0,0.747483348744
155,3_24_1,24,1.0,523.011026857,3_D,training,05,1_A,156.0,10110,ignore,1.0,12100.0,0.994754537702
156,3_24_1,24,1.0,526.276815762,3_D,training,05,1_A,157.0,00001,ignore,1.0,12200.0,1.26494603957
157,3_24_1,24,1.0,529.480071252,3_D,training,05,1_A,158.0,11001,ignore,1.0,12300.0,1.22026130773
158,3_24_1,24,1.0,532.718811469,3_D,training,05,1_A,159.0,11000,kill,1.0,12400.0,1.28214749964
159,3_24_1,24,1.0,535.375235452,3_D,training,05,1_A,160.0,00111,ignore,1.0,12500.0,0.618681992205
160,3_24_1,24,1.0,538.219111508,3_D,training,05,1_A,161.0,01010,kill,1.0,12600.0,0.839761149454
161,3_24_1,24,1.0,541.438029938,3_D,training,05,1_A,162.0,10100,ignore,1.0,12700.0,1.24488787925
162,3_24_1,24,1.0,544.01632139,3_D,training,05,1_A,163.0,01000,kill,1.0,12800.0,0.626295048675
163,3_24_1,24,1.0,546.89138798,3_D,training,05,1_A,164.0,11000,kill,1.0,12900.0,0.880042002186
164,3_24_1,24,1.0,549.532138118,3_D,training,05,1_A,165.0,00010,kill,1.0,13000.0,0.608914944612
165,3_24_1,24,1.0,552.329140812,3_D,training,05,1_A,166.0,11101,ignore,1.0,13100.0,0.823520261661
166,3_24_1,24,1.0,555.032366635,3_D,training,05,1_A,167.0,10011,ignore,1.0,13200.0,0.733888123959
167,3_24_1,24,1.0,558.29815073,3_D,training,05,1_A,168.0,00100,kill,1.0,13300.0,1.27028868164
168,3_24_1,24,1.0,562.048336831,3_D,training,05,1_A,169.0,11010,kill,1.0,13400.0,1.79408954586
169,3_24_1,24,1.0,565.095398779,3_D,training,05,1_A,170.0,00101,ignore,1.0,13500.0,1.03168573539
170,3_24_1,24,1.0,568.376777179,3_D,training,05,1_A,171.0,11100,ignore,1.0,13600.0,1.28379025463
171,3_24_1,24,1.0,571.298785125,3_D,training,05,1_A,172.0,11111,ignore,1.0,13700.0,0.95943851263
172,3_24_1,24,1.0,574.705188341,3_D,training,05,1_A,173.0,10000,kill,1.0,13800.0,1.38233053757
173,3_24_1,24,1.0,577.955359528,3_D,training,05,1_A,174.0,01110,kill,1.0,13900.0,1.25179694368
174,3_24_1,24,1.0,580.877367474,3_D,training,05,1_A,175.0,10110,ignore,1.0,14000.0,0.943980836022
175,3_24_1,24,1.0,585.361959029,3_D,training,05,1_A,176.0,00001,ignore,1.0,14100.0,2.47151109405
176,3_24_1,24,1.0,588.924618329,3_D,training,05,1_A,177.0,10010,kill,1.0,14200.0,1.61063435295
177,3_24_1,24,1.0,592.534153556,3_D,training,05,1_A,178.0,00110,kill,1.0,14300.0,1.57426089656
178,3_24_1,24,1.0,596.346853508,3_D,training,05,1_A,179.0,01101,ignore,1.0,14400.0,1.82855276236
179,3_24_1,24,1.0,600.097027101,3_D,training,05,1_A,180.0,10101,ignore,1.0,14500.0,1.79412033549
180,3_24_1,24,1.0,602.831544488,3_D,training,05,1_A,181.0,00011,ignore,1.0,14600.0,0.752303529293
181,3_24_1,24,1.0,605.355509884,3_D,training,05,1_A,182.0,01001,ignore,1.0,14700.0,0.586790992622
182,3_24_1,24,1.0,608.480682555,3_D,training,05,1_A,183.0,01100,kill,1.0,14800.0,1.11324970742
183,3_24_1,24,1.0,611.371480401,3_D,training,05,1_A,184.0,11110,ignore,1.0,14900.0,0.914754742966
184,3_24_1,24,1.0,613.92561803,3_D,training,05,1_A,185.0,00111,ignore,1.0,15000.0,0.564394103401
185,3_24_1,24,1.0,616.628874642,3_D,training,05,1_A,186.0,01011,ignore,1.0,15100.0,0.732946795201
186,3_24_1,24,1.0,619.441502752,3_D,training,05,1_A,187.0,00000,kill,1.0,15200.0,0.797264726343
187,3_24_1,24,1.0,622.03589301,3_D,training,05,1_A,188.0,11011,ignore,1.0,15300.0,0.610923326447
188,3_24_1,24,1.0,624.739174318,3_D,training,05,1_A,189.0,11001,ignore,1.0,15400.0,0.721428587465
189,3_24_1,24,1.0,627.723622669,3_D,training,05,1_A,190.0,01111,kill,0.0,15300.0,1.04441981274
190,3_24_1,24,1.0,630.661280406,3_D,training,05,1_A,191.0,10111,ignore,1.0,15400.0,0.920051842038
191,3_24_1,24,1.0,633.302055881,3_D,training,05,1_A,192.0,10001,ignore,1.0,15500.0,0.632888198688
192,3_24_1,24,1.0,635.895923036,3_D,training,05,1_A,193.0,11101,ignore,1.0,15600.0,0.638695250989
193,3_24_1,24,1.0,639.114818375,3_D,training,05,1_A,194.0,00110,kill,1.0,15700.0,1.2440126199
194,3_24_1,24,1.0,641.849428451,3_D,training,05,1_A,195.0,01111,ignore,1.0,15800.0,0.810672326827
195,3_24_1,24,1.0,644.490174741,3_D,training,05,1_A,196.0,01001,ignore,1.0,15900.0,0.64022062052
196,3_24_1,24,1.0,647.271609428,3_D,training,05,1_A,197.0,11000,kill,1.0,16000.0,0.822192458914
197,3_24_1,24,1.0,650.490521766,3_D,training,05,1_A,198.0,10110,ignore,1.0,16100.0,1.27737799369
198,3_24_1,24,1.0,653.350053705,3_D,training,05,1_A,199.0,11110,ignore,1.0,16200.0,0.881114186867
199,3_24_1,24,1.0,656.803318416,3_D,training,05,1_A,200.0,00100,kill,1.0,16300.0,1.5096536712
200,3_24_1,24,1.0,660.006604696,3_D,training,05,1_A,201.0,10000,kill,1.0,16400.0,1.23193602941
201,3_24_1,24,1.0,662.694232044,3_D,training,05,1_A,202.0,00000,kill,1.0,16500.0,0.708823762409
202,3_24_1,24,1.0,665.350638067,3_D,training,05,1_A,203.0,11001,ignore,1.0,16600.0,0.737146372292
203,3_24_1,24,1.0,668.319485698,3_D,training,05,1_A,204.0,11111,ignore,1.0,16700.0,1.03626665486
204,3_24_1,24,1.0,671.225857964,3_D,training,05,1_A,205.0,10111,ignore,1.0,16800.0,0.937806873977
205,3_24_1,24,1.0,674.22603725,3_D,training,05,1_A,206.0,01100,kill,1.0,16900.0,1.06003239967
206,3_24_1,24,1.0,676.929299315,3_D,training,05,1_A,207.0,10001,ignore,1.0,17000.0,0.736864454753
207,3_24_1,24,1.0,679.476295674,3_D,training,05,1_A,208.0,11011,ignore,1.0,17100.0,0.645276854891
208,3_24_1,24,1.0,682.601414463,3_D,training,05,1_A,209.0,00010,kill,1.0,17200.0,1.19593076567
209,3_24_1,24,1.0,685.195315615,3_D,training,05,1_A,210.0,10010,kill,1.0,17300.0,0.627109049489
210,3_24_1,24,1.0,688.570476017,3_D,training,05,1_A,211.0,11100,ignore,1.0,17400.0,1.4509279064
211,3_24_1,24,1.0,691.539344495,3_D,training,05,1_A,212.0,00001,ignore,1.0,17500.0,1.00768554039
212,3_24_1,24,1.0,694.055106059,3_D,training,05,1_A,213.0,11010,kill,1.0,17600.0,0.625287009054
213,3_24_1,24,1.0,696.805237957,3_D,training,05,1_A,214.0,01101,ignore,1.0,17700.0,0.759095849718
214,3_24_1,24,1.0,699.570994951,3_D,training,05,1_A,215.0,10011,ignore,1.0,17800.0,0.800214757662
215,3_24_1,24,1.0,702.68050436,3_D,training,05,1_A,216.0,10100,ignore,1.0,17900.0,1.16792246658
216,3_24_1,24,1.0,705.946286209,3_D,training,05,1_A,217.0,01011,ignore,1.0,18000.0,1.31252916596
217,3_24_1,24,1.0,708.524506139,3_D,training,05,1_A,218.0,00011,ignore,1.0,18100.0,0.660689950682
218,3_24_1,24,1.0,711.493413746,3_D,training,05,1_A,219.0,00111,ignore,1.0,18200.0,0.968626009603
219,3_24_1,24,1.0,714.165431072,3_D,training,05,1_A,220.0,00101,ignore,1.0,18300.0,0.68786757124
220,3_24_1,24,1.0,717.478045551,3_D,training,05,1_A,221.0,01000,kill,1.0,18400.0,1.38910489738
221,3_24_1,24,1.0,720.368849491,3_D,training,05,1_A,222.0,01010,kill,1.0,18500.0,0.933101833811
222,3_24_1,24,1.0,723.594081079,3_D,training,05,1_A,223.0,01110,kill,1.0,18600.0,1.33740654466
223,3_24_1,24,1.0,726.64108273,3_D,training,05,1_A,224.0,10101,ignore,1.0,18700.0,1.10004352242
224,3_24_1,24,1.0,729.860009821,3_D,training,05,1_A,225.0,00100,kill,1.0,18800.0,1.22998762321
225,3_24_1,24,1.0,733.016413117,3_D,training,05,1_A,226.0,11010,kill,1.0,18900.0,1.24529327603
226,3_24_1,24,1.0,735.985251126,3_D,training,05,1_A,227.0,00000,kill,1.0,19000.0,1.04410582267
227,3_24_1,24,1.0,739.032309225,3_D,training,05,1_A,228.0,00101,ignore,1.0,19100.0,1.06501101852
228,3_24_1,24,1.0,741.704301536,3_D,training,05,1_A,229.0,10111,ignore,1.0,19200.0,0.717904778583
229,3_24_1,24,1.0,745.391983086,3_D,training,05,1_A,230.0,00110,kill,1.0,19300.0,1.72038013646
230,3_24_1,24,1.0,748.126457817,3_D,training,05,1_A,231.0,01101,ignore,1.0,19400.0,0.819854050744
231,3_24_1,24,1.0,750.860977128,3_D,training,05,1_A,232.0,01001,ignore,1.0,19500.0,0.729146200383
232,3_24_1,24,1.0,753.579847611,3_D,training,05,1_A,233.0,00111,ignore,1.0,19600.0,0.746746322003
233,3_24_1,24,1.0,756.251873276,3_D,training,05,1_A,234.0,11001,ignore,1.0,19700.0,0.74970533363
234,3_24_1,24,1.0,759.158264466,3_D,training,05,1_A,235.0,11110,ignore,1.0,19800.0,0.967553824922
235,3_24_1,24,1.0,762.174011757,3_D,training,05,1_A,236.0,01110,kill,1.0,19900.0,1.10662705068
236,3_24_1,24,1.0,765.080416096,3_D,training,05,1_A,237.0,10110,ignore,1.0,20000.0,0.924207479763
237,3_24_1,24,1.0,768.127416465,3_D,training,05,1_A,238.0,11111,ignore,1.0,20100.0,1.08689089855
238,3_24_1,24,1.0,771.133960223,3_D,training,05,1_A,239.0,11100,ignore,1.0,20200.0,1.10859758693
239,3_24_1,24,1.0,773.727828661,3_D,training,05,1_A,240.0,11000,kill,1.0,20300.0,0.648723368976
240,3_24_1,24,1.0,777.978003697,3_D,training,05,1_A,241.0,10100,ignore,1.0,20400.0,2.34387397035
241,3_24_1,24,1.0,780.837530505,3_D,training,05,1_A,242.0,01100,kill,1.0,20500.0,0.92165226129
242,3_24_1,24,1.0,783.587655347,3_D,training,05,1_A,243.0,10000,kill,1.0,20600.0,0.787940600391
243,3_24_1,24,1.0,786.15028931,3_D,training,05,1_A,244.0,00010,kill,1.0,20700.0,0.661535382575
244,3_24_1,24,1.0,788.790990698,3_D,training,05,1_A,245.0,11011,ignore,1.0,20800.0,0.733472463969
245,3_24_1,24,1.0,791.573824389,3_D,training,05,1_A,246.0,11101,ignore,1.0,20900.0,0.839915418323
246,3_24_1,24,1.0,794.169844894,3_D,training,05,1_A,247.0,01011,ignore,1.0,21000.0,0.67177870724
247,3_24_1,24,1.0,796.966868756,3_D,training,05,1_A,248.0,10010,kill,1.0,21100.0,0.83621970068
248,3_24_1,24,1.0,799.482587342,3_D,training,05,1_A,249.0,01000,kill,1.0,21200.0,0.612513803215
249,3_24_1,24,1.0,802.157743608,3_D,training,05,1_A,250.0,10011,ignore,1.0,21300.0,0.706366365153
250,3_24_1,24,1.0,804.829769915,3_D,training,05,1_A,251.0,00001,ignore,1.0,21400.0,0.718306005934
251,3_24_1,24,1.0,807.923661285,3_D,training,05,1_A,252.0,01010,kill,1.0,21500.0,1.18744886436
252,3_24_1,24,1.0,810.845657684,3_D,training,05,1_A,253.0,01111,ignore,1.0,21600.0,0.971399642006
253,3_24_1,24,1.0,813.548930974,3_D,training,05,1_A,254.0,10101,ignore,1.0,21700.0,0.789685666754
254,3_24_1,24,1.0,816.142810958,3_D,training,05,1_A,255.0,10001,ignore,1.0,21800.0,0.596199790053
255,3_24_1,24,1.0,818.831701002,3_D,training,05,1_A,256.0,00011,ignore,1.0,21900.0,0.739910382936
256,3_24_1,24,1.0,821.319642532,3_D,training,05,1_A,257.0,00011,ignore,1.0,22000.0,0.575189717034
257,3_24_1,24,1.0,823.882262063,3_D,training,05,1_A,258.0,10111,ignore,1.0,22100.0,0.600331694106
258,3_24_1,24,1.0,826.835540725,3_D,training,05,1_A,259.0,10100,ignore,1.0,22200.0,1.05020088629
259,3_24_1,24,1.0,829.554473108,3_D,training,05,1_A,260.0,10001,ignore,1.0,22300.0,0.809630611049
260,3_24_1,24,1.0,832.413916207,3_D,training,05,1_A,261.0,01101,ignore,1.0,22400.0,0.896828764441
261,3_24_1,24,1.0,835.273426337,3_D,training,05,1_A,262.0,01011,ignore,1.0,22500.0,0.933301004223
262,3_24_1,24,1.0,838.148581127,3_D,training,05,1_A,263.0,00001,ignore,1.0,22600.0,0.919694233327
263,3_24_1,24,1.0,840.898744777,3_D,training,05,1_A,264.0,10000,kill,1.0,22700.0,0.852710754208
264,3_24_1,24,1.0,951.122649845,3_D,test,05,2,0.0,11100,ignore,1.0,100.0,6.73128479669
265,3_24_1,24,1.0,955.49782885,3_D,test,05,2,1.0,11000,ignore,1.0,200.0,2.40107340344
266,3_24_1,24,1.0,959.251186283,3_D,test,05,2,2.0,10101,ignore,0.0,100.0,1.85664060132
267,3_24_1,24,1.0,970.876743663,3_D,test,05,2,3.0,00110,kill,1.0,200.0,9.69470126523
268,3_24_1,24,1.0,975.423784603,3_D,test,05,2,4.0,01100,ignore,1.0,300.0,2.58744046136
269,3_24_1,24,1.0,979.423978322,3_D,test,05,2,5.0,00010,kill,0.0,200.0,2.02680397558
270,3_24_1,24,1.0,985.596303705,3_D,test,05,2,6.0,10110,kill,1.0,300.0,4.23064061992
271,3_24_1,24,1.0,995.940546509,3_D,test,05,2,7.0,10011,ignore,1.0,400.0,8.44498839455
272,3_24_1,24,1.0,1014.99144594,3_D,test,05,2,8.0,11110,kill,1.0,500.0,17.0838876268
273,3_24_1,24,1.0,1029.88272968,3_D,test,05,2,9.0,11111,kill,1.0,600.0,12.9480739323
274,3_24_1,24,1.0,1043.1802938,3_D,test,05,2,10.0,01001,kill,0.0,500.0,11.3816868419
275,3_24_1,24,1.0,1047.77425076,3_D,test,05,2,11.0,00111,kill,1.0,600.0,2.62963828921
276,3_24_1,24,1.0,1053.41514715,3_D,test,05,2,12.0,01000,ignore,1.0,700.0,3.74810619728
277,3_24_1,24,1.0,1060.00920001,3_D,test,05,2,13.0,01110,ignore,0.0,600.0,4.61936545782
278,3_24_1,24,1.0,1070.68156628,3_D,test,05,2,14.0,01111,ignore,0.0,500.0,8.73520470132
279,3_24_1,24,1.0,1079.47887559,3_D,test,05,2,15.0,11011,ignore,1.0,600.0,6.88522652668
280,3_24_1,24,1.0,1082.90090166,3_D,test,05,2,16.0,11101,kill,0.0,500.0,1.47719017695
281,3_24_1,24,1.0,1091.6200486,3_D,test,05,2,17.0,01010,ignore,1.0,600.0,6.82786320296
282,3_24_1,24,1.0,1109.58963102,3_D,test,05,2,18.0,11001,ignore,1.0,700.0,16.0384979408
283,3_24_1,24,1.0,1124.55913132,3_D,test,05,2,19.0,00101,kill,1.0,800.0,13.0080476393
284,3_24_1,24,1.0,1129.76248078,3_D,test,05,2,20.0,11010,ignore,1.0,900.0,3.32844772482
285,3_24_1,24,1.0,1134.1377342,3_D,test,05,2,21.0,00100,kill,1.0,1000.0,2.44256820143
286,3_24_1,24,1.0,1143.43505265,3_D,test,05,2,22.0,00000,kill,0.0,900.0,7.35134494551
287,3_24_1,24,1.0,1146.77893207,3_D,test,05,2,23.0,10010,ignore,1.0,1000.0,1.42886425077
288,3_24_1,24,1.0,1153.63863367,3_D,test,05,2,24.0,00101,kill,1.0,1100.0,4.89077507438
289,3_24_1,24,1.0,1159.54514994,3_D,test,05,2,25.0,00000,ignore,1.0,1200.0,3.98925987184
290,3_24_1,24,1.0,1165.3892117,3_D,test,05,2,26.0,01010,ignore,1.0,1300.0,3.8734212698
291,3_24_1,24,1.0,1173.12395584,3_D,test,05,2,27.0,01101,kill,0.0,1200.0,5.79665149957
292,3_24_1,24,1.0,1178.29603779,3_D,test,05,2,28.0,01000,ignore,1.0,1300.0,3.25048806373
293,3_24_1,24,1.0,1184.81197479,3_D,test,05,2,29.0,01111,ignore,0.0,1200.0,4.58202148667
294,3_24_1,24,1.0,1189.39033809,3_D,test,05,2,30.0,11010,ignore,1.0,1300.0,2.69477022117
295,3_24_1,24,1.0,1195.14059475,3_D,test,05,2,31.0,00100,kill,1.0,1400.0,3.77622739167
296,3_24_1,24,1.0,1198.18763264,3_D,test,05,2,32.0,11100,kill,0.0,1300.0,1.11087890599
297,3_24_1,24,1.0,1206.8598748,3_D,test,05,2,33.0,00001,ignore,1.0,1400.0,6.76353725369
298,3_24_1,24,1.0,1214.14154345,3_D,test,05,2,34.0,11000,ignore,1.0,1500.0,5.32863663203
299,3_24_1,24,1.0,1224.86081035,3_D,test,05,2,35.0,01001,ignore,1.0,1600.0,8.82576662167
300,3_24_1,24,1.0,1232.64243908,3_D,test,05,2,36.0,11101,kill,0.0,1500.0,5.85156961359
301,3_24_1,24,1.0,1240.22093194,3_D,test,05,2,37.0,00110,kill,1.0,1600.0,5.62842049524
302,3_24_1,24,1.0,1243.37730862,3_D,test,05,2,38.0,10010,ignore,1.0,1700.0,1.27421307642
303,3_24_1,24,1.0,1247.42438211,3_D,test,05,2,39.0,11001,kill,0.0,1600.0,2.16945874077
304,3_24_1,24,1.0,1257.72175893,3_D,test,05,2,40.0,10110,kill,1.0,1700.0,8.39551619615
305,3_24_1,24,1.0,1270.31610301,3_D,test,05,2,41.0,11011,ignore,1.0,1800.0,10.6869698611
306,3_24_1,24,1.0,1295.00475539,3_D,test,05,2,42.0,10111,ignore,0.0,1700.0,22.7318489525
307,3_24_1,24,1.0,1315.55263214,3_D,test,05,2,43.0,10000,ignore,1.0,1800.0,18.6544989902
308,3_24_1,24,1.0,1320.67789879,3_D,test,05,2,44.0,00111,ignore,0.0,1700.0,3.20763371118
309,3_24_1,24,1.0,1324.27179641,3_D,test,05,2,45.0,10100,kill,1.0,1800.0,1.64495805394
310,3_24_1,24,1.0,1328.45950955,3_D,test,05,2,46.0,10001,ignore,1.0,1900.0,2.25909601008
311,3_24_1,24,1.0,1331.86591822,3_D,test,05,2,47.0,11110,kill,1.0,2000.0,1.46422678101
312,3_24_1,24,1.0,1335.42064534,3_D,test,05,2,48.0,10011,ignore,1.0,2100.0,1.6789251084
313,3_24_1,24,1.0,1339.06142723,3_D,test,05,2,49.0,01011,ignore,1.0,2200.0,1.6504248167
314,3_24_1,24,1.0,1343.81166625,3_D,test,05,2,50.0,00010,ignore,1.0,2300.0,2.79080884676
315,3_24_1,24,1.0,1355.46843855,3_D,test,05,2,51.0,11111,kill,1.0,2400.0,9.76766338468
316,3_24_1,24,1.0,1360.73435606,3_D,test,05,2,52.0,00011,ignore,1.0,2500.0,3.3218468774
317,3_24_1,24,1.0,1364.18760249,3_D,test,05,2,53.0,01110,kill,1.0,2600.0,1.58249295286
318,3_24_1,24,1.0,1368.10966528,3_D,test,05,3,0.0,01100,kill,0.0,2500.0,1.94072387059
319,3_24_1,24,1.0,1378.68830312,3_D,test,05,3,1.0,10101,ignore,1.0,2600.0,8.6221108664
320,3_24_1,24,1.0,1383.34479028,3_D,test,05,3,2.0,01010,ignore,1.0,2700.0,2.75276344937
321,3_24_1,24,1.0,1387.23557305,3_D,test,05,3,3.0,01000,ignore,1.0,2800.0,1.94477847985
322,3_24_1,24,1.0,1393.2827649,3_D,test,05,3,4.0,00100,kill,0.0,2700.0,4.14761093327
323,3_24_1,24,1.0,1398.98615236,3_D,test,05,3,5.0,00010,ignore,1.0,2800.0,3.78857210851
324,3_24_1,24,1.0,1412.53363879,3_D,test,05,3,6.0,01111,kill,0.0,2700.0,11.5943495258
325,3_24_1,24,1.0,1421.47158037,3_D,test,05,3,7.0,11111,kill,0.0,2600.0,7.06065364458
326,3_24_1,24,1.0,1428.76880388,3_D,test,05,3,8.0,00101,kill,0.0,2500.0,5.35806638565
327,3_24_1,24,1.0,1433.08152452,3_D,test,05,3,9.0,01100,kill,0.0,2400.0,2.36307098324
328,3_24_1,24,1.0,1438.86303554,3_D,test,05,3,10.0,01001,ignore,1.0,2500.0,3.84382794627
329,3_24_1,24,1.0,1445.48835302,3_D,test,05,3,11.0,11100,ignore,0.0,2400.0,4.68815301676
330,3_24_1,24,1.0,1449.86355095,3_D,test,05,3,12.0,10100,kill,1.0,2500.0,2.46742761952
331,3_24_1,24,1.0,1454.06686064,3_D,test,05,3,13.0,11110,kill,1.0,2600.0,2.24656463112
332,3_24_1,24,1.0,1466.27055649,3_D,test,05,3,14.0,00011,ignore,1.0,2700.0,10.2427123995
333,3_24_1,24,1.0,1470.94265913,3_D,test,05,3,15.0,10011,ignore,0.0,2600.0,2.77144345308
334,3_24_1,24,1.0,1476.33354758,3_D,test,05,3,16.0,10110,kill,1.0,2700.0,3.4349708605
335,3_24_1,24,1.0,1480.14623021,3_D,test,05,3,17.0,01110,ignore,1.0,2800.0,1.93790277084
336,3_24_1,24,1.0,1486.31836476,3_D,test,05,3,18.0,00111,ignore,1.0,2900.0,4.18606814194
337,3_24_1,24,1.0,1497.42826898,3_D,test,05,3,19.0,11000,kill,1.0,3000.0,9.16813286238
338,3_24_1,24,1.0,1500.7721731,3_D,test,05,3,20.0,00000,ignore,1.0,3100.0,1.41970946778
339,3_24_1,24,1.0,1505.35054474,3_D,test,05,3,21.0,11001,ignore,0.0,3000.0,2.64212444591
340,3_24_1,24,1.0,1511.91335349,3_D,test,05,3,22.0,11010,kill,1.0,3100.0,4.6904885384
341,3_24_1,24,1.0,1516.28852801,3_D,test,05,3,23.0,00110,ignore,1.0,3200.0,2.45314251461
342,3_24_1,24,1.0,1521.14816354,3_D,test,05,3,24.0,01011,ignore,1.0,3300.0,2.92138894582
343,3_24_1,24,1.0,1546.16810945,3_D,test,05,3,25.0,10001,ignore,0.0,3200.0,23.1411893713
344,3_24_1,24,1.0,1552.49651869,3_D,test,05,3,26.0,00001,ignore,1.0,3300.0,4.41603588018
345,3_24_1,24,1.0,1556.27795626,3_D,test,05,3,27.0,10010,kill,1.0,3400.0,1.84403192756
346,3_24_1,24,1.0,1575.04445092,3_D,test,05,3,28.0,10111,kill,0.0,3300.0,16.8428449232
347,3_24_1,24,1.0,1597.42050936,3_D,test,05,3,29.0,11011,ignore,0.0,3200.0,20.4443357186
348,3_24_1,24,1.0,1603.10826339,3_D,test,05,3,30.0,01101,ignore,1.0,3300.0,3.81403545233
349,3_24_1,24,1.0,1610.43675121,3_D,test,05,3,31.0,11101,kill,0.0,3200.0,5.42059563179
350,3_24_1,24,1.0,1614.28068531,3_D,test,05,3,32.0,10101,ignore,1.0,3300.0,1.88790746947
351,3_24_1,24,1.0,1618.98404231,3_D,test,05,3,33.0,10000,kill,1.0,3400.0,2.78869430485
352,3_24_1,24,1.0,1623.28111861,3_D,test,05,3,34.0,00000,ignore,1.0,3500.0,2.36367619189
353,3_24_1,24,1.0,1628.39071975,3_D,test,05,3,35.0,01011,ignore,1.0,3600.0,3.24742642
354,3_24_1,24,1.0,1635.35981819,3_D,test,05,3,36.0,11101,ignore,1.0,3700.0,5.00307062403
355,3_24_1,24,1.0,1639.04746702,3_D,test,05,3,37.0,01000,ignore,1.0,3800.0,1.7520969822
356,3_24_1,24,1.0,1644.86026608,3_D,test,05,3,38.0,01100,ignore,1.0,3900.0,3.90702365958
357,3_24_1,24,1.0,1648.57916062,3_D,test,05,3,39.0,10010,kill,1.0,4000.0,1.77211088243
358,3_24_1,24,1.0,1651.96995189,3_D,test,05,3,40.0,11010,kill,1.0,4100.0,1.54360693447
359,3_24_1,24,1.0,1655.39199399,3_D,test,05,3,41.0,01110,ignore,1.0,4200.0,1.46560493763
360,3_24_1,24,1.0,1659.98596987,3_D,test,05,4,0.0,00111,ignore,0.0,4100.0,2.63805604546
361,3_24_1,24,1.0,1678.18992198,3_D,test,05,4,1.0,10000,kill,0.0,4000.0,16.30060492
362,3_24_1,24,1.0,1685.89980413,3_D,test,05,4,2.0,01010,kill,1.0,4100.0,5.7803855952
363,3_24_1,24,1.0,1690.91568068,3_D,test,05,4,3.0,10101,ignore,1.0,4200.0,3.03271975376
364,3_24_1,24,1.0,1694.97836644,3_D,test,05,4,4.0,01101,kill,0.0,4100.0,2.1419995234
365,3_24_1,24,1.0,1707.27583691,3_D,test,05,4,5.0,10111,ignore,0.0,4000.0,10.3431019846
366,3_24_1,24,1.0,1712.94795462,3_D,test,05,4,6.0,10110,ignore,0.0,3900.0,3.7964237846
367,3_24_1,24,1.0,1719.37020135,3_D,test,05,4,7.0,11110,kill,0.0,3800.0,4.54115306519
368,3_24_1,24,1.0,1734.71461542,3_D,test,05,4,8.0,11001,ignore,1.0,3900.0,13.3962994073
369,3_24_1,24,1.0,1739.80859178,3_D,test,05,4,9.0,01001,kill,0.0,3800.0,3.19574634862
370,3_24_1,24,1.0,1749.64033833,3_D,test,05,4,10.0,00100,kill,0.0,3700.0,7.89786983877
371,3_24_1,24,1.0,1755.48437186,3_D,test,05,4,11.0,11000,ignore,1.0,3800.0,3.98059740219
372,3_24_1,24,1.0,1760.35960298,3_D,test,05,4,12.0,00110,kill,1.0,3900.0,2.91391283905
373,3_24_1,24,1.0,1782.22001307,3_D,test,05,4,13.0,11111,ignore,1.0,4000.0,19.9161373897
374,3_24_1,24,1.0,1787.97030629,3_D,test,05,4,14.0,00101,kill,0.0,3900.0,3.83343772942
375,3_24_1,24,1.0,1800.64272965,3_D,test,05,4,15.0,00010,kill,1.0,4000.0,10.7501549905
376,3_24_1,24,1.0,1808.31498175,3_D,test,05,4,16.0,10011,ignore,0.0,3900.0,5.81152064525
377,3_24_1,24,1.0,1815.65908921,3_D,test,05,4,17.0,00001,kill,0.0,3800.0,5.38266024318
378,3_24_1,24,1.0,1819.40926312,3_D,test,05,4,18.0,10001,ignore,1.0,3900.0,1.80382772818
379,3_24_1,24,1.0,1824.03858742,3_D,test,05,4,19.0,11011,kill,0.0,3800.0,2.76612518614
380,3_24_1,24,1.0,1829.27324866,3_D,test,05,4,20.0,00011,kill,1.0,3900.0,3.29421318547
381,3_24_1,24,1.0,1835.64851971,3_D,test,05,4,21.0,01111,kill,1.0,4000.0,4.50778191834
382,3_24_1,24,1.0,1847.52407605,3_D,test,05,4,22.0,10100,kill,0.0,3900.0,9.94908293411
383,3_24_1,24,1.0,1853.36901723,3_D,test,05,4,23.0,11100,ignore,1.0,4000.0,3.90400659668
384,3_24_1,24,1.0,1857.32233759,3_D,test,05,4,24.0,11100,ignore,1.0,4100.0,2.1095860623
385,3_24_1,24,1.0,1861.6194033,3_D,test,05,4,25.0,01011,kill,1.0,4200.0,2.40265554135
386,3_24_1,24,1.0,1866.68217149,3_D,test,05,4,26.0,10101,ignore,1.0,4300.0,3.11252711332
387,3_24_1,24,1.0,1873.932521,3_D,test,05,4,27.0,10000,ignore,1.0,4400.0,5.33155908097
388,3_24_1,24,1.0,1884.16734676,3_D,test,05,4,28.0,00001,ignore,1.0,4500.0,8.29890251009
389,3_24_1,24,1.0,1891.15208088,3_D,test,05,4,29.0,01100,ignore,1.0,4600.0,5.12443179504
390,3_24_1,24,1.0,1895.87106201,3_D,test,05,4,30.0,11101,ignore,1.0,4700.0,2.83851224513
391,3_24_1,24,1.0,1900.87127177,3_D,test,05,4,31.0,00000,ignore,1.0,4800.0,3.03543276908
392,3_24_1,24,1.0,1915.09068315,3_D,test,05,4,32.0,00011,kill,1.0,4900.0,12.3134105191
393,3_24_1,24,1.0,1918.21585069,3_D,test,05,5,0.0,00110,kill,1.0,5000.0,1.16346406417
394,3_24_1,24,1.0,1921.77850069,3_D,test,05,5,1.0,11011,ignore,1.0,5100.0,1.70380409072
395,3_24_1,24,1.0,1926.09119984,3_D,test,05,5,2.0,10010,ignore,1.0,5200.0,2.35442454985
396,3_24_1,24,1.0,1929.70075111,3_D,test,05,5,3.0,10011,ignore,1.0,5300.0,1.6750080903
397,3_24_1,24,1.0,1933.2790355,3_D,test,05,5,4.0,10110,ignore,0.0,5200.0,1.68988942354
398,3_24_1,24,1.0,1939.93559708,3_D,test,05,5,5.0,01111,kill,1.0,5300.0,4.71845450175
399,3_24_1,24,1.0,1944.23267979,3_D,test,05,5,6.0,00101,ignore,0.0,5200.0,2.41677194475
400,3_24_1,24,1.0,1955.26447201,3_D,test,05,5,7.0,10111,ignore,0.0,5100.0,9.05398448267
401,3_24_1,24,1.0,1959.20214289,3_D,test,05,5,8.0,00100,ignore,0.0,5000.0,1.98015063184
402,3_24_1,24,1.0,1964.74928294,3_D,test,05,5,9.0,10001,ignore,1.0,5100.0,3.65423375037
403,3_24_1,24,1.0,1969.17134428,3_D,test,05,5,10.0,11110,ignore,0.0,5000.0,2.49022669826
404,3_24_1,24,1.0,1972.60902976,3_D,test,05,5,11.0,11000,ignore,1.0,5100.0,1.5765354804
405,3_24_1,24,1.0,1976.07794042,3_D,test,05,5,12.0,01001,ignore,1.0,5200.0,1.56256372411
406,3_24_1,24,1.0,1980.71877202,3_D,test,05,5,13.0,01110,kill,1.0,5300.0,2.70807134085
407,3_24_1,24,1.0,1984.12521821,3_D,test,05,5,14.0,11010,ignore,1.0,5400.0,1.57829658302
408,3_24_1,24,1.0,1987.65661065,3_D,test,05,5,15.0,01000,ignore,1.0,5500.0,1.63741748139
409,3_24_1,24,1.0,1990.64111737,3_D,test,05,5,16.0,00111,kill,1.0,5600.0,1.04325141047
410,3_24_1,24,1.0,1994.04751064,3_D,test,05,5,17.0,00010,ignore,1.0,5700.0,1.47395341722
411,3_24_1,24,1.0,1996.96954425,3_D,test,05,5,18.0,01010,ignore,1.0,5800.0,1.00725448558
412,3_24_1,24,1.0,1999.75157292,3_D,test,05,5,19.0,01101,kill,0.0,5700.0,0.898677745802
413,3_24_1,24,1.0,2006.22063688,3_D,test,05,5,20.0,10100,ignore,0.0,5600.0,4.49246504014
414,3_24_1,24,1.0,2026.14344183,3_D,test,05,5,21.0,11111,ignore,0.0,5500.0,18.0062294475
415,3_24_1,24,1.0,2036.76893378,3_D,test,05,5,22.0,11001,ignore,1.0,5600.0,8.74721682602
416,3_24_1,24,1.0,2041.31600936,3_D,test,05,5,23.0,00000,ignore,1.0,5700.0,2.59970724194
417,3_24_1,24,1.0,2045.75374968,3_D,test,05,5,24.0,11101,kill,0.0,5600.0,2.57753421898
418,3_24_1,24,1.0,2051.23837427,3_D,test,05,5,25.0,01000,ignore,1.0,5700.0,3.52824547545
419,3_24_1,24,1.0,2056.03548312,3_D,test,05,5,26.0,01110,kill,1.0,5800.0,2.87373814639
420,3_24_1,24,1.0,2060.72320412,3_D,test,05,5,27.0,01001,ignore,1.0,5900.0,2.79999698518
421,3_24_1,24,1.0,2065.66092889,3_D,test,05,5,28.0,10111,kill,1.0,6000.0,2.98196561632
422,3_24_1,24,1.0,2071.5049451,3_D,test,05,5,29.0,11001,ignore,1.0,6100.0,3.96785498598
423,3_24_1,24,1.0,2076.0208635,3_D,test,05,5,30.0,00010,ignore,1.0,6200.0,2.5999019222
424,3_24_1,24,1.0,2082.22430886,3_D,test,05,5,31.0,01111,kill,1.0,6300.0,4.27058086239
425,3_24_1,24,1.0,2089.61525344,3_D,test,05,5,32.0,10100,kill,1.0,6400.0,5.50756542876
426,3_24_1,24,1.0,2092.94353888,3_D,test,05,5,33.0,01100,kill,0.0,6300.0,1.43794334259
427,3_24_1,24,1.0,2102.49087456,3_D,test,05,5,34.0,00110,kill,1.0,6400.0,7.61203624324
428,3_24_1,24,1.0,2106.506652,3_D,test,05,5,35.0,11100,ignore,1.0,6500.0,2.0873415176
429,3_24_1,24,1.0,2110.9287621,3_D,test,05,5,36.0,00100,kill,1.0,6600.0,2.4905820619
430,3_24_1,24,1.0,2115.36644245,3_D,test,05,5,37.0,11010,ignore,1.0,6700.0,2.58576852036
431,3_24_1,24,1.0,2119.2573038,3_D,test,05,5,38.0,11011,ignore,1.0,6800.0,2.0114492518
432,3_24_1,24,1.0,2122.13242363,3_D,test,05,5,39.0,00011,ignore,1.0,6900.0,0.922305258003
433,3_24_1,24,1.0,2124.9606871,3_D,test,05,5,40.0,10011,ignore,1.0,7000.0,0.934976473196
434,3_24_1,24,1.0,2127.74207913,3_D,test,05,5,41.0,00001,ignore,1.0,7100.0,0.850100050257
435,3_24_1,24,1.0,2134.32052581,3_D,test,05,5,42.0,01101,ignore,1.0,7200.0,4.72404570592
436,3_24_1,24,1.0,2138.80509556,3_D,test,05,5,43.0,11111,kill,1.0,7300.0,2.51517239145
437,3_24_1,24,1.0,2143.22716749,3_D,test,05,6,0.0,11000,ignore,0.0,7200.0,2.48524230636
438,3_24_1,24,1.0,2148.0555416,3_D,test,05,6,1.0,10000,ignore,0.0,7100.0,2.94697288236
439,3_24_1,24,1.0,2154.04018592,3_D,test,05,6,2.0,10001,ignore,0.0,7000.0,4.03556779443
440,3_24_1,24,1.0,2157.35283632,3_D,test,05,6,3.0,10010,kill,1.0,7100.0,1.4588834975
441,3_24_1,24,1.0,2161.52491955,3_D,test,05,6,4.0,10110,ignore,0.0,7000.0,2.21603478971
442,3_24_1,24,1.0,2166.2751326,3_D,test,05,6,5.0,01010,kill,0.0,6900.0,2.84709870289
