,unique_id,pair_id,sbj_id,wall_time,condition,block,rule_id,rule_num,trial,stimulus,choice,correct,points,reaction_time
0,2_30_2,30,2.0,49.8359871044,2_ND,training,05,1_B,1.0,10111,kill,0.0,0.0,15.0716566552
1,2_30_2,30,2.0,59.4465557485,2_ND,training,05,1_B,2.0,10100,kill,0.0,0.0,7.35556597886
2,2_30_2,30,2.0,67.697424015,2_ND,training,05,1_B,3.0,11010,ignore,1.0,100.0,6.03639067409
3,2_30_2,30,2.0,71.3540791882,2_ND,training,05,1_B,4.0,11110,ignore,1.0,200.0,1.43585040047
4,2_30_2,30,2.0,77.2453679658,2_ND,training,05,1_B,5.0,01110,ignore,1.0,300.0,3.66244219379
5,2_30_2,30,2.0,81.2770721345,2_ND,training,05,1_B,6.0,10101,ignore,0.0,200.0,1.78981410423
6,2_30_2,30,2.0,91.8719033253,2_ND,training,05,1_B,7.0,00101,kill,1.0,300.0,8.3450497863
7,2_30_2,30,2.0,99.9352698495,2_ND,training,05,1_B,8.0,11101,ignore,0.0,200.0,5.84914948291
8,2_30_2,30,2.0,112.639745809,2_ND,training,05,1_B,9.0,00011,ignore,1.0,300.0,10.4638593525
9,2_30_2,30,2.0,121.906512524,2_ND,training,05,1_B,10.0,01001,kill,1.0,400.0,7.04126633493
10,2_30_2,30,2.0,126.578708315,2_ND,training,05,1_B,11.0,10110,ignore,1.0,500.0,2.43921793729
11,2_30_2,30,2.0,131.297849942,2_ND,training,05,1_B,12.0,00100,kill,0.0,400.0,2.48022229896
12,2_30_2,30,2.0,139.658214497,2_ND,training,05,1_B,13.0,01101,kill,1.0,500.0,6.13586086802
13,2_30_2,30,2.0,145.002518755,2_ND,training,05,1_B,14.0,11001,kill,1.0,600.0,3.1150830606
14,2_30_2,30,2.0,148.424736875,2_ND,training,05,1_B,15.0,11111,ignore,1.0,700.0,1.21797284466
15,2_30_2,30,2.0,152.081432724,2_ND,training,05,1_B,16.0,11100,kill,1.0,800.0,1.43753118221
16,2_30_2,30,2.0,156.253676301,2_ND,training,05,1_B,17.0,00000,kill,0.0,700.0,1.96866816891
17,2_30_2,30,2.0,168.81756535,2_ND,training,05,1_B,18.0,01111,kill,0.0,600.0,10.3503199715
18,2_30_2,30,2.0,172.489865816,2_ND,training,05,1_B,19.0,10000,kill,0.0,500.0,1.45322312442
19,2_30_2,30,2.0,176.677791381,2_ND,training,05,1_B,20.0,00001,kill,1.0,600.0,1.95939130044
20,2_30_2,30,2.0,182.272135034,2_ND,training,05,1_B,21.0,10011,ignore,1.0,700.0,3.38845457395
21,2_30_2,30,2.0,188.38217774,2_ND,training,05,1_B,22.0,01000,kill,1.0,800.0,3.90418861392
22,2_30_2,30,2.0,195.164170193,2_ND,training,05,1_B,23.0,01011,ignore,1.0,900.0,4.55929868536
23,2_30_2,30,2.0,201.49294578,2_ND,training,05,1_B,24.0,00111,ignore,1.0,1000.0,4.09757693224
24,2_30_2,30,2.0,205.883998469,2_ND,training,05,1_B,25.0,11000,kill,1.0,1100.0,2.18405512987
25,2_30_2,30,2.0,214.900361415,2_ND,training,05,1_B,26.0,10010,kill,0.0,1000.0,6.82120709086
26,2_30_2,30,2.0,220.475544043,2_ND,training,05,1_B,27.0,11011,ignore,1.0,1100.0,3.30691774381
27,2_30_2,30,2.0,225.085424331,2_ND,training,05,1_B,28.0,10001,kill,1.0,1200.0,2.28363824821
28,2_30_2,30,2.0,258.839322783,2_ND,training,05,1_B,29.0,01010,,,1100.0,
29,2_30_2,30,2.0,264.308674472,2_ND,training,05,1_B,30.0,00110,ignore,1.0,1200.0,3.26785898159
30,2_30_2,30,2.0,269.887382788,2_ND,training,05,1_B,31.0,01100,kill,1.0,1300.0,3.38925329372
31,2_30_2,30,2.0,275.38792437,2_ND,training,05,1_B,32.0,00010,ignore,1.0,1400.0,3.30501424213
32,2_30_2,30,2.0,279.591474747,2_ND,training,05,1_B,33.0,11101,kill,1.0,1500.0,2.00011690663
33,2_30_2,30,2.0,285.37339808,2_ND,training,05,1_B,34.0,11110,ignore,1.0,1600.0,3.56500207929
34,2_30_2,30,2.0,290.670812254,2_ND,training,05,1_B,35.0,10110,ignore,1.0,1700.0,3.08859816146
35,2_30_2,30,2.0,295.8900998,2_ND,training,05,1_B,36.0,00101,kill,1.0,1800.0,3.01665251082
36,2_30_2,30,2.0,301.812656978,2_ND,training,05,1_B,37.0,01101,kill,1.0,1900.0,3.69887638787
37,2_30_2,30,2.0,305.750569315,2_ND,training,05,1_B,38.0,00000,kill,0.0,1800.0,1.73811634116
38,2_30_2,30,2.0,314.12642528,2_ND,training,05,1_B,39.0,11001,kill,1.0,1900.0,6.16936869849
39,2_30_2,30,2.0,321.299121124,2_ND,training,05,1_B,40.0,01001,ignore,0.0,1800.0,4.94707827283
40,2_30_2,30,2.0,326.033936204,2_ND,training,05,1_B,41.0,01110,ignore,1.0,1900.0,2.52714225006
41,2_30_2,30,2.0,329.846840364,2_ND,training,05,1_B,42.0,01011,ignore,1.0,2000.0,1.5887881703
42,2_30_2,30,2.0,339.910431314,2_ND,training,05,1_B,43.0,00010,ignore,1.0,2100.0,7.84979005162
43,2_30_2,30,2.0,344.770336208,2_ND,training,05,1_B,44.0,00111,ignore,1.0,2200.0,2.6305807273
44,2_30_2,30,2.0,351.833549416,2_ND,training,05,1_B,45.0,10001,kill,1.0,2300.0,4.848420452
45,2_30_2,30,2.0,367.272716438,2_ND,training,05,1_B,46.0,11010,ignore,1.0,2400.0,13.2408245359
46,2_30_2,30,2.0,371.085629985,2_ND,training,05,1_B,47.0,11111,ignore,1.0,2500.0,1.61885649952
47,2_30_2,30,2.0,374.898528171,2_ND,training,05,1_B,48.0,00011,ignore,1.0,2600.0,1.59094767191
48,2_30_2,30,2.0,379.805297833,2_ND,training,05,1_B,49.0,10000,kill,0.0,2500.0,2.7077368298
49,2_30_2,30,2.0,383.430674651,2_ND,training,05,1_B,50.0,10010,ignore,1.0,2600.0,1.43550280946
50,2_30_2,30,2.0,388.509369028,2_ND,training,05,1_B,51.0,00001,kill,1.0,2700.0,2.87066599234
51,2_30_2,30,2.0,394.650613006,2_ND,training,05,1_B,52.0,01111,ignore,1.0,2800.0,3.93534551173
52,2_30_2,30,2.0,404.776721699,2_ND,training,05,1_B,53.0,11100,kill,1.0,2900.0,7.92511063463
53,2_30_2,30,2.0,409.136519641,2_ND,training,05,1_B,54.0,00110,ignore,1.0,3000.0,2.16846757875
54,2_30_2,30,2.0,419.731417392,2_ND,training,05,1_B,55.0,10101,kill,1.0,3100.0,8.3730149339
55,2_30_2,30,2.0,424.216283245,2_ND,training,05,1_B,56.0,10111,ignore,1.0,3200.0,2.26104625464
56,2_30_2,30,2.0,428.810517103,2_ND,training,05,1_B,57.0,00100,kill,0.0,3100.0,2.38262687783
57,2_30_2,30,2.0,432.092092845,2_ND,training,05,1_B,58.0,01010,ignore,1.0,3200.0,1.07548584519
58,2_30_2,30,2.0,435.639321134,2_ND,training,05,1_B,59.0,10011,ignore,1.0,3300.0,1.34948342059
59,2_30_2,30,2.0,442.108761569,2_ND,training,05,1_B,60.0,11000,kill,1.0,3400.0,4.26038293038
60,2_30_2,30,2.0,446.953047907,2_ND,training,05,1_B,61.0,01100,kill,1.0,3500.0,2.62811374134
61,2_30_2,30,2.0,452.578664795,2_ND,training,05,1_B,62.0,10100,ignore,1.0,3600.0,3.42253840425
62,2_30_2,30,2.0,455.938420355,2_ND,training,05,1_B,63.0,11011,ignore,1.0,3700.0,1.16159597181
63,2_30_2,30,2.0,469.736736786,2_ND,training,05,1_B,64.0,01000,ignore,0.0,3600.0,11.608593178
64,2_30_2,30,2.0,474.330983728,2_ND,training,05,1_B,65.0,10100,kill,0.0,3500.0,2.38087441611
65,2_30_2,30,2.0,478.081402572,2_ND,training,05,1_B,66.0,10010,ignore,1.0,3600.0,1.55360951364
66,2_30_2,30,2.0,483.879036337,2_ND,training,05,1_B,67.0,01101,kill,1.0,3700.0,3.60063072693
67,2_30_2,30,2.0,489.629506096,2_ND,training,05,1_B,68.0,10001,kill,1.0,3800.0,3.54836720402
68,2_30_2,30,2.0,494.911301714,2_ND,training,05,1_B,69.0,00110,ignore,1.0,3900.0,3.08157352346
69,2_30_2,30,2.0,501.521339301,2_ND,training,05,1_B,70.0,00100,kill,0.0,3800.0,4.37703128831
70,2_30_2,30,2.0,506.756301723,2_ND,training,05,1_B,71.0,10101,kill,1.0,3900.0,3.01142157897
71,2_30_2,30,2.0,509.819107891,2_ND,training,05,1_B,72.0,10110,ignore,1.0,4000.0,0.862266634733
72,2_30_2,30,2.0,513.428857336,2_ND,training,05,1_B,73.0,01110,ignore,1.0,4100.0,1.40068738825
73,2_30_2,30,2.0,522.554849976,2_ND,training,05,1_B,74.0,00011,ignore,1.0,4200.0,6.90133961917
74,2_30_2,30,2.0,532.712199477,2_ND,training,05,1_B,75.0,11001,kill,1.0,4300.0,7.94555109104
75,2_30_2,30,2.0,541.681927486,2_ND,training,05,1_B,76.0,00001,kill,1.0,4400.0,6.75448526095
76,2_30_2,30,2.0,544.900693646,2_ND,training,05,1_B,77.0,11110,ignore,1.0,4500.0,1.02117915842
77,2_30_2,30,2.0,548.323272726,2_ND,training,05,1_B,78.0,01011,ignore,1.0,4600.0,1.15933549246
78,2_30_2,30,2.0,556.402214001,2_ND,training,05,1_B,79.0,10000,kill,0.0,4500.0,5.87001973475
79,2_30_2,30,2.0,559.668167774,2_ND,training,05,1_B,80.0,11011,ignore,1.0,4600.0,1.06004876514
80,2_30_2,30,2.0,567.153458303,2_ND,training,05,1_B,81.0,11000,kill,1.0,4700.0,5.28705129613
81,2_30_2,30,2.0,570.747501867,2_ND,training,05,1_B,82.0,10111,ignore,1.0,4800.0,1.37317109385
82,2_30_2,30,2.0,582.686243076,2_ND,training,05,1_B,83.0,00101,kill,1.0,4900.0,9.70554347931
83,2_30_2,30,2.0,585.889699871,2_ND,training,05,1_B,84.0,11111,ignore,1.0,5000.0,0.995378347981
84,2_30_2,30,2.0,591.890336742,2_ND,training,05,1_B,85.0,00000,kill,0.0,4900.0,3.80063123893
85,2_30_2,30,2.0,595.234486262,2_ND,training,05,1_B,86.0,11010,ignore,1.0,5000.0,1.13174865586
86,2_30_2,30,2.0,605.110497249,2_ND,training,05,1_B,87.0,01001,kill,1.0,5100.0,7.67480187028
87,2_30_2,30,2.0,607.938938044,2_ND,training,05,1_B,88.0,00010,ignore,1.0,5200.0,0.61545397605
88,2_30_2,30,2.0,618.268153382,2_ND,training,05,1_B,89.0,11101,ignore,0.0,5100.0,8.1248127645
89,2_30_2,30,2.0,621.877991288,2_ND,training,05,1_B,90.0,10011,ignore,1.0,5200.0,1.4072782486
90,2_30_2,30,2.0,632.410264061,2_ND,training,05,1_B,91.0,01111,ignore,1.0,5300.0,8.34028022321
91,2_30_2,30,2.0,636.53574783,2_ND,training,05,1_B,92.0,01000,kill,1.0,5400.0,1.9100891278
92,2_30_2,30,2.0,639.817321865,2_ND,training,05,1_B,93.0,00111,ignore,1.0,5500.0,1.06127927146
93,2_30_2,30,2.0,645.817928301,2_ND,training,05,1_B,94.0,11100,ignore,0.0,5400.0,3.79989139914
94,2_30_2,30,2.0,652.662405216,2_ND,training,05,1_B,95.0,01100,kill,1.0,5500.0,4.64361027026
95,2_30_2,30,2.0,658.584786038,2_ND,training,05,1_B,96.0,01010,ignore,1.0,5600.0,3.66572325953
96,2_30_2,30,2.0,666.195242896,2_ND,training,05,1_B,97.0,10001,kill,1.0,5700.0,5.38549635257
97,2_30_2,30,2.0,669.585992936,2_ND,training,05,1_B,98.0,00111,ignore,1.0,5800.0,1.20312228889
98,2_30_2,30,2.0,679.602805873,2_ND,training,05,1_B,99.0,00010,kill,0.0,5700.0,7.80081555888
99,2_30_2,30,2.0,682.634384033,2_ND,training,05,1_B,100.0,01010,ignore,1.0,5800.0,0.832116385533
100,2_30_2,30,2.0,688.009957259,2_ND,training,05,1_B,101.0,01001,kill,1.0,5900.0,3.15538313802
101,2_30_2,30,2.0,691.119652944,2_ND,training,05,1_B,102.0,10111,ignore,1.0,6000.0,0.896385167251
102,2_30_2,30,2.0,694.432524108,2_ND,training,05,1_B,103.0,11011,ignore,1.0,6100.0,1.11446325633
103,2_30_2,30,2.0,704.32416389,2_ND,training,05,1_B,104.0,00101,ignore,0.0,6000.0,7.66631092158
104,2_30_2,30,2.0,707.29327437,2_ND,training,05,1_B,105.0,10011,ignore,1.0,6100.0,0.767166359563
105,2_30_2,30,2.0,714.481519081,2_ND,training,05,1_B,106.0,00001,kill,1.0,6200.0,4.99015708724
106,2_30_2,30,2.0,732.498791396,2_ND,training,05,1_B,107.0,10000,kill,0.0,6100.0,15.8008462789
107,2_30_2,30,2.0,735.952558662,2_ND,training,05,1_B,108.0,01110,ignore,1.0,6200.0,1.2582800332
108,2_30_2,30,2.0,739.687330791,2_ND,training,05,1_B,109.0,10110,ignore,1.0,6300.0,1.52468123742
109,2_30_2,30,2.0,745.453571569,2_ND,training,05,1_B,110.0,10100,kill,0.0,6200.0,3.5551659932
110,2_30_2,30,2.0,748.594550444,2_ND,training,05,1_B,111.0,01111,ignore,1.0,6300.0,0.936749244658
111,2_30_2,30,2.0,752.688705795,2_ND,training,05,1_B,112.0,00110,ignore,1.0,6400.0,1.88838403175
112,2_30_2,30,2.0,776.597479937,2_ND,training,05,1_B,113.0,01101,kill,1.0,6500.0,21.705956777
113,2_30_2,30,2.0,779.988484839,2_ND,training,05,1_B,114.0,11100,kill,1.0,6600.0,1.16095796311
114,2_30_2,30,2.0,783.11382155,2_ND,training,05,1_B,115.0,11010,ignore,1.0,6700.0,0.927296589569
115,2_30_2,30,2.0,786.270442305,2_ND,training,05,1_B,116.0,11111,ignore,1.0,6800.0,0.960211069096
116,2_30_2,30,2.0,789.630168852,2_ND,training,05,1_B,117.0,00011,ignore,1.0,6900.0,1.1509486504
117,2_30_2,30,2.0,796.599644274,2_ND,training,05,1_B,118.0,11000,kill,1.0,7000.0,4.76607579987
118,2_30_2,30,2.0,800.334424652,2_ND,training,05,1_B,119.0,11101,kill,1.0,7100.0,1.51280966747
119,2_30_2,30,2.0,803.959811994,2_ND,training,05,1_B,120.0,11001,kill,1.0,7200.0,1.40878125261
120,2_30_2,30,2.0,810.819908887,2_ND,training,05,1_B,121.0,01100,ignore,0.0,7100.0,4.66896876972
121,2_30_2,30,2.0,814.101495438,2_ND,training,05,1_B,122.0,00100,kill,0.0,7000.0,1.06904972258
122,2_30_2,30,2.0,817.179948607,2_ND,training,05,1_B,123.0,01011,ignore,1.0,7100.0,0.879227198799
123,2_30_2,30,2.0,823.899566393,2_ND,training,05,1_B,124.0,00000,ignore,1.0,7200.0,4.51353414726
124,2_30_2,30,2.0,829.196845455,2_ND,training,05,1_B,125.0,01000,kill,1.0,7300.0,3.10378777492
125,2_30_2,30,2.0,833.212908028,2_ND,training,05,1_B,126.0,11110,ignore,1.0,7400.0,1.82342746356
126,2_30_2,30,2.0,837.963369255,2_ND,training,05,1_B,127.0,10010,ignore,1.0,7500.0,2.53916286886
127,2_30_2,30,2.0,844.245340375,2_ND,training,05,1_B,128.0,10101,ignore,0.0,7400.0,4.057017726
