,unique_id,pair_id,sbj_id,wall_time,condition,block,rule_id,rule_num,trial,stimulus,choice,correct,points,reaction_time
0,2_30_1,30,1.0,19.7878645205,2_ND,training,05,1_B,1.0,01000,ignore,0.0,0.0,5.01768447805
1,2_30_1,30,1.0,24.631798256,2_ND,training,05,1_B,2.0,00001,ignore,0.0,0.0,2.70386782008
2,2_30_1,30,1.0,28.3196602748,2_ND,training,05,1_B,3.0,11100,kill,1.0,100.0,1.65935113402
3,2_30_1,30,1.0,31.9915322079,2_ND,training,05,1_B,4.0,11111,kill,0.0,0.0,1.63685417129
4,2_30_1,30,1.0,38.4294285443,2_ND,training,05,1_B,5.0,10010,ignore,1.0,100.0,4.3905142896
5,2_30_1,30,1.0,42.132717455,2_ND,training,05,1_B,6.0,00110,ignore,1.0,200.0,1.64794742156
6,2_30_1,30,1.0,46.1016689909,2_ND,training,05,1_B,7.0,01010,ignore,1.0,300.0,1.94556776735
7,2_30_1,30,1.0,49.9143319995,2_ND,training,05,1_B,8.0,10110,ignore,1.0,400.0,1.75086178916
8,2_30_1,30,1.0,53.0238802514,2_ND,training,05,1_B,9.0,00101,kill,1.0,500.0,1.05114479726
9,2_30_1,30,1.0,57.1490555278,2_ND,training,05,1_B,10.0,11110,ignore,1.0,600.0,2.09317489926
10,2_30_1,30,1.0,61.55550987,2_ND,training,05,1_B,11.0,10100,kill,0.0,500.0,2.36427478213
11,2_30_1,30,1.0,64.415056839,2_ND,training,05,1_B,12.0,01101,ignore,0.0,400.0,0.816777274169
12,2_30_1,30,1.0,67.5714329241,2_ND,training,05,1_B,13.0,01110,ignore,1.0,500.0,1.11644064078
13,2_30_1,30,1.0,72.1497665761,2_ND,training,05,1_B,14.0,10101,kill,1.0,600.0,2.51506735875
14,2_30_1,30,1.0,75.2624415799,2_ND,training,05,1_B,15.0,10111,ignore,1.0,700.0,1.09736934609
15,2_30_1,30,1.0,79.1376415522,2_ND,training,05,1_B,16.0,01100,ignore,0.0,600.0,1.83403967758
16,2_30_1,30,1.0,82.465887646,2_ND,training,05,1_B,17.0,01001,kill,1.0,700.0,1.30829440796
17,2_30_1,30,1.0,85.7004549811,2_ND,training,05,1_B,18.0,11000,kill,1.0,800.0,1.22964195499
18,2_30_1,30,1.0,89.0912390007,2_ND,training,05,1_B,19.0,01011,ignore,1.0,900.0,1.35222577016
19,2_30_1,30,1.0,92.1694822081,2_ND,training,05,1_B,20.0,00000,kill,0.0,800.0,1.02991790713
20,2_30_1,30,1.0,98.9198074236,2_ND,training,05,1_B,21.0,11001,ignore,0.0,700.0,4.73734289266
21,2_30_1,30,1.0,101.798075134,2_ND,training,05,1_B,22.0,00111,ignore,1.0,800.0,0.861216023954
22,2_30_1,30,1.0,105.657668929,2_ND,training,05,1_B,23.0,01111,kill,0.0,700.0,1.84885077673
23,2_30_1,30,1.0,108.423383512,2_ND,training,05,1_B,24.0,11101,ignore,0.0,600.0,0.730236259162
24,2_30_1,30,1.0,111.408036481,2_ND,training,05,1_B,25.0,11010,ignore,1.0,700.0,0.969992610488
25,2_30_1,30,1.0,116.095662766,2_ND,training,05,1_B,26.0,00011,kill,0.0,600.0,2.68877287895
26,2_30_1,30,1.0,123.361616289,2_ND,training,05,1_B,27.0,00100,kill,0.0,500.0,5.24887168803
27,2_30_1,30,1.0,127.424282505,2_ND,training,05,1_B,28.0,10011,ignore,1.0,600.0,2.03209948132
28,2_30_1,30,1.0,130.799459706,2_ND,training,05,1_B,29.0,10001,kill,1.0,700.0,1.33031669709
29,2_30_1,30,1.0,134.049594411,2_ND,training,05,1_B,30.0,10000,kill,0.0,600.0,1.24162297318
30,2_30_1,30,1.0,137.065412267,2_ND,training,05,1_B,31.0,11011,kill,0.0,500.0,1.02165120984
31,2_30_1,30,1.0,139.987396775,2_ND,training,05,1_B,32.0,00010,ignore,1.0,600.0,0.880892206756
32,2_30_1,30,1.0,144.628354307,2_ND,training,05,1_B,33.0,10101,kill,1.0,700.0,2.60165135096
33,2_30_1,30,1.0,147.722227104,2_ND,training,05,1_B,34.0,11001,ignore,0.0,600.0,1.09330767958
34,2_30_1,30,1.0,151.050524835,2_ND,training,05,1_B,35.0,11100,ignore,0.0,500.0,1.32745678867
35,2_30_1,30,1.0,154.425692735,2_ND,training,05,1_B,36.0,00100,ignore,1.0,600.0,1.36724052994
36,2_30_1,30,1.0,158.894628234,2_ND,training,05,1_B,37.0,00010,kill,0.0,500.0,2.45314747082
37,2_30_1,30,1.0,163.066697414,2_ND,training,05,1_B,38.0,00110,ignore,1.0,600.0,2.15886523503
38,2_30_1,30,1.0,166.301267314,2_ND,training,05,1_B,39.0,01001,ignore,0.0,500.0,1.24539855263
39,2_30_1,30,1.0,169.660751742,2_ND,training,05,1_B,40.0,11101,ignore,0.0,400.0,1.35352150079
40,2_30_1,30,1.0,174.19222645,2_ND,training,05,1_B,41.0,01010,ignore,1.0,500.0,2.55325324606
41,2_30_1,30,1.0,178.551812548,2_ND,training,05,1_B,42.0,01100,ignore,0.0,400.0,2.33476644135
42,2_30_1,30,1.0,181.551971627,2_ND,training,05,1_B,43.0,11010,ignore,1.0,500.0,1.00593341997
43,2_30_1,30,1.0,184.942761741,2_ND,training,05,1_B,44.0,10110,kill,0.0,400.0,1.38724096613
44,2_30_1,30,1.0,188.271058509,2_ND,training,05,1_B,45.0,01101,kill,1.0,500.0,1.34517590505
45,2_30_1,30,1.0,191.443072203,2_ND,training,05,1_B,46.0,01111,ignore,1.0,600.0,1.16907392464
46,2_30_1,30,1.0,194.912003212,2_ND,training,05,1_B,47.0,11111,ignore,1.0,700.0,1.46398221642
47,2_30_1,30,1.0,198.568403352,2_ND,training,05,1_B,48.0,11110,kill,0.0,600.0,1.65821897335
48,2_30_1,30,1.0,201.255997565,2_ND,training,05,1_B,49.0,01110,ignore,1.0,700.0,0.709891363891
49,2_30_1,30,1.0,205.428088554,2_ND,training,05,1_B,50.0,01011,ignore,1.0,800.0,2.15903425732
50,2_30_1,30,1.0,208.912636645,2_ND,training,05,1_B,51.0,00000,kill,0.0,700.0,1.47680545952
51,2_30_1,30,1.0,211.553399497,2_ND,training,05,1_B,52.0,10111,ignore,1.0,800.0,0.638675570859
52,2_30_1,30,1.0,214.631669324,2_ND,training,05,1_B,53.0,10011,ignore,1.0,900.0,1.07532941706
53,2_30_1,30,1.0,219.63192366,2_ND,training,05,1_B,54.0,01000,kill,1.0,1000.0,2.99799706985
54,2_30_1,30,1.0,228.522958166,2_ND,training,05,1_B,55.0,10010,ignore,1.0,1100.0,6.88109715029
55,2_30_1,30,1.0,240.789160893,2_ND,training,05,1_B,56.0,00101,ignore,0.0,1000.0,10.2295579249
56,2_30_1,30,1.0,244.258053415,2_ND,training,05,1_B,57.0,10100,kill,0.0,900.0,1.45856676797
57,2_30_1,30,1.0,248.570788908,2_ND,training,05,1_B,58.0,11000,kill,1.0,1000.0,2.31744630736
58,2_30_1,30,1.0,259.774420674,2_ND,training,05,1_B,59.0,10000,kill,0.0,900.0,9.22173350798
59,2_30_1,30,1.0,263.587107737,2_ND,training,05,1_B,60.0,00111,ignore,1.0,1000.0,1.79518828506
60,2_30_1,30,1.0,267.27475968,2_ND,training,05,1_B,61.0,00001,kill,1.0,1100.0,1.66430954877
61,2_30_1,30,1.0,270.399905129,2_ND,training,05,1_B,62.0,10001,kill,1.0,1200.0,1.1305708399
62,2_30_1,30,1.0,273.775087462,2_ND,training,05,1_B,63.0,00011,ignore,1.0,1300.0,1.37846688125
63,2_30_1,30,1.0,277.400253758,2_ND,training,05,1_B,64.0,11011,ignore,1.0,1400.0,1.62487988834
64,2_30_1,30,1.0,280.619199841,2_ND,training,05,1_B,65.0,00100,kill,0.0,1300.0,1.18015979823
65,2_30_1,30,1.0,283.713130049,2_ND,training,05,1_B,66.0,10011,ignore,1.0,1400.0,1.08145270647
66,2_30_1,30,1.0,286.735669989,2_ND,training,05,1_B,67.0,00000,kill,0.0,1300.0,1.04410038449
67,2_30_1,30,1.0,290.017072855,2_ND,training,05,1_B,68.0,00001,ignore,0.0,1200.0,1.27966613768
68,2_30_1,30,1.0,294.173496407,2_ND,training,05,1_B,69.0,11011,ignore,1.0,1300.0,2.15440458612
69,2_30_1,30,1.0,297.517417314,2_ND,training,05,1_B,70.0,10101,kill,1.0,1400.0,1.34483753975
70,2_30_1,30,1.0,300.876966528,2_ND,training,05,1_B,71.0,01101,kill,1.0,1500.0,1.36010150318
71,2_30_1,30,1.0,304.78337212,2_ND,training,05,1_B,72.0,10001,ignore,0.0,1400.0,1.91989081224
72,2_30_1,30,1.0,307.721021818,2_ND,training,05,1_B,73.0,10100,ignore,1.0,1500.0,0.927447423484
73,2_30_1,30,1.0,311.268135739,2_ND,training,05,1_B,74.0,11000,ignore,0.0,1400.0,1.55222051026
74,2_30_1,30,1.0,314.815113351,2_ND,training,05,1_B,75.0,01000,kill,1.0,1500.0,1.56032299614
75,2_30_1,30,1.0,317.924610287,2_ND,training,05,1_B,76.0,10010,ignore,1.0,1600.0,1.11888905852
76,2_30_1,30,1.0,321.081010747,2_ND,training,05,1_B,77.0,10000,kill,0.0,1500.0,1.19335219626
77,2_30_1,30,1.0,326.831316719,2_ND,training,05,1_B,78.0,01001,ignore,0.0,1400.0,3.74262684369
78,2_30_1,30,1.0,330.018943646,2_ND,training,05,1_B,79.0,11100,ignore,0.0,1300.0,1.18067937338
79,2_30_1,30,1.0,333.753525734,2_ND,training,05,1_B,80.0,00101,ignore,0.0,1200.0,1.74641974232
80,2_30_1,30,1.0,336.878654826,2_ND,training,05,1_B,81.0,11010,ignore,1.0,1300.0,1.13079534769
81,2_30_1,30,1.0,340.537368038,2_ND,training,05,1_B,82.0,01011,ignore,1.0,1400.0,1.67540728919
82,2_30_1,30,1.0,344.053152859,2_ND,training,05,1_B,83.0,00010,ignore,1.0,1500.0,1.50116872337
83,2_30_1,30,1.0,348.209616502,2_ND,training,05,1_B,84.0,10111,kill,0.0,1400.0,2.13356000067
84,2_30_1,30,1.0,350.975365402,2_ND,training,05,1_B,85.0,00011,ignore,1.0,1500.0,0.781312100456
85,2_30_1,30,1.0,354.584873564,2_ND,training,05,1_B,86.0,01010,ignore,1.0,1600.0,1.64444221362
86,2_30_1,30,1.0,357.897551326,2_ND,training,05,1_B,87.0,10110,ignore,1.0,1700.0,1.31256550816
87,2_30_1,30,1.0,361.147691162,2_ND,training,05,1_B,88.0,11111,ignore,1.0,1800.0,1.24080672702
88,2_30_1,30,1.0,364.30413941,2_ND,training,05,1_B,89.0,00110,ignore,1.0,1900.0,1.14012813621
89,2_30_1,30,1.0,367.538630733,2_ND,training,05,1_B,90.0,11101,kill,1.0,2000.0,1.2606846461
90,2_30_1,30,1.0,371.013827114,2_ND,training,05,1_B,91.0,11001,kill,1.0,2100.0,1.46347707391
91,2_30_1,30,1.0,377.701619535,2_ND,training,05,1_B,92.0,01111,ignore,1.0,2200.0,4.64046329426
92,2_30_1,30,1.0,382.139403297,2_ND,training,05,1_B,93.0,11110,kill,0.0,2100.0,2.45822166744
93,2_30_1,30,1.0,385.670757733,2_ND,training,05,1_B,94.0,01100,kill,1.0,2200.0,1.52404157628
94,2_30_1,30,1.0,388.670900777,2_ND,training,05,1_B,95.0,00111,ignore,1.0,2300.0,1.013183097
95,2_30_1,30,1.0,395.093103057,2_ND,training,05,1_B,96.0,01110,ignore,1.0,2400.0,4.40928153661
96,2_30_1,30,1.0,398.077599832,2_ND,training,05,1_B,97.0,00111,ignore,1.0,2500.0,0.9712136121
97,2_30_1,30,1.0,401.20275811,2_ND,training,05,1_B,98.0,00001,kill,1.0,2600.0,1.13866113821
98,2_30_1,30,1.0,404.187262904,2_ND,training,05,1_B,99.0,01100,kill,1.0,2700.0,0.986803432532
99,2_30_1,30,1.0,407.421820938,2_ND,training,05,1_B,100.0,01001,kill,1.0,2800.0,1.26643749768
100,2_30_1,30,1.0,410.781339683,2_ND,training,05,1_B,101.0,01010,ignore,1.0,2900.0,1.38174886431
101,2_30_1,30,1.0,414.187733087,2_ND,training,05,1_B,102.0,11011,ignore,1.0,3000.0,1.42033533765
102,2_30_1,30,1.0,419.23486561,2_ND,training,05,1_B,103.0,11010,ignore,1.0,3100.0,3.0908624691
103,2_30_1,30,1.0,422.5318955,2_ND,training,05,1_B,104.0,10001,kill,1.0,3200.0,1.32378897295
104,2_30_1,30,1.0,425.860173987,2_ND,training,05,1_B,105.0,10010,ignore,1.0,3300.0,1.33247549978
105,2_30_1,30,1.0,430.282259203,2_ND,training,05,1_B,106.0,11100,ignore,0.0,3200.0,2.4449648036
106,2_30_1,30,1.0,433.813668162,2_ND,training,05,1_B,107.0,10011,ignore,1.0,3300.0,1.53677758206
107,2_30_1,30,1.0,437.141955309,2_ND,training,05,1_B,108.0,10101,kill,1.0,3400.0,1.36140653484
108,2_30_1,30,1.0,440.079588009,2_ND,training,05,1_B,109.0,11001,kill,1.0,3500.0,0.944506807717
109,2_30_1,30,1.0,443.032866656,2_ND,training,05,1_B,110.0,11101,kill,1.0,3600.0,0.960784263416
110,2_30_1,30,1.0,446.317382483,2_ND,training,05,1_B,111.0,00010,ignore,1.0,3700.0,1.3377655446
111,2_30_1,30,1.0,451.239511317,2_ND,training,05,1_B,112.0,11000,kill,1.0,3800.0,2.922179188
112,2_30_1,30,1.0,454.9740732,2_ND,training,05,1_B,113.0,00100,kill,0.0,3700.0,1.75424640435
113,2_30_1,30,1.0,458.317981598,2_ND,training,05,1_B,114.0,10000,kill,0.0,3600.0,1.32032289351
114,2_30_1,30,1.0,462.786941793,2_ND,training,05,1_B,115.0,10110,ignore,1.0,3700.0,2.4648632491
115,2_30_1,30,1.0,466.177729662,2_ND,training,05,1_B,116.0,00101,kill,1.0,3800.0,1.40257901712
116,2_30_1,30,1.0,469.365363966,2_ND,training,05,1_B,117.0,10111,ignore,1.0,3900.0,1.18375897871
117,2_30_1,30,1.0,473.209259856,2_ND,training,05,1_B,118.0,01011,ignore,1.0,4000.0,1.89496243023
118,2_30_1,30,1.0,476.396959908,2_ND,training,05,1_B,119.0,01101,kill,1.0,4100.0,1.20196303191
119,2_30_1,30,1.0,480.615867504,2_ND,training,05,1_B,120.0,11110,ignore,1.0,4200.0,2.2398179306
120,2_30_1,30,1.0,483.600414313,2_ND,training,05,1_B,121.0,10100,kill,0.0,4100.0,1.0118700472
121,2_30_1,30,1.0,488.069372905,2_ND,training,05,1_B,122.0,11111,ignore,1.0,4200.0,2.49872351289
122,2_30_1,30,1.0,491.227217592,2_ND,training,05,1_B,123.0,01000,kill,1.0,4300.0,1.20505642843
123,2_30_1,30,1.0,494.572308504,2_ND,training,05,1_B,124.0,00000,kill,0.0,4200.0,1.34635296729
124,2_30_1,30,1.0,502.619551677,2_ND,training,05,1_B,125.0,00011,ignore,1.0,4300.0,6.04959601428
125,2_30_1,30,1.0,508.432342655,2_ND,training,05,1_B,126.0,00110,ignore,1.0,4400.0,3.85901648913
126,2_30_1,30,1.0,511.229377357,2_ND,training,05,1_B,127.0,01110,ignore,1.0,4500.0,0.829545673223
127,2_30_1,30,1.0,514.401386239,2_ND,training,05,1_B,128.0,01111,ignore,1.0,4600.0,1.19438493206
128,2_30_1,30,1.0,517.604667132,2_ND,training,05,1_B,129.0,10011,ignore,1.0,4700.0,1.22513704597
129,2_30_1,30,1.0,520.917340404,2_ND,training,05,1_B,130.0,10010,ignore,1.0,4800.0,1.32661680883
130,2_30_1,30,1.0,523.745604138,2_ND,training,05,1_B,131.0,01010,ignore,1.0,4900.0,0.881205234751
131,2_30_1,30,1.0,527.698910688,2_ND,training,05,1_B,132.0,00100,kill,0.0,4800.0,1.89735536246
132,2_30_1,30,1.0,530.917818285,2_ND,training,05,1_B,133.0,01001,kill,1.0,4900.0,1.24280548774
133,2_30_1,30,1.0,533.902326606,2_ND,training,05,1_B,134.0,11011,ignore,1.0,5000.0,1.04076002941
134,2_30_1,30,1.0,537.15250525,2_ND,training,05,1_B,135.0,00001,kill,1.0,5100.0,1.26966784394
135,2_30_1,30,1.0,540.357278478,2_ND,training,05,1_B,136.0,00011,ignore,1.0,5200.0,1.2502738995
136,2_30_1,30,1.0,543.763715501,2_ND,training,05,1_B,137.0,01100,ignore,0.0,5100.0,1.40577568722
137,2_30_1,30,1.0,546.685703858,2_ND,training,05,1_B,138.0,01111,ignore,1.0,5200.0,0.939640120439
138,2_30_1,30,1.0,551.107869575,2_ND,training,05,1_B,139.0,00110,ignore,1.0,5300.0,2.45306953455
139,2_30_1,30,1.0,554.717451182,2_ND,training,05,1_B,140.0,10101,kill,1.0,5400.0,1.6155596081
140,2_30_1,30,1.0,558.49885052,2_ND,training,05,1_B,141.0,01000,kill,1.0,5500.0,1.81384712688
141,2_30_1,30,1.0,563.733461795,2_ND,training,05,1_B,142.0,00101,kill,1.0,5600.0,3.24183593484
142,2_30_1,30,1.0,566.936778288,2_ND,training,05,1_B,143.0,11100,kill,1.0,5700.0,1.21292606766
143,2_30_1,30,1.0,569.858761192,2_ND,training,05,1_B,144.0,10111,ignore,1.0,5800.0,0.947149264319
144,2_30_1,30,1.0,577.624744221,2_ND,training,05,1_B,145.0,00000,kill,0.0,5700.0,5.79533838454
145,2_30_1,30,1.0,581.015547485,2_ND,training,05,1_B,146.0,10110,ignore,1.0,5800.0,1.40623240019
146,2_30_1,30,1.0,584.812625163,2_ND,training,05,1_B,147.0,11101,kill,1.0,5900.0,1.8279205576
147,2_30_1,30,1.0,588.953451198,2_ND,training,05,1_B,148.0,11010,ignore,1.0,6000.0,2.16081877347
148,2_30_1,30,1.0,595.393027173,2_ND,training,05,1_B,149.0,10001,ignore,0.0,5900.0,4.46477729469
149,2_30_1,30,1.0,598.67441272,2_ND,training,05,1_B,150.0,10100,kill,0.0,5800.0,1.24728666308
150,2_30_1,30,1.0,602.346511726,2_ND,training,05,1_B,151.0,10000,kill,0.0,5700.0,1.66689972713
151,2_30_1,30,1.0,605.659118929,2_ND,training,05,1_B,152.0,01110,ignore,1.0,5800.0,1.35041527525
152,2_30_1,30,1.0,609.284305431,2_ND,training,05,1_B,153.0,11110,ignore,1.0,5900.0,1.63857454236
153,2_30_1,30,1.0,612.768856729,2_ND,training,05,1_B,154.0,11001,kill,1.0,6000.0,1.52331160526
154,2_30_1,30,1.0,616.0033689,2_ND,training,05,1_B,155.0,00111,ignore,1.0,6100.0,1.21891978401
155,2_30_1,30,1.0,620.878608,2_ND,training,05,1_B,156.0,01011,ignore,1.0,6200.0,2.88828653094
156,2_30_1,30,1.0,624.25372715,2_ND,training,05,1_B,157.0,01101,kill,1.0,6300.0,1.41033736464
157,2_30_1,30,1.0,627.597633945,2_ND,training,05,1_B,158.0,11111,ignore,1.0,6400.0,1.36803560822
158,2_30_1,30,1.0,630.644698794,2_ND,training,05,1_B,159.0,00010,ignore,1.0,6500.0,1.09671314191
159,2_30_1,30,1.0,635.191745683,2_ND,training,05,1_B,160.0,11000,kill,1.0,6600.0,2.59640556626
160,2_30_1,30,1.0,640.34826866,2_ND,training,05,1_B,161.0,01000,kill,1.0,6700.0,3.16973397752
161,2_30_1,30,1.0,643.754649556,2_ND,training,05,1_B,162.0,00110,ignore,1.0,6800.0,1.44811625141
162,2_30_1,30,1.0,646.645423633,2_ND,training,05,1_B,163.0,10110,ignore,1.0,6900.0,0.941676726754
163,2_30_1,30,1.0,649.958056815,2_ND,training,05,1_B,164.0,01001,kill,1.0,7000.0,1.31833952761
164,2_30_1,30,1.0,653.36449512,2_ND,training,05,1_B,165.0,00010,ignore,1.0,7100.0,1.43975397796
165,2_30_1,30,1.0,656.192725499,2_ND,training,05,1_B,166.0,01111,ignore,1.0,7200.0,0.836059606176
166,2_30_1,30,1.0,659.396016655,2_ND,training,05,1_B,167.0,00011,ignore,1.0,7300.0,1.25852648486
167,2_30_1,30,1.0,664.068124962,2_ND,training,05,1_B,168.0,10101,kill,1.0,7400.0,2.68642837624
168,2_30_1,30,1.0,667.28705501,2_ND,training,05,1_B,169.0,00100,ignore,1.0,7500.0,1.20654555648
169,2_30_1,30,1.0,670.474674239,2_ND,training,05,1_B,170.0,11010,ignore,1.0,7600.0,1.24576001016
170,2_30_1,30,1.0,676.724977966,2_ND,training,05,1_B,171.0,11110,ignore,1.0,7700.0,4.26650068058
171,2_30_1,30,1.0,680.256363513,2_ND,training,05,1_B,172.0,01110,ignore,1.0,7800.0,1.58094179091
172,2_30_1,30,1.0,683.944079922,2_ND,training,05,1_B,173.0,10001,kill,1.0,7900.0,1.66568578147
173,2_30_1,30,1.0,687.959856084,2_ND,training,05,1_B,174.0,00000,ignore,1.0,8000.0,2.02798906455
174,2_30_1,30,1.0,691.147525026,2_ND,training,05,1_B,175.0,10011,ignore,1.0,8100.0,1.23414622256
175,2_30_1,30,1.0,694.803974878,2_ND,training,05,1_B,176.0,00101,kill,1.0,8200.0,1.67876496344
176,2_30_1,30,1.0,698.304141335,2_ND,training,05,1_B,177.0,10010,ignore,1.0,8300.0,1.579630024
177,2_30_1,30,1.0,701.472546547,2_ND,training,05,1_B,178.0,10111,ignore,1.0,8400.0,1.17035842988
178,2_30_1,30,1.0,704.800825355,2_ND,training,05,1_B,179.0,11101,kill,1.0,8500.0,1.36255858049
179,2_30_1,30,1.0,707.707217797,2_ND,training,05,1_B,180.0,00111,ignore,1.0,8600.0,0.954830637744
180,2_30_1,30,1.0,710.785511037,2_ND,training,05,1_B,181.0,01010,ignore,1.0,8700.0,1.09993514932
181,2_30_1,30,1.0,713.785639648,2_ND,training,05,1_B,182.0,11000,ignore,0.0,8600.0,1.04735574734
182,2_30_1,30,1.0,717.317041552,2_ND,training,05,1_B,183.0,11001,kill,1.0,8700.0,1.58877486744
183,2_30_1,30,1.0,720.348454039,2_ND,training,05,1_B,184.0,10000,kill,0.0,8600.0,1.0518333947
184,2_30_1,30,1.0,724.08302362,2_ND,training,05,1_B,185.0,11011,ignore,1.0,8700.0,1.80197291025
185,2_30_1,30,1.0,727.72390065,2_ND,training,05,1_B,186.0,01011,ignore,1.0,8800.0,1.704912102
186,2_30_1,30,1.0,734.442851544,2_ND,training,05,1_B,187.0,10100,ignore,1.0,8900.0,4.73898019585
187,2_30_1,30,1.0,737.474295463,2_ND,training,05,1_B,188.0,01100,ignore,0.0,8800.0,1.06562619069
188,2_30_1,30,1.0,741.161932653,2_ND,training,05,1_B,189.0,11111,ignore,1.0,8900.0,1.7257964574
189,2_30_1,30,1.0,744.521472566,2_ND,training,05,1_B,190.0,01101,kill,1.0,9000.0,1.43275029731
190,2_30_1,30,1.0,748.099739828,2_ND,training,05,1_B,191.0,11100,kill,1.0,9100.0,1.58128240128
191,2_30_1,30,1.0,751.756195132,2_ND,training,05,1_B,192.0,00001,kill,1.0,9200.0,1.67559523428
192,2_30_1,30,1.0,754.912595271,2_ND,training,05,1_B,193.0,01010,ignore,1.0,9300.0,1.23258557274
193,2_30_1,30,1.0,757.756480257,2_ND,training,05,1_B,194.0,01110,ignore,1.0,9400.0,0.886759878022
194,2_30_1,30,1.0,762.272338524,2_ND,training,05,1_B,195.0,00100,ignore,1.0,9500.0,2.57876438614
195,2_30_1,30,1.0,765.381843799,2_ND,training,05,1_B,196.0,00010,ignore,1.0,9600.0,1.10466360395
196,2_30_1,30,1.0,770.866448338,2_ND,training,05,1_B,197.0,10101,kill,1.0,9700.0,3.49788192943
197,2_30_1,30,1.0,774.116622813,2_ND,training,05,1_B,198.0,11010,ignore,1.0,9800.0,1.32462831133
198,2_30_1,30,1.0,778.273055987,2_ND,training,05,1_B,199.0,01111,ignore,1.0,9900.0,2.18290552841
199,2_30_1,30,1.0,785.179660749,2_ND,training,05,1_B,200.0,00011,ignore,1.0,10000.0,4.94980102196
200,2_30_1,30,1.0,789.508016211,2_ND,training,05,1_B,201.0,01001,kill,1.0,10100.0,2.37940853104
201,2_30_1,30,1.0,793.117548106,2_ND,training,05,1_B,202.0,10000,kill,0.0,10000.0,1.6347572686
202,2_30_1,30,1.0,796.227116884,2_ND,training,05,1_B,203.0,11011,ignore,1.0,10100.0,1.19361294602
203,2_30_1,30,1.0,800.071038753,2_ND,training,05,1_B,204.0,00110,ignore,1.0,10200.0,1.89779283192
204,2_30_1,30,1.0,805.930693485,2_ND,training,05,1_B,205.0,11110,ignore,1.0,10300.0,3.90860384383
205,2_30_1,30,1.0,809.180939802,2_ND,training,05,1_B,206.0,11111,ignore,1.0,10400.0,1.30193827191
206,2_30_1,30,1.0,813.040462717,2_ND,training,05,1_B,207.0,11000,ignore,0.0,10300.0,1.8883137926
207,2_30_1,30,1.0,816.571872318,2_ND,training,05,1_B,208.0,10110,ignore,1.0,10400.0,1.59638247402
208,2_30_1,30,1.0,819.181384007,2_ND,training,05,1_B,209.0,10111,ignore,1.0,10500.0,0.617437134613
209,2_30_1,30,1.0,821.806473971,2_ND,training,05,1_B,210.0,10011,ignore,1.0,10600.0,0.656002760805
210,2_30_1,30,1.0,826.603619322,2_ND,training,05,1_B,211.0,00000,kill,0.0,10500.0,2.87862467815
211,2_30_1,30,1.0,829.588155867,2_ND,training,05,1_B,212.0,10010,ignore,1.0,10600.0,1.00910796002
212,2_30_1,30,1.0,832.353918238,2_ND,training,05,1_B,213.0,01011,ignore,1.0,10700.0,0.841477299698
213,2_30_1,30,1.0,837.807259427,2_ND,training,05,1_B,214.0,11100,kill,1.0,10800.0,3.46196838161
214,2_30_1,30,1.0,842.619970224,2_ND,training,05,1_B,215.0,01100,ignore,0.0,10700.0,2.84875231403
215,2_30_1,30,1.0,982.923512444,2_ND,test,05,2,0.0,10100,,,0.0,
216,2_30_1,30,1.0,987.579935996,2_ND,test,05,2,1.0,10001,kill,0.0,0.0,2.67184916156
217,2_30_1,30,1.0,992.47086787,2_ND,test,05,2,2.0,11101,kill,0.0,0.0,2.97250934273
218,2_30_1,30,1.0,995.86163425,2_ND,test,05,2,3.0,01101,ignore,1.0,100.0,1.4517622578
219,2_30_1,30,1.0,999.736845127,2_ND,test,05,2,4.0,01000,ignore,1.0,200.0,1.92086710037
220,2_30_1,30,1.0,1003.00900372,2_ND,test,05,2,5.0,11001,ignore,1.0,300.0,1.35564983457
221,2_30_1,30,1.0,1006.5248219,2_ND,test,05,2,6.0,00111,kill,1.0,400.0,1.53222392278
222,2_30_1,30,1.0,1010.44687601,2_ND,test,05,2,7.0,00101,ignore,0.0,300.0,1.99077689956
223,2_30_1,30,1.0,1013.33837139,2_ND,test,05,2,8.0,00001,ignore,1.0,400.0,0.933974185453
224,2_30_1,30,1.0,1018.49485653,2_ND,test,05,2,9.0,00010,kill,0.0,300.0,3.2075734814
225,2_30_1,30,1.0,1022.82318729,2_ND,test,05,2,10.0,00100,ignore,0.0,200.0,2.40671990281
226,2_30_1,30,1.0,1025.82645933,2_ND,test,05,2,11.0,11011,ignore,1.0,300.0,1.09384906406
227,2_30_1,30,1.0,1029.01407856,2_ND,test,05,2,12.0,10100,kill,1.0,400.0,1.21799128397
228,2_30_1,30,1.0,1032.514271,2_ND,test,05,2,13.0,01110,ignore,0.0,300.0,1.56056899253
229,2_30_1,30,1.0,1035.60816945,2_ND,test,05,2,14.0,10101,ignore,0.0,200.0,1.14523183957
230,2_30_1,30,1.0,1044.01479314,2_ND,test,05,2,15.0,11010,kill,0.0,100.0,6.51710556869
231,2_30_1,30,1.0,1047.593147,2_ND,test,05,2,16.0,00000,kill,0.0,0.0,1.57005220127
232,2_30_1,30,1.0,1055.56226627,2_ND,test,05,2,17.0,10111,kill,1.0,100.0,6.00197117833
233,2_30_1,30,1.0,1060.156251,2_ND,test,05,2,18.0,01001,ignore,1.0,200.0,2.67087864649
234,2_30_1,30,1.0,1065.10959347,2_ND,test,05,2,19.0,11100,ignore,1.0,300.0,2.98538678842
235,2_30_1,30,1.0,1074.8131906,2_ND,test,05,2,20.0,00001,ignore,1.0,400.0,7.78553637475
236,2_30_1,30,1.0,1083.61047964,2_ND,test,05,2,21.0,10001,ignore,1.0,500.0,6.79395220935
237,2_30_1,30,1.0,1089.61078818,2_ND,test,05,2,22.0,01100,kill,0.0,400.0,4.03671600279
238,2_30_1,30,1.0,1095.26008521,2_ND,test,05,2,23.0,01000,kill,0.0,300.0,3.72921571093
239,2_30_1,30,1.0,1098.86962576,2_ND,test,05,2,24.0,10000,ignore,1.0,400.0,1.6496232118
240,2_30_1,30,1.0,1101.96349792,2_ND,test,05,2,25.0,01010,ignore,1.0,500.0,1.2008481904
241,2_30_1,30,1.0,1112.08897949,2_ND,test,05,2,26.0,01111,kill,1.0,600.0,8.19296989158
242,2_30_1,30,1.0,1115.13603696,2_ND,test,05,2,27.0,01011,kill,0.0,500.0,1.09126497948
243,2_30_1,30,1.0,1118.60491345,2_ND,test,05,2,28.0,10010,ignore,1.0,600.0,1.55261468178
244,2_30_1,30,1.0,1124.96458903,2_ND,test,05,2,29.0,10011,kill,0.0,500.0,4.44229797186
245,2_30_1,30,1.0,1128.05852148,2_ND,test,05,2,30.0,00110,ignore,0.0,400.0,1.14173657411
246,2_30_1,30,1.0,1142.94981225,2_ND,test,05,2,31.0,00011,kill,0.0,300.0,12.9684114342
247,2_30_1,30,1.0,1150.41893248,2_ND,test,05,2,32.0,11000,ignore,1.0,400.0,5.52809009305
248,2_30_1,30,1.0,1171.49806955,2_ND,test,05,2,33.0,00101,kill,1.0,500.0,19.1524372565
249,2_30_1,30,1.0,1178.52964208,2_ND,test,05,2,34.0,01101,kill,0.0,400.0,5.05001905109
250,2_30_1,30,1.0,1205.09343821,2_ND,test,05,2,35.0,00111,kill,1.0,500.0,24.5878919104
251,2_30_1,30,1.0,1215.28139292,2_ND,test,05,2,36.0,11110,ignore,0.0,400.0,8.27468078201
252,2_30_1,30,1.0,1223.57867747,2_ND,test,05,2,37.0,11111,kill,1.0,500.0,6.36164034366
253,2_30_1,30,1.0,1227.15693864,2_ND,test,05,2,38.0,11101,kill,0.0,400.0,1.66468608039
254,2_30_1,30,1.0,1237.21995605,2_ND,test,05,2,39.0,11001,kill,0.0,300.0,8.08357205994
255,2_30_1,30,1.0,1270.70588262,2_ND,test,05,2,40.0,10110,,,200.0,
256,2_30_1,30,1.0,1280.70637365,2_ND,test,05,2,41.0,10110,kill,1.0,300.0,8.06908842143
257,2_30_1,30,1.0,1285.98788011,2_ND,test,05,2,42.0,11111,kill,1.0,400.0,3.31593504926
258,2_30_1,30,1.0,1291.05062009,2_ND,test,05,2,43.0,11000,ignore,1.0,500.0,3.17492780471
259,2_30_1,30,1.0,1295.69146569,2_ND,test,05,2,44.0,00011,ignore,1.0,600.0,2.71936366797
260,2_30_1,30,1.0,1299.20724345,2_ND,test,05,2,45.0,01000,ignore,1.0,700.0,1.56885012245
261,2_30_1,30,1.0,1302.49176185,2_ND,test,05,2,46.0,01100,kill,0.0,600.0,1.38726245473
262,2_30_1,30,1.0,1309.36709075,2_ND,test,05,2,47.0,00101,kill,1.0,700.0,4.97326978266
263,2_30_1,30,1.0,1313.53918591,2_ND,test,05,2,48.0,01011,ignore,1.0,800.0,2.24564037959
264,2_30_1,30,1.0,1316.72683529,2_ND,test,05,2,49.0,11010,ignore,1.0,900.0,1.25762492575
265,2_30_1,30,1.0,1319.52388602,2_ND,test,05,2,50.0,01010,ignore,1.0,1000.0,0.846893068867
266,2_30_1,30,1.0,1322.4771079,2_ND,test,05,2,51.0,00010,ignore,1.0,1100.0,1.07132131169
267,2_30_1,30,1.0,1326.50857042,2_ND,test,05,2,52.0,11101,kill,0.0,1000.0,2.11796504863
268,2_30_1,30,1.0,1332.16506935,2_ND,test,05,2,53.0,10100,kill,1.0,1100.0,3.69538623677
269,2_30_1,30,1.0,1335.72776058,2_ND,test,05,2,54.0,11110,ignore,0.0,1000.0,1.63413602349
270,2_30_1,30,1.0,1340.68109664,2_ND,test,05,2,55.0,11100,kill,0.0,900.0,3.00774872576
271,2_30_1,30,1.0,1348.60331335,2_ND,test,05,2,56.0,10000,ignore,1.0,1000.0,6.03157990617
272,2_30_1,30,1.0,1352.30668918,2_ND,test,05,2,57.0,11001,ignore,1.0,1100.0,1.72902391714
273,2_30_1,30,1.0,1361.16642922,2_ND,test,05,2,58.0,10111,ignore,0.0,1000.0,6.90716154169
274,2_30_1,30,1.0,1364.90100073,2_ND,test,05,2,59.0,00001,ignore,1.0,1100.0,1.82731246224
275,2_30_1,30,1.0,1367.86985861,2_ND,test,05,2,60.0,10010,ignore,1.0,1200.0,1.01750807907
276,2_30_1,30,1.0,1371.338797,2_ND,test,05,2,61.0,10101,kill,1.0,1300.0,1.57859408095
277,2_30_1,30,1.0,1374.71397933,2_ND,test,05,3,0.0,10001,ignore,0.0,1200.0,1.38568769299
278,2_30_1,30,1.0,1381.04238065,2_ND,test,05,3,1.0,01101,kill,0.0,1100.0,4.39328663999
279,2_30_1,30,1.0,1385.02700604,2_ND,test,05,3,2.0,10011,ignore,0.0,1000.0,2.08890123325
280,2_30_1,30,1.0,1394.23059451,2_ND,test,05,3,3.0,00111,ignore,1.0,1100.0,7.22759861344
281,2_30_1,30,1.0,1398.60579192,2_ND,test,05,3,4.0,01111,ignore,1.0,1200.0,2.49544666144
282,2_30_1,30,1.0,1402.87159855,2_ND,test,05,3,5.0,00000,kill,0.0,1100.0,2.32305675685
283,2_30_1,30,1.0,1415.62222011,2_ND,test,05,3,6.0,01001,ignore,1.0,1200.0,10.8207792858
284,2_30_1,30,1.0,1421.48187485,2_ND,test,05,3,7.0,00100,ignore,1.0,1300.0,3.95819761303
285,2_30_1,30,1.0,1431.35732819,2_ND,test,05,3,8.0,01110,kill,0.0,1200.0,7.97511651954
286,2_30_1,30,1.0,1439.12884309,2_ND,test,05,3,9.0,11011,kill,1.0,1300.0,5.84241125207
287,2_30_1,30,1.0,1455.67651347,2_ND,test,05,3,10.0,00110,kill,0.0,1200.0,14.6218993872
288,2_30_1,30,1.0,1462.09866636,2_ND,test,05,3,11.0,00001,kill,0.0,1100.0,4.39719275468
289,2_30_1,30,1.0,1465.61446048,2_ND,test,05,3,12.0,01001,ignore,1.0,1200.0,1.6390283688
290,2_30_1,30,1.0,1468.92712317,2_ND,test,05,3,13.0,01000,ignore,1.0,1300.0,1.34001382968
291,2_30_1,30,1.0,1479.27151554,2_ND,test,05,3,14.0,00101,ignore,1.0,1400.0,8.39732008267
292,2_30_1,30,1.0,1498.20981375,2_ND,test,05,3,15.0,10001,kill,1.0,1500.0,17.0410996776
293,2_30_1,30,1.0,1503.42883937,2_ND,test,05,3,16.0,10111,kill,0.0,1400.0,3.26710685159
294,2_30_1,30,1.0,1510.75733242,2_ND,test,05,3,17.0,01100,ignore,1.0,1500.0,5.44876475818
295,2_30_1,30,1.0,1521.05466219,2_ND,test,05,3,18.0,11011,ignore,0.0,1400.0,8.33839416639
296,2_30_1,30,1.0,1534.33656988,2_ND,test,05,3,19.0,11001,kill,1.0,1500.0,11.3264538803
297,2_30_1,30,1.0,1544.16513542,2_ND,test,05,3,20.0,01101,ignore,1.0,1600.0,7.931134162
298,2_30_1,30,1.0,1555.88442628,2_ND,test,05,3,21.0,10010,kill,1.0,1700.0,9.78421370319
299,2_30_1,30,1.0,1562.52540145,2_ND,test,05,3,22.0,00010,ignore,1.0,1800.0,4.75647961533
300,2_30_1,30,1.0,1568.84129769,2_ND,test,05,3,23.0,00111,ignore,1.0,1900.0,4.39559746653
301,2_30_1,30,1.0,1575.96663397,2_ND,test,05,3,24.0,01110,ignore,1.0,2000.0,5.19382558696
302,2_30_1,30,1.0,1580.38870764,2_ND,test,05,3,25.0,11000,kill,1.0,2100.0,2.54525403376
303,2_30_1,30,1.0,1584.85767073,2_ND,test,05,3,26.0,10100,kill,1.0,2200.0,2.54755940797
304,2_30_1,30,1.0,1588.01408498,2_ND,test,05,3,27.0,01011,ignore,1.0,2300.0,1.22832537721
305,2_30_1,30,1.0,1590.68609065,2_ND,test,05,3,28.0,00100,ignore,1.0,2400.0,0.73988720729
306,2_30_1,30,1.0,1593.35427713,2_ND,test,05,4,0.0,00011,ignore,0.0,2300.0,0.718212584496
307,2_30_1,30,1.0,1596.84004077,2_ND,test,05,4,1.0,01010,ignore,0.0,2200.0,1.62902782999
308,2_30_1,30,1.0,1601.07463761,2_ND,test,05,4,2.0,01111,kill,1.0,2300.0,2.34110205098
309,2_30_1,30,1.0,1606.05922772,2_ND,test,05,4,3.0,11110,ignore,1.0,2400.0,3.06297796103
310,2_30_1,30,1.0,1608.85624157,2_ND,test,05,4,4.0,11010,ignore,1.0,2500.0,0.892828644115
311,2_30_1,30,1.0,1611.90324837,2_ND,test,05,4,5.0,00110,kill,1.0,2600.0,1.09725484712
312,2_30_1,30,1.0,1615.08159543,2_ND,test,05,4,6.0,10110,ignore,0.0,2500.0,1.3035807067
313,2_30_1,30,1.0,1627.89707569,2_ND,test,05,4,7.0,00000,ignore,1.0,2600.0,10.8332635221
314,2_30_1,30,1.0,1632.85043773,2_ND,test,05,4,8.0,10011,ignore,0.0,2500.0,3.00804571748
315,2_30_1,30,1.0,1637.99140552,2_ND,test,05,4,9.0,10000,kill,0.0,2400.0,3.2320951836
316,2_30_1,30,1.0,1646.95592752,2_ND,test,05,4,10.0,10101,ignore,1.0,2500.0,7.020407116
317,2_30_1,30,1.0,1657.61268495,2_ND,test,05,4,11.0,11101,ignore,1.0,2600.0,8.77758976142
318,2_30_1,30,1.0,1668.0662933,2_ND,test,05,4,12.0,11111,kill,0.0,2500.0,8.49123617834
319,2_30_1,30,1.0,1684.3951786,2_ND,test,05,4,13.0,11100,ignore,1.0,2600.0,14.3772911019
320,2_30_1,30,1.0,1687.41096631,2_ND,test,05,4,14.0,11000,kill,0.0,2500.0,1.1132972111
321,2_30_1,30,1.0,1709.99019671,2_ND,test,05,4,15.0,00010,ignore,0.0,2400.0,20.6365151645
322,2_30_1,30,1.0,1714.50596966,2_ND,test,05,4,16.0,10000,ignore,1.0,2500.0,2.64617348935
323,2_30_1,30,1.0,1718.84997813,2_ND,test,05,4,17.0,01001,ignore,1.0,2600.0,2.4445292585
324,2_30_1,30,1.0,1721.77198059,2_ND,test,05,4,18.0,01110,kill,1.0,2700.0,1.00287530325
325,2_30_1,30,1.0,1724.35021354,2_ND,test,05,4,19.0,10010,kill,1.0,2800.0,0.709833633318
326,2_30_1,30,1.0,1726.95970182,2_ND,test,05,4,20.0,01010,kill,1.0,2900.0,0.740297415081
327,2_30_1,30,1.0,1729.67859049,2_ND,test,05,4,21.0,11001,ignore,1.0,3000.0,0.783434981904
328,2_30_1,30,1.0,1734.96012293,2_ND,test,05,4,22.0,00100,ignore,1.0,3100.0,3.33632131811
329,2_30_1,30,1.0,1737.92899973,2_ND,test,05,4,23.0,10111,kill,1.0,3200.0,1.0079020325
330,2_30_1,30,1.0,1740.3978589,2_ND,test,05,4,24.0,01101,ignore,1.0,3300.0,0.594494363573
331,2_30_1,30,1.0,1743.19484838,2_ND,test,05,4,25.0,10001,ignore,1.0,3400.0,0.834334744954
332,2_30_1,30,1.0,1745.64809656,2_ND,test,05,5,0.0,11100,ignore,1.0,3500.0,0.496655796214
333,2_30_1,30,1.0,1748.33574562,2_ND,test,05,5,1.0,11110,kill,1.0,3600.0,0.807366549367
334,2_30_1,30,1.0,1751.34221176,2_ND,test,05,5,2.0,00011,kill,0.0,3500.0,1.06310304394
335,2_30_1,30,1.0,1758.92066953,2_ND,test,05,5,3.0,11101,kill,0.0,3400.0,5.71108157586
336,2_30_1,30,1.0,1772.49943681,2_ND,test,05,5,4.0,11011,kill,0.0,3300.0,11.6227287831
337,2_30_1,30,1.0,1777.51536756,2_ND,test,05,5,5.0,01100,ignore,1.0,3400.0,3.09355046871
338,2_30_1,30,1.0,1788.09392925,2_ND,test,05,5,6.0,00101,ignore,0.0,3300.0,8.68199947914
339,2_30_1,30,1.0,1794.3911118,2_ND,test,05,5,7.0,01011,ignore,1.0,3400.0,4.36113648405
340,2_30_1,30,1.0,1797.20375909,2_ND,test,05,5,8.0,10110,kill,1.0,3500.0,0.931036661481
341,2_30_1,30,1.0,1800.04765723,2_ND,test,05,5,9.0,10101,ignore,0.0,3400.0,0.910012790529
342,2_30_1,30,1.0,1803.40713364,2_ND,test,05,5,10.0,11111,ignore,0.0,3300.0,1.41752033078
343,2_30_1,30,1.0,1810.83193219,2_ND,test,05,5,11.0,01000,ignore,1.0,3400.0,5.56314441752
344,2_30_1,30,1.0,1815.89783164,2_ND,test,05,5,12.0,00000,kill,0.0,3300.0,3.17124523562
345,2_30_1,30,1.0,1822.22627113,2_ND,test,05,5,13.0,00110,ignore,0.0,3200.0,4.39485370431
346,2_30_1,30,1.0,1826.49209476,2_ND,test,05,5,14.0,00111,kill,1.0,3300.0,2.33702980052
347,2_30_1,30,1.0,1829.27345272,2_ND,test,05,5,15.0,01111,kill,1.0,3400.0,0.858889802601
348,2_30_1,30,1.0,1832.32048069,2_ND,test,05,5,16.0,10011,ignore,1.0,3500.0,1.16387207931
349,2_30_1,30,1.0,1835.11745638,2_ND,test,05,5,17.0,00001,ignore,1.0,3600.0,0.902654708314
350,2_30_1,30,1.0,1838.02386806,2_ND,test,05,5,18.0,10100,kill,1.0,3700.0,0.954108684859
351,2_30_1,30,1.0,1841.43029771,2_ND,test,05,5,19.0,11010,ignore,1.0,3800.0,1.51887340712
352,2_30_1,30,1.0,1844.0554159,2_ND,test,05,5,20.0,10010,ignore,1.0,3900.0,0.689313942703
353,2_30_1,30,1.0,1846.74305084,2_ND,test,05,5,21.0,00100,kill,1.0,4000.0,0.800132587883
354,2_30_1,30,1.0,1849.3913392,2_ND,test,05,5,22.0,00111,kill,1.0,4100.0,0.695274624333
355,2_30_1,30,1.0,1852.42583866,2_ND,test,05,5,23.0,10110,kill,1.0,4200.0,1.10843822123
356,2_30_1,30,1.0,1855.58224329,2_ND,test,05,6,0.0,11011,ignore,0.0,4100.0,1.28335512128
357,2_30_1,30,1.0,1864.89977267,2_ND,test,05,6,1.0,10011,ignore,0.0,4000.0,7.40001994912
358,2_30_1,30,1.0,1869.33744257,2_ND,test,05,6,2.0,01000,ignore,1.0,4100.0,2.57490477663
359,2_30_1,30,1.0,1872.35638109,2_ND,test,05,6,3.0,11111,kill,0.0,4000.0,1.07779162599
360,2_30_1,30,1.0,1900.77954875,2_ND,test,05,6,4.0,01110,kill,0.0,3900.0,26.5000089803
361,2_30_1,30,1.0,1903.82663477,2_ND,test,05,6,5.0,01011,kill,0.0,3800.0,1.15796624173
362,2_30_1,30,1.0,1912.49888067,2_ND,test,05,6,6.0,00010,ignore,1.0,3900.0,6.74393861059
363,2_30_1,30,1.0,1915.18654095,2_ND,test,05,6,7.0,01111,ignore,1.0,4000.0,0.81710441408
364,2_30_1,30,1.0,1917.54602377,2_ND,test,05,6,8.0,01010,ignore,1.0,4100.0,0.450267998147
365,2_30_1,30,1.0,1919.87427917,2_ND,test,05,6,9.0,00011,ignore,1.0,4200.0,0.383994262864
366,2_30_1,30,1.0,1922.98376841,2_ND,test,05,6,10.0,10001,kill,1.0,4300.0,1.2599485813
367,2_30_1,30,1.0,1925.45262052,2_ND,test,05,6,11.0,11100,kill,1.0,4400.0,0.580149919884
368,2_30_1,30,1.0,1927.84336317,2_ND,test,05,6,12.0,00101,kill,0.0,4300.0,0.453452159958
369,2_30_1,30,1.0,1935.96872863,2_ND,test,05,6,13.0,11001,ignore,0.0,4200.0,6.21250848319
370,2_30_1,30,1.0,1940.48458305,2_ND,test,05,6,14.0,10000,ignore,0.0,4100.0,2.56803002759
371,2_30_1,30,1.0,1946.88183514,2_ND,test,05,6,15.0,01100,ignore,1.0,4200.0,4.53904350704
372,2_30_1,30,1.0,1949.69446062,2_ND,test,05,6,16.0,00110,ignore,1.0,4300.0,0.850197502705
373,2_30_1,30,1.0,1952.92901545,2_ND,test,05,6,17.0,11000,kill,1.0,4400.0,1.29657189445
374,2_30_1,30,1.0,1955.41349074,2_ND,test,05,6,18.0,10100,kill,1.0,4500.0,0.606578013887
375,2_30_1,30,1.0,1958.06990627,2_ND,test,05,6,19.0,10111,kill,0.0,4400.0,0.727133561604
376,2_30_1,30,1.0,1991.46207615,2_ND,test,05,6,20.0,00000,,,4300.0,
377,2_30_1,30,1.0,1996.49354412,2_ND,test,05,6,21.0,01101,ignore,1.0,4400.0,3.09631929112
378,2_30_1,30,1.0,1999.64993784,2_ND,test,05,6,22.0,11110,kill,1.0,4500.0,1.24376509815
379,2_30_1,30,1.0,2002.56261586,2_ND,test,05,6,23.0,11010,kill,1.0,4600.0,1.05338025332
380,2_30_1,30,1.0,2005.9065233,2_ND,test,05,6,24.0,01001,ignore,1.0,4700.0,1.40339205602
381,2_30_1,30,1.0,2008.1566317,2_ND,test,05,6,25.0,00001,ignore,1.0,4800.0,0.390136475073
382,2_30_1,30,1.0,2010.46926456,2_ND,test,05,6,26.0,10101,ignore,1.0,4900.0,0.392212530614
383,2_30_1,30,1.0,2013.23496856,2_ND,test,05,6,27.0,11101,ignore,1.0,5000.0,0.816877340494
384,2_30_1,30,1.0,2015.93825523,2_ND,test,05,6,28.0,10011,kill,1.0,5100.0,0.843086699773
385,2_30_1,30,1.0,2018.42273468,2_ND,test,05,6,29.0,00011,kill,0.0,5000.0,0.596403641901
386,2_30_1,30,1.0,2025.67311282,2_ND,test,05,6,30.0,00110,ignore,1.0,5100.0,5.3084236603
387,2_30_1,30,1.0,2029.43890085,2_ND,test,05,6,31.0,01001,kill,0.0,5000.0,1.83672639429
388,2_30_1,30,1.0,2041.0488019,2_ND,test,05,6,32.0,10110,kill,1.0,5100.0,9.68304023308
389,2_30_1,30,1.0,2044.72088166,2_ND,test,05,6,33.0,00010,ignore,1.0,5200.0,1.82086395726
390,2_30_1,30,1.0,2047.34602326,2_ND,test,05,6,34.0,01110,ignore,1.0,5300.0,0.733870077987
391,2_30_1,30,1.0,2050.11175452,2_ND,test,05,6,35.0,00111,ignore,1.0,5400.0,0.816183290719
392,2_30_1,30,1.0,2053.22127423,2_ND,test,05,6,36.0,10101,kill,0.0,5300.0,1.20922810376
393,2_30_1,30,1.0,2075.28481667,2_ND,test,05,6,37.0,11110,ignore,0.0,5200.0,20.1372534744
394,2_30_1,30,1.0,2078.5037403,2_ND,test,05,6,38.0,10000,kill,1.0,5300.0,1.36000817208
395,2_30_1,30,1.0,2081.98828262,2_ND,test,05,6,39.0,01011,ignore,1.0,5400.0,1.52042892533
396,2_30_1,30,1.0,2084.51963,2_ND,test,05,6,40.0,01111,ignore,1.0,5500.0,0.603714577483
397,2_30_1,30,1.0,2087.48850392,2_ND,test,05,6,41.0,11011,ignore,0.0,5400.0,1.10293745983
398,2_30_1,30,1.0,2106.27064189,2_ND,test,05,6,42.0,11111,ignore,1.0,5500.0,16.8426976599
399,2_30_1,30,1.0,2108.80204283,2_ND,test,05,6,43.0,11010,ignore,0.0,5400.0,0.680047544334
400,2_30_1,30,1.0,2126.78724841,2_ND,test,05,6,44.0,10100,ignore,0.0,5300.0,16.0118158446
401,2_30_1,30,1.0,2129.64678736,2_ND,test,05,6,45.0,11100,kill,1.0,5400.0,0.919699659902
402,2_30_1,30,1.0,2132.69379608,2_ND,test,05,6,46.0,11000,kill,1.0,5500.0,1.16550489235
403,2_30_1,30,1.0,2135.13139478,2_ND,test,05,6,47.0,00100,kill,0.0,5400.0,0.494125914229
404,2_30_1,30,1.0,2144.08498742,2_ND,test,05,6,48.0,01010,kill,0.0,5300.0,7.08620297043
405,2_30_1,30,1.0,2160.0857222,2_ND,test,05,6,49.0,11101,kill,0.0,5200.0,14.0864290818
406,2_30_1,30,1.0,2174.10199292,2_ND,test,05,6,50.0,10111,ignore,1.0,5300.0,12.064732329
407,2_30_1,30,1.0,2177.64906515,2_ND,test,05,6,51.0,10010,kill,1.0,5400.0,1.68068322208
408,2_30_1,30,1.0,2181.57109745,2_ND,test,05,6,52.0,00000,kill,0.0,5300.0,2.01426779032
409,2_30_1,30,1.0,2187.50889949,2_ND,test,05,6,53.0,01000,ignore,1.0,5400.0,4.01289989647
410,2_30_1,30,1.0,2191.69659377,2_ND,test,05,6,54.0,10001,ignore,0.0,5300.0,2.25072772594
411,2_30_1,30,1.0,2202.16583524,2_ND,test,05,6,55.0,00001,ignore,1.0,5400.0,8.53521532862
