,unique_id,pair_id,sbj_id,wall_time,condition,block,rule_id,rule_num,trial,stimulus,choice,correct,points,reaction_time
0,3_29_1,29,1.0,34.8854923712,3_D,training,05,1_A,1.0,10110,ignore,1.0,100.0,3.13272547317
1,3_29_1,29,1.0,38.7294264275,3_D,training,05,1_A,2.0,11111,kill,0.0,0.0,1.69203978791
2,3_29_1,29,1.0,44.0265650438,3_D,training,05,1_A,3.0,11010,ignore,0.0,0.0,3.15928314024
3,3_29_1,29,1.0,49.2455714236,3_D,training,05,1_A,4.0,11011,kill,0.0,0.0,3.0554845327
4,3_29_1,29,1.0,52.8550943382,3_D,training,05,1_A,5.0,00101,ignore,1.0,100.0,1.45819248143
5,3_29_1,29,1.0,56.636521579,3_D,training,05,1_A,6.0,11100,ignore,1.0,200.0,1.61430364742
6,3_29_1,29,1.0,62.1524244275,3_D,training,05,1_A,7.0,01110,ignore,0.0,100.0,3.38994275693
7,3_29_1,29,1.0,66.7307474955,3_D,training,05,1_A,8.0,10010,kill,1.0,200.0,2.40258062074
8,3_29_1,29,1.0,70.6372060071,3_D,training,05,1_A,9.0,11001,ignore,1.0,300.0,1.744321236
9,3_29_1,29,1.0,74.7623860944,3_D,training,05,1_A,10.0,01011,ignore,1.0,400.0,1.96091960954
10,3_29_1,29,1.0,80.7939076285,3_D,training,05,1_A,11.0,11110,kill,0.0,300.0,3.8726877302
11,3_29_1,29,1.0,84.9130083658,3_D,training,05,1_A,12.0,01111,kill,0.0,200.0,1.96248603241
12,3_29_1,29,1.0,88.335019173,3_D,training,05,1_A,13.0,10000,ignore,0.0,100.0,1.2506186793
13,3_29_1,29,1.0,93.0071210661,3_D,training,05,1_A,14.0,00111,ignore,1.0,200.0,2.5029971789
14,3_29_1,29,1.0,98.8824012198,3_D,training,05,1_A,15.0,10111,kill,0.0,100.0,3.7456506428
15,3_29_1,29,1.0,104.242028049,3_D,training,05,1_A,16.0,01001,ignore,1.0,200.0,3.16239064867
16,3_29_1,29,1.0,109.757925766,3_D,training,05,1_A,17.0,00110,ignore,0.0,100.0,3.38368829083
17,3_29_1,29,1.0,114.461297424,3_D,training,05,1_A,18.0,10101,ignore,1.0,200.0,2.60811011914
18,3_29_1,29,1.0,120.977196103,3_D,training,05,1_A,19.0,01010,ignore,0.0,100.0,4.40738444584
19,3_29_1,29,1.0,125.024268329,3_D,training,05,1_A,20.0,01000,kill,1.0,200.0,1.94184927702
20,3_29_1,29,1.0,128.63382075,3_D,training,05,1_A,21.0,00010,ignore,0.0,100.0,1.52096293312
21,3_29_1,29,1.0,131.868348636,3_D,training,05,1_A,22.0,11101,ignore,1.0,200.0,1.12460470594
22,3_29_1,29,1.0,135.290350784,3_D,training,05,1_A,23.0,11000,kill,1.0,300.0,1.36284306393
23,3_29_1,29,1.0,139.634347382,3_D,training,05,1_A,24.0,10011,ignore,1.0,400.0,2.22109077427
24,3_29_1,29,1.0,144.962712465,3_D,training,05,1_A,25.0,00100,kill,1.0,500.0,3.22033001361
25,3_29_1,29,1.0,149.275410753,3_D,training,05,1_A,26.0,00011,ignore,1.0,600.0,2.21986881048
26,3_29_1,29,1.0,156.6664103,3_D,training,05,1_A,27.0,10100,kill,0.0,500.0,5.28345743268
27,3_29_1,29,1.0,163.479233992,3_D,training,05,1_A,28.0,00000,kill,1.0,600.0,4.70942246335
28,3_29_1,29,1.0,170.963945333,3_D,training,05,1_A,29.0,01100,ignore,0.0,500.0,5.39167659846
29,3_29_1,29,1.0,174.6204016,3_D,training,05,1_A,30.0,10001,ignore,1.0,600.0,1.55027017908
30,3_29_1,29,1.0,181.683221764,3_D,training,05,1_A,31.0,00001,kill,0.0,500.0,4.97804987408
31,3_29_1,29,1.0,185.167742593,3_D,training,05,1_A,32.0,01101,ignore,1.0,600.0,1.36874697716
32,3_29_1,29,1.0,188.136661415,3_D,training,05,1_A,33.0,00000,ignore,0.0,500.0,0.867125068795
33,3_29_1,29,1.0,191.277429078,3_D,training,05,1_A,34.0,11100,ignore,1.0,600.0,1.06743315762
34,3_29_1,29,1.0,195.15261558,3_D,training,05,1_A,35.0,00110,kill,1.0,700.0,1.81095642881
35,3_29_1,29,1.0,198.480891822,3_D,training,05,1_A,36.0,01010,kill,1.0,800.0,1.29437043528
36,3_29_1,29,1.0,201.699830208,3_D,training,05,1_A,37.0,10111,ignore,1.0,900.0,1.13252758559
37,3_29_1,29,1.0,205.043710382,3_D,training,05,1_A,38.0,10110,ignore,1.0,1000.0,1.25659860446
38,3_29_1,29,1.0,208.668869623,3_D,training,05,1_A,39.0,11011,ignore,1.0,1100.0,1.57787790112
39,3_29_1,29,1.0,211.653412262,3_D,training,05,1_A,40.0,10011,ignore,1.0,1200.0,0.901018367303
40,3_29_1,29,1.0,215.700444718,3_D,training,05,1_A,41.0,11110,kill,0.0,1100.0,2.01240180992
41,3_29_1,29,1.0,218.700629135,3_D,training,05,1_A,42.0,01111,ignore,1.0,1200.0,0.91849822254
42,3_29_1,29,1.0,221.435104101,3_D,training,05,1_A,43.0,01011,ignore,1.0,1300.0,0.652136736786
43,3_29_1,29,1.0,225.029023404,3_D,training,05,1_A,44.0,01001,kill,0.0,1200.0,1.54111378952
44,3_29_1,29,1.0,228.669825384,3_D,training,05,1_A,45.0,10000,ignore,0.0,1100.0,1.59463676565
45,3_29_1,29,1.0,232.138727849,3_D,training,05,1_A,46.0,00001,ignore,1.0,1200.0,1.38097880262
46,3_29_1,29,1.0,235.529530792,3_D,training,05,1_A,47.0,01000,ignore,0.0,1100.0,1.32833621772
47,3_29_1,29,1.0,239.842228439,3_D,training,05,1_A,48.0,11111,ignore,1.0,1200.0,2.25411458621
48,3_29_1,29,1.0,248.998947379,3_D,training,05,1_A,49.0,10010,kill,1.0,1300.0,7.11911132122
49,3_29_1,29,1.0,252.624055624,3_D,training,05,1_A,50.0,10001,kill,0.0,1200.0,1.56904223697
50,3_29_1,29,1.0,258.061852536,3_D,training,05,1_A,51.0,00100,ignore,0.0,1100.0,3.35583553458
51,3_29_1,29,1.0,262.327658846,3_D,training,05,1_A,52.0,01101,ignore,1.0,1200.0,2.17341558443
52,3_29_1,29,1.0,265.593474136,3_D,training,05,1_A,53.0,01110,kill,1.0,1300.0,1.22509887964
53,3_29_1,29,1.0,268.484236988,3_D,training,05,1_A,54.0,11101,kill,0.0,1200.0,0.852537835976
54,3_29_1,29,1.0,270.98434828,3_D,training,05,1_A,55.0,01100,ignore,0.0,1100.0,0.445526393776
55,3_29_1,29,1.0,274.250151062,3_D,training,05,1_A,56.0,11001,ignore,1.0,1200.0,1.21605057455
56,3_29_1,29,1.0,277.031509347,3_D,training,05,1_A,57.0,00111,ignore,1.0,1300.0,0.731263863356
57,3_29_1,29,1.0,279.594246443,3_D,training,05,1_A,58.0,10101,ignore,1.0,1400.0,0.505068102832
58,3_29_1,29,1.0,282.234963752,3_D,training,05,1_A,59.0,11010,ignore,0.0,1300.0,0.618460248652
59,3_29_1,29,1.0,286.922698763,3_D,training,05,1_A,60.0,00010,kill,1.0,1400.0,2.62069410109
60,3_29_1,29,1.0,290.366126651,3_D,training,05,1_A,61.0,00101,ignore,1.0,1500.0,1.38148939746
61,3_29_1,29,1.0,293.897516687,3_D,training,05,1_A,62.0,11000,kill,1.0,1600.0,1.50586670909
62,3_29_1,29,1.0,297.413450005,3_D,training,05,1_A,63.0,10100,kill,0.0,1500.0,1.44895302399
63,3_29_1,29,1.0,300.713595422,3_D,training,05,1_A,64.0,00011,ignore,1.0,1600.0,1.2828782026
64,3_29_1,29,1.0,305.963817043,3_D,training,05,1_A,65.0,10100,kill,0.0,1500.0,3.21130897018
65,3_29_1,29,1.0,309.010835387,3_D,training,05,1_A,66.0,11001,ignore,1.0,1600.0,1.00548857384
66,3_29_1,29,1.0,312.073508017,3_D,training,05,1_A,67.0,00011,ignore,1.0,1700.0,1.04184536417
67,3_29_1,29,1.0,315.839316573,3_D,training,05,1_A,68.0,11111,kill,0.0,1600.0,1.74050075499
68,3_29_1,29,1.0,319.308207491,3_D,training,05,1_A,69.0,11000,ignore,0.0,1500.0,1.4348244285
69,3_29_1,29,1.0,322.32611776,3_D,training,05,1_A,70.0,11101,ignore,1.0,1600.0,0.989150501037
70,3_29_1,29,1.0,325.888755752,3_D,training,05,1_A,71.0,10011,kill,0.0,1500.0,1.5055966583
71,3_29_1,29,1.0,328.185737854,3_D,training,05,1_A,72.0,10110,ignore,1.0,1600.0,0.265113863933
72,3_29_1,29,1.0,330.404623642,3_D,training,05,1_A,73.0,00010,ignore,0.0,1500.0,0.16241598598
73,3_29_1,29,1.0,333.842248965,3_D,training,05,1_A,74.0,01000,kill,1.0,1600.0,1.40071496107
74,3_29_1,29,1.0,337.858087348,3_D,training,05,1_A,75.0,01001,ignore,1.0,1700.0,1.98857672329
75,3_29_1,29,1.0,342.139537681,3_D,training,05,1_A,76.0,10111,kill,0.0,1600.0,2.25636511637
76,3_29_1,29,1.0,346.858504611,3_D,training,05,1_A,77.0,00100,ignore,0.0,1500.0,2.70660906011
77,3_29_1,29,1.0,349.296191835,3_D,training,05,1_A,78.0,01011,kill,0.0,1400.0,0.359089293801
78,3_29_1,29,1.0,351.890044106,3_D,training,05,1_A,79.0,01110,ignore,0.0,1300.0,0.557863353018
79,3_29_1,29,1.0,355.12458001,3_D,training,05,1_A,80.0,01111,kill,0.0,1200.0,1.20431972217
80,3_29_1,29,1.0,358.656025212,3_D,training,05,1_A,81.0,00110,ignore,0.0,1100.0,1.48738009681
81,3_29_1,29,1.0,361.171796563,3_D,training,05,1_A,82.0,11110,ignore,1.0,1200.0,0.521139652821
82,3_29_1,29,1.0,365.612701624,3_D,training,05,1_A,83.0,10001,kill,0.0,1100.0,2.41717939968
83,3_29_1,29,1.0,369.378418131,3_D,training,05,1_A,84.0,00111,ignore,1.0,1200.0,1.71534690301
84,3_29_1,29,1.0,373.331756754,3_D,training,05,1_A,85.0,11100,ignore,1.0,1300.0,1.94777211305
85,3_29_1,29,1.0,376.494401738,3_D,training,05,1_A,86.0,01010,ignore,0.0,1200.0,1.17048704077
86,3_29_1,29,1.0,381.5883823,3_D,training,05,1_A,87.0,00001,ignore,1.0,1300.0,3.08057423959
87,3_29_1,29,1.0,385.76046976,3_D,training,05,1_A,88.0,11011,ignore,1.0,1400.0,2.13612484172
88,3_29_1,29,1.0,388.94812876,3_D,training,05,1_A,89.0,00101,ignore,1.0,1500.0,1.14133053575
89,3_29_1,29,1.0,394.885907711,3_D,training,05,1_A,90.0,10000,kill,1.0,1600.0,3.91684039293
90,3_29_1,29,1.0,397.776647149,3_D,training,05,1_A,91.0,01100,ignore,0.0,1500.0,0.85000025658
91,3_29_1,29,1.0,404.026988401,3_D,training,05,1_A,92.0,10010,ignore,0.0,1400.0,4.22804794973
92,3_29_1,29,1.0,407.073966334,3_D,training,05,1_A,93.0,10101,kill,0.0,1300.0,1.02917446564
93,3_29_1,29,1.0,409.855375614,3_D,training,05,1_A,94.0,11010,ignore,0.0,1200.0,0.74450533238
94,3_29_1,29,1.0,412.589871428,3_D,training,05,1_A,95.0,00000,ignore,0.0,1100.0,0.728321207775
95,3_29_1,29,1.0,415.152471895,3_D,training,05,1_A,96.0,01101,kill,0.0,1000.0,0.527270960367
96,3_29_1,29,1.0,417.949497616,3_D,training,05,1_A,97.0,11001,ignore,1.0,1100.0,0.791796613909
97,3_29_1,29,1.0,421.793445784,3_D,training,05,1_A,98.0,00111,ignore,1.0,1200.0,1.83805868762
98,3_29_1,29,1.0,424.715433178,3_D,training,05,1_A,99.0,00001,ignore,1.0,1300.0,0.880666416073
99,3_29_1,29,1.0,427.590636037,3_D,training,05,1_A,100.0,01000,ignore,0.0,1200.0,0.882432650872
100,3_29_1,29,1.0,430.668847813,3_D,training,05,1_A,101.0,01001,kill,0.0,1100.0,1.07698724667
101,3_29_1,29,1.0,433.028340259,3_D,training,05,1_A,102.0,11000,ignore,0.0,1000.0,0.359059787064
102,3_29_1,29,1.0,435.887831101,3_D,training,05,1_A,103.0,11011,ignore,1.0,1100.0,0.846946950735
103,3_29_1,29,1.0,440.044277746,3_D,training,05,1_A,104.0,01100,kill,1.0,1200.0,2.13798793559
104,3_29_1,29,1.0,443.263205869,3_D,training,05,1_A,105.0,01111,ignore,1.0,1300.0,1.2253471211
105,3_29_1,29,1.0,447.888446573,3_D,training,05,1_A,106.0,01011,kill,0.0,1200.0,2.60520274336
106,3_29_1,29,1.0,450.435420657,3_D,training,05,1_A,107.0,00100,ignore,0.0,1100.0,0.503168446265
107,3_29_1,29,1.0,454.391881542,3_D,training,05,1_A,108.0,11110,ignore,1.0,1200.0,1.9690939379
108,3_29_1,29,1.0,457.892013039,3_D,training,05,1_A,109.0,10011,ignore,1.0,1300.0,1.4873169139
109,3_29_1,29,1.0,460.720294092,3_D,training,05,1_A,110.0,10110,ignore,1.0,1400.0,0.816648663281
110,3_29_1,29,1.0,463.926732527,3_D,training,05,1_A,111.0,10010,ignore,0.0,1300.0,1.19669736223
111,3_29_1,29,1.0,468.223804432,3_D,training,05,1_A,112.0,10001,ignore,1.0,1400.0,2.26529154581
112,3_29_1,29,1.0,471.442687012,3_D,training,05,1_A,113.0,11010,ignore,0.0,1300.0,1.21908463687
113,3_29_1,29,1.0,475.036619144,3_D,training,05,1_A,114.0,11111,ignore,1.0,1400.0,1.55845477066
114,3_29_1,29,1.0,478.693041093,3_D,training,05,1_A,115.0,00110,kill,1.0,1500.0,1.62021654096
115,3_29_1,29,1.0,483.787035445,3_D,training,05,1_A,116.0,00000,ignore,0.0,1400.0,3.07908767735
116,3_29_1,29,1.0,486.849691077,3_D,training,05,1_A,117.0,10111,ignore,1.0,1500.0,1.03961503971
117,3_29_1,29,1.0,491.302997628,3_D,training,05,1_A,118.0,01101,kill,0.0,1400.0,2.45981118254
118,3_29_1,29,1.0,493.771902979,3_D,training,05,1_A,119.0,01010,ignore,0.0,1300.0,0.453413672909
119,3_29_1,29,1.0,496.318855896,3_D,training,05,1_A,120.0,10100,ignore,1.0,1400.0,0.527853397701
120,3_29_1,29,1.0,499.444037907,3_D,training,05,1_A,121.0,10000,ignore,0.0,1300.0,1.12122875034
121,3_29_1,29,1.0,503.272309018,3_D,training,05,1_A,122.0,11101,ignore,1.0,1400.0,1.80059860189
122,3_29_1,29,1.0,506.428754059,3_D,training,05,1_A,123.0,10101,kill,0.0,1300.0,1.13267768508
123,3_29_1,29,1.0,509.897647864,3_D,training,05,1_A,124.0,00011,ignore,1.0,1400.0,1.43540365858
124,3_29_1,29,1.0,513.460335569,3_D,training,05,1_A,125.0,00010,kill,1.0,1500.0,1.55068295267
125,3_29_1,29,1.0,517.444912846,3_D,training,05,1_A,126.0,01110,ignore,0.0,1400.0,1.9824890344
126,3_29_1,29,1.0,521.960734872,3_D,training,05,1_A,127.0,00101,ignore,1.0,1500.0,2.49031088555
127,3_29_1,29,1.0,525.523432519,3_D,training,05,1_A,128.0,11100,ignore,1.0,1600.0,1.54684996337
128,3_29_1,29,1.0,528.211028656,3_D,training,05,1_A,129.0,01101,ignore,1.0,1700.0,0.665237086633
129,3_29_1,29,1.0,532.164359903,3_D,training,05,1_A,130.0,01001,ignore,1.0,1800.0,1.91465497002
130,3_29_1,29,1.0,535.33640631,3_D,training,05,1_A,131.0,00101,ignore,1.0,1900.0,1.15416211771
131,3_29_1,29,1.0,539.821006039,3_D,training,05,1_A,132.0,11010,kill,1.0,2000.0,2.47304848213
132,3_29_1,29,1.0,545.665059084,3_D,training,05,1_A,133.0,01111,ignore,1.0,2100.0,3.80116821021
133,3_29_1,29,1.0,549.040193308,3_D,training,05,1_A,134.0,00011,ignore,1.0,2200.0,1.37960481499
134,3_29_1,29,1.0,552.22784012,3_D,training,05,1_A,135.0,10111,ignore,1.0,2300.0,1.1696756055
135,3_29_1,29,1.0,556.540555086,3_D,training,05,1_A,136.0,11001,ignore,1.0,2400.0,2.32894046438
136,3_29_1,29,1.0,565.509711565,3_D,training,05,1_A,137.0,00110,kill,1.0,2500.0,6.93512815546
137,3_29_1,29,1.0,568.963004966,3_D,training,05,1_A,138.0,11000,ignore,0.0,2400.0,1.433928001
138,3_29_1,29,1.0,575.682110771,3_D,training,05,1_A,139.0,11110,ignore,1.0,2500.0,4.73450703864
139,3_29_1,29,1.0,578.732246887,3_D,training,05,1_A,140.0,11101,ignore,1.0,2600.0,1.03505528665
140,3_29_1,29,1.0,582.891136176,3_D,training,05,1_A,141.0,00001,ignore,1.0,2700.0,2.15098212533
141,3_29_1,29,1.0,586.141294935,3_D,training,05,1_A,142.0,01000,ignore,0.0,2600.0,1.24479751322
142,3_29_1,29,1.0,589.250818812,3_D,training,05,1_A,143.0,01110,ignore,0.0,2500.0,1.08013227999
143,3_29_1,29,1.0,593.172875162,3_D,training,05,1_A,144.0,10011,ignore,1.0,2600.0,1.91410011508
144,3_29_1,29,1.0,596.469936163,3_D,training,05,1_A,145.0,00010,kill,1.0,2700.0,1.29830830178
145,3_29_1,29,1.0,600.110723069,3_D,training,05,1_A,146.0,00111,ignore,1.0,2800.0,1.61020445603
146,3_29_1,29,1.0,603.063978945,3_D,training,05,1_A,147.0,01011,ignore,1.0,2900.0,0.934538341439
147,3_29_1,29,1.0,606.454787019,3_D,training,05,1_A,148.0,10001,ignore,1.0,3000.0,1.3733240494
148,3_29_1,29,1.0,609.876788204,3_D,training,05,1_A,149.0,10010,ignore,0.0,2900.0,1.43658040009
149,3_29_1,29,1.0,613.501991705,3_D,training,05,1_A,150.0,00100,kill,1.0,3000.0,1.60799529945
150,3_29_1,29,1.0,616.283368912,3_D,training,05,1_A,151.0,11011,ignore,1.0,3100.0,0.788818037084
151,3_29_1,29,1.0,628.752684472,3_D,training,05,1_A,152.0,10110,kill,0.0,3000.0,10.4590863431
152,3_29_1,29,1.0,634.409211618,3_D,training,05,1_A,153.0,01100,kill,1.0,3100.0,3.6540748804
153,3_29_1,29,1.0,637.581253215,3_D,training,05,1_A,154.0,10100,kill,0.0,3000.0,1.1921683988
154,3_29_1,29,1.0,640.472016067,3_D,training,05,1_A,155.0,10101,ignore,1.0,3100.0,0.852699481579
155,3_29_1,29,1.0,643.972155903,3_D,training,05,1_A,156.0,01010,kill,1.0,3200.0,1.50449592871
156,3_29_1,29,1.0,648.456757556,3_D,training,05,1_A,157.0,00000,kill,1.0,3300.0,2.48142871621
157,3_29_1,29,1.0,652.613213181,3_D,training,05,1_A,158.0,10000,ignore,0.0,3200.0,2.13787343662
158,3_29_1,29,1.0,655.863366809,3_D,training,05,1_A,159.0,11100,ignore,1.0,3300.0,1.26594871216
159,3_29_1,29,1.0,659.160390284,3_D,training,05,1_A,160.0,11111,ignore,1.0,3400.0,1.26777748841
160,3_29_1,29,1.0,663.582477103,3_D,training,05,1_A,161.0,00110,kill,1.0,3500.0,2.39705708784
161,3_29_1,29,1.0,666.957654625,3_D,training,05,1_A,162.0,11111,ignore,1.0,3600.0,1.40287312231
162,3_29_1,29,1.0,669.598407213,3_D,training,05,1_A,163.0,10011,ignore,1.0,3700.0,0.623066506902
163,3_29_1,29,1.0,673.161083051,3_D,training,05,1_A,164.0,11101,ignore,1.0,3800.0,1.58096424168
164,3_29_1,29,1.0,676.739338125,3_D,training,05,1_A,165.0,01100,kill,1.0,3900.0,1.55388475438
165,3_29_1,29,1.0,680.802042508,3_D,training,05,1_A,166.0,10010,kill,1.0,4000.0,2.04826468313
166,3_29_1,29,1.0,685.411637265,3_D,training,05,1_A,167.0,00111,ignore,1.0,4100.0,2.61972486892
167,3_29_1,29,1.0,689.318081985,3_D,training,05,1_A,168.0,00101,ignore,1.0,4200.0,1.88671401429
168,3_29_1,29,1.0,695.115227016,3_D,training,05,1_A,169.0,11110,kill,0.0,4100.0,3.8080044722
169,3_29_1,29,1.0,697.880977199,3_D,training,05,1_A,170.0,10101,ignore,1.0,4200.0,0.75457835514
170,3_29_1,29,1.0,701.318649028,3_D,training,05,1_A,171.0,00010,kill,1.0,4300.0,1.44242818637
171,3_29_1,29,1.0,706.365730234,3_D,training,05,1_A,172.0,11100,kill,0.0,4200.0,3.0714326034
172,3_29_1,29,1.0,712.787900762,3_D,training,05,1_A,173.0,01110,ignore,0.0,4100.0,4.39986535948
173,3_29_1,29,1.0,717.413124789,3_D,training,05,1_A,174.0,10001,kill,0.0,4000.0,2.61773797504
174,3_29_1,29,1.0,720.335158689,3_D,training,05,1_A,175.0,01011,ignore,1.0,4100.0,0.942101046463
175,3_29_1,29,1.0,723.710312156,3_D,training,05,1_A,176.0,00000,kill,1.0,4200.0,1.3494829265
176,3_29_1,29,1.0,728.616827436,3_D,training,05,1_A,177.0,01001,ignore,1.0,4300.0,2.92556668972
177,3_29_1,29,1.0,732.179309876,3_D,training,05,1_A,178.0,11000,kill,1.0,4400.0,1.53943639566
178,3_29_1,29,1.0,736.179504235,3_D,training,05,1_A,179.0,01010,ignore,0.0,4300.0,1.96977612084
179,3_29_1,29,1.0,739.679641506,3_D,training,05,1_A,180.0,10111,ignore,1.0,4400.0,1.50367487168
180,3_29_1,29,1.0,744.601802733,3_D,training,05,1_A,181.0,11001,ignore,1.0,4500.0,2.92878548987
181,3_29_1,29,1.0,748.836371672,3_D,training,05,1_A,182.0,00001,ignore,1.0,4600.0,2.2489104958
182,3_29_1,29,1.0,751.789621775,3_D,training,05,1_A,183.0,10110,ignore,1.0,4700.0,0.964298451666
183,3_29_1,29,1.0,754.758522315,3_D,training,05,1_A,184.0,11011,ignore,1.0,4800.0,0.971123808986
184,3_29_1,29,1.0,758.461828225,3_D,training,05,1_A,185.0,10100,kill,0.0,4700.0,1.73105282604
185,3_29_1,29,1.0,760.883844163,3_D,training,05,1_A,186.0,01111,ignore,1.0,4800.0,0.443401587976
186,3_29_1,29,1.0,763.383945192,3_D,training,05,1_A,187.0,00100,ignore,0.0,4700.0,0.479347529067
187,3_29_1,29,1.0,766.352848298,3_D,training,05,1_A,188.0,01101,ignore,1.0,4800.0,0.969851491309
188,3_29_1,29,1.0,769.212349403,3_D,training,05,1_A,189.0,11010,kill,1.0,4900.0,0.873532200189
189,3_29_1,29,1.0,773.540699412,3_D,training,05,1_A,190.0,00011,ignore,1.0,5000.0,2.34931711147
190,3_29_1,29,1.0,780.384775871,3_D,training,05,1_A,191.0,10000,ignore,0.0,4900.0,4.83563207921
191,3_29_1,29,1.0,783.406748768,3_D,training,05,1_A,192.0,01000,ignore,0.0,4800.0,1.03642446339
192,3_29_1,29,1.0,786.266275531,3_D,training,05,1_A,193.0,01011,ignore,1.0,4900.0,0.898687335067
193,3_29_1,29,1.0,789.782028922,3_D,training,05,1_A,194.0,00011,ignore,1.0,5000.0,1.5170513661
194,3_29_1,29,1.0,792.875955281,3_D,training,05,1_A,195.0,00001,ignore,1.0,5100.0,1.13492436654
195,3_29_1,29,1.0,795.938577236,3_D,training,05,1_A,196.0,11101,ignore,1.0,5200.0,1.03808325518
196,3_29_1,29,1.0,801.673216093,3_D,training,05,1_A,197.0,01100,kill,1.0,5300.0,3.738329444
197,3_29_1,29,1.0,806.564117178,3_D,training,05,1_A,198.0,01001,ignore,1.0,5400.0,2.91341825287
198,3_29_1,29,1.0,810.033027019,3_D,training,05,1_A,199.0,11011,kill,0.0,5300.0,1.46499923667
199,3_29_1,29,1.0,812.626899496,3_D,training,05,1_A,200.0,01111,ignore,1.0,5400.0,0.636574819463
200,3_29_1,29,1.0,815.267625465,3_D,training,05,1_A,201.0,10101,ignore,1.0,5500.0,0.674593929566
201,3_29_1,29,1.0,817.986524081,3_D,training,05,1_A,202.0,00000,ignore,0.0,5400.0,0.717584283429
202,3_29_1,29,1.0,820.549143471,3_D,training,05,1_A,203.0,00101,kill,0.0,5300.0,0.600078513579
203,3_29_1,29,1.0,842.612681418,3_D,training,05,1_A,204.0,11111,ignore,1.0,5400.0,20.1200151254
204,3_29_1,29,1.0,1052.01322864,3_D,test,05,2,0.0,10001,kill,0.0,0.0,6.52728827954
205,3_29_1,29,1.0,1059.85737919,3_D,test,05,2,1.0,10010,ignore,1.0,100.0,5.868119959
206,3_29_1,29,1.0,1070.53132621,3_D,test,05,2,2.0,01110,ignore,0.0,0.0,8.68364287611
207,3_29_1,29,1.0,1076.51598656,3_D,test,05,2,3.0,10000,kill,0.0,0.0,4.00099296585
208,3_29_1,29,1.0,1082.65688796,3_D,test,05,2,4.0,10110,ignore,0.0,0.0,4.16450230473
209,3_29_1,29,1.0,1105.95485309,3_D,test,05,2,5.0,00110,ignore,0.0,0.0,21.280776489
210,3_29_1,29,1.0,1127.19023956,3_D,test,05,2,6.0,01010,ignore,1.0,100.0,19.2513037488
211,3_29_1,29,1.0,1137.45635986,3_D,test,05,2,7.0,01101,ignore,1.0,200.0,8.26391435092
212,3_29_1,29,1.0,1145.30047095,3_D,test,05,2,8.0,11001,ignore,1.0,300.0,5.88762327081
213,3_29_1,29,1.0,1163.09702296,3_D,test,05,2,9.0,11110,kill,1.0,400.0,15.797654022
214,3_29_1,29,1.0,1171.05059347,3_D,test,05,2,10.0,11000,ignore,1.0,500.0,5.91823490698
215,3_29_1,29,1.0,1177.37902558,3_D,test,05,2,11.0,10111,ignore,0.0,400.0,4.33979220843
216,3_29_1,29,1.0,1184.69188359,3_D,test,05,2,12.0,00010,kill,0.0,300.0,5.32894431309
217,3_29_1,29,1.0,1193.41107118,3_D,test,05,2,13.0,10100,ignore,0.0,200.0,6.71892427417
218,3_29_1,29,1.0,1205.34915675,3_D,test,05,2,14.0,00100,kill,1.0,300.0,9.88906461077
219,3_29_1,29,1.0,1213.36520072,3_D,test,05,2,15.0,01000,kill,0.0,200.0,6.00308762346
220,3_29_1,29,1.0,1218.14667831,3_D,test,05,2,16.0,11010,kill,0.0,100.0,2.81421820617
221,3_29_1,29,1.0,1225.06888508,3_D,test,05,2,17.0,00111,kill,1.0,200.0,4.89664078626
222,3_29_1,29,1.0,1239.75705371,3_D,test,05,2,18.0,11100,ignore,1.0,300.0,12.6789327028
223,3_29_1,29,1.0,1246.35110708,3_D,test,05,2,19.0,10011,kill,0.0,200.0,4.58416636412
224,3_29_1,29,1.0,1255.3827739,3_D,test,05,2,20.0,01101,kill,0.0,100.0,7.02677576034
225,3_29_1,29,1.0,1262.63312285,3_D,test,05,2,21.0,01011,ignore,1.0,200.0,5.26792855008
226,3_29_1,29,1.0,1269.10905979,3_D,test,05,2,22.0,10111,ignore,0.0,100.0,4.47463607288
227,3_29_1,29,1.0,1302.67317953,3_D,test,05,2,23.0,11111,,,0.0,
228,3_29_1,29,1.0,1311.42357178,3_D,test,05,2,24.0,01110,ignore,0.0,0.0,6.73759145485
229,3_29_1,29,1.0,1317.83012811,3_D,test,05,2,25.0,01000,ignore,1.0,100.0,4.39615071785
230,3_29_1,29,1.0,1325.92426936,3_D,test,05,2,26.0,11000,ignore,1.0,200.0,6.13699015886
231,3_29_1,29,1.0,1331.98704815,3_D,test,05,2,27.0,10110,ignore,0.0,100.0,4.0359902012
232,3_29_1,29,1.0,1357.30076313,3_D,test,05,2,28.0,00100,ignore,0.0,0.0,23.3006903294
233,3_29_1,29,1.0,1368.62938512,3_D,test,05,2,29.0,10010,ignore,1.0,100.0,9.36601696253
234,3_29_1,29,1.0,1378.67676075,3_D,test,05,2,30.0,10001,ignore,1.0,200.0,7.98894684041
235,3_29_1,29,1.0,1384.34888157,3_D,test,05,2,31.0,10000,ignore,1.0,300.0,3.66035051438
236,3_29_1,29,1.0,1390.26053294,3_D,test,05,2,32.0,10101,kill,1.0,400.0,3.83421447293
237,3_29_1,29,1.0,1396.16581086,3_D,test,05,2,33.0,00001,ignore,1.0,500.0,3.82484897041
238,3_29_1,29,1.0,1400.63503534,3_D,test,05,2,34.0,10100,kill,1.0,600.0,2.41708093698
239,3_29_1,29,1.0,1405.76609272,3_D,test,05,2,35.0,11001,ignore,1.0,700.0,3.07408371959
240,3_29_1,29,1.0,1409.56808006,3_D,test,05,2,36.0,01001,ignore,1.0,800.0,1.77795731273
241,3_29_1,29,1.0,1413.49015662,3_D,test,05,2,37.0,11010,ignore,1.0,900.0,1.93741653121
242,3_29_1,29,1.0,1417.33405347,3_D,test,05,2,38.0,11110,kill,1.0,1000.0,1.84871254408
243,3_29_1,29,1.0,1420.91235056,3_D,test,05,3,0.0,11011,ignore,0.0,900.0,1.61381389973
244,3_29_1,29,1.0,1427.94397152,3_D,test,05,3,1.0,11101,kill,0.0,800.0,5.05854874321
245,3_29_1,29,1.0,1435.52284303,3_D,test,05,3,2.0,00010,ignore,1.0,900.0,5.5622944952
246,3_29_1,29,1.0,1442.72630994,3_D,test,05,3,3.0,11100,kill,1.0,1000.0,5.23055345659
247,3_29_1,29,1.0,1451.72669738,3_D,test,05,3,4.0,01010,ignore,1.0,1100.0,7.01593011009
248,3_29_1,29,1.0,1477.99358613,3_D,test,05,3,5.0,01100,kill,0.0,1000.0,24.3141922274
249,3_29_1,29,1.0,1488.0409762,3_D,test,05,3,6.0,00111,kill,0.0,900.0,8.08210281687
250,3_29_1,29,1.0,1501.90099624,3_D,test,05,3,7.0,00110,kill,0.0,800.0,11.8708964788
251,3_29_1,29,1.0,1508.47945465,3_D,test,05,3,8.0,00011,ignore,1.0,900.0,4.61092993689
252,3_29_1,29,1.0,1516.52675331,3_D,test,05,3,9.0,00000,ignore,1.0,1000.0,6.04550419958
253,3_29_1,29,1.0,1522.09576027,3_D,test,05,3,10.0,10011,ignore,0.0,900.0,3.63943312426
254,3_29_1,29,1.0,1533.45568152,3_D,test,05,3,11.0,00101,kill,0.0,800.0,9.32096787229
255,3_29_1,29,1.0,1538.65904837,3_D,test,05,3,12.0,01111,ignore,1.0,900.0,3.21943647264
256,3_29_1,29,1.0,1546.2062476,3_D,test,05,3,13.0,11001,ignore,0.0,800.0,5.60865920103
257,3_29_1,29,1.0,1555.23796157,3_D,test,05,3,14.0,01100,ignore,1.0,900.0,7.01812387185
258,3_29_1,29,1.0,1568.582378,3_D,test,05,3,15.0,01001,ignore,1.0,1000.0,11.4038898218
259,3_29_1,29,1.0,1575.20770883,3_D,test,05,3,16.0,01000,kill,0.0,900.0,4.62569934174
260,3_29_1,29,1.0,1581.12981361,3_D,test,05,3,17.0,11100,ignore,0.0,800.0,3.94823491981
261,3_29_1,29,1.0,1590.91154586,3_D,test,05,3,18.0,10010,ignore,0.0,700.0,7.83588256575
262,3_29_1,29,1.0,1615.11579085,3_D,test,05,3,19.0,01011,ignore,1.0,800.0,22.2437872282
263,3_29_1,29,1.0,1625.88194322,3_D,test,05,3,20.0,00110,ignore,1.0,900.0,8.83379464337
264,3_29_1,29,1.0,1651.02373496,3_D,test,05,3,21.0,10001,ignore,0.0,800.0,23.1452052194
265,3_29_1,29,1.0,1666.11820912,3_D,test,05,3,22.0,10100,kill,1.0,900.0,13.1185407507
266,3_29_1,29,1.0,1683.65030379,3_D,test,05,3,23.0,11000,kill,1.0,1000.0,15.6095780793
267,3_29_1,29,1.0,1695.26020741,3_D,test,05,3,24.0,00111,ignore,1.0,1100.0,9.66101505742
268,3_29_1,29,1.0,1703.40121914,3_D,test,05,3,25.0,11101,kill,0.0,1000.0,6.17865303028
269,3_29_1,29,1.0,1709.66717812,3_D,test,05,3,26.0,00000,ignore,1.0,1100.0,4.30327954554
270,3_29_1,29,1.0,1730.76190469,3_D,test,05,3,27.0,00101,ignore,1.0,1200.0,19.1265880718
271,3_29_1,29,1.0,1738.41852837,3_D,test,05,3,28.0,00001,ignore,1.0,1300.0,5.72408025576
272,3_29_1,29,1.0,1752.62231088,3_D,test,05,3,29.0,10101,kill,0.0,1200.0,12.1923313273
273,3_29_1,29,1.0,1760.56294621,3_D,test,05,3,30.0,01010,ignore,1.0,1300.0,5.96661729634
274,3_29_1,29,1.0,1775.8292923,3_D,test,05,3,31.0,10111,kill,0.0,1200.0,13.3240105942
275,3_29_1,29,1.0,1784.03282015,3_D,test,05,3,32.0,10000,kill,1.0,1300.0,6.23607538586
276,3_29_1,29,1.0,1809.69030787,3_D,test,05,3,33.0,11011,ignore,0.0,1200.0,23.7348954371
277,3_29_1,29,1.0,1816.47225084,3_D,test,05,3,34.0,10011,kill,1.0,1300.0,4.77316407157
278,3_29_1,29,1.0,1822.31627983,3_D,test,05,3,35.0,01101,ignore,1.0,1400.0,3.88177676742
279,3_29_1,29,1.0,1830.53541739,3_D,test,05,3,36.0,01111,ignore,1.0,1500.0,6.28492410995
280,3_29_1,29,1.0,1840.34838829,3_D,test,05,3,37.0,01110,kill,0.0,1400.0,7.85252083753
281,3_29_1,29,1.0,1846.17679411,3_D,test,05,4,0.0,00011,ignore,0.0,1300.0,3.89327958403
282,3_29_1,29,1.0,1853.91156061,3_D,test,05,4,1.0,11110,kill,0.0,1200.0,5.79963706713
283,3_29_1,29,1.0,1861.61504741,3_D,test,05,4,2.0,00100,ignore,1.0,1300.0,5.72191952871
284,3_29_1,29,1.0,1868.39662539,3_D,test,05,4,3.0,11111,ignore,1.0,1400.0,4.86727677191
285,3_29_1,29,1.0,1875.38132551,3_D,test,05,4,4.0,10110,kill,1.0,1500.0,5.05333118233
286,3_29_1,29,1.0,1882.41287719,3_D,test,05,4,5.0,11010,kill,0.0,1400.0,5.08750415339
287,3_29_1,29,1.0,1886.38182969,3_D,test,05,4,6.0,00010,ignore,0.0,1300.0,2.03314280106
288,3_29_1,29,1.0,1893.14777872,3_D,test,05,4,7.0,01011,ignore,0.0,1200.0,4.80643067264
289,3_29_1,29,1.0,1898.74180066,3_D,test,05,4,8.0,00011,ignore,0.0,1100.0,3.6923111216
290,3_29_1,29,1.0,1913.49250657,3_D,test,05,4,9.0,11100,kill,0.0,1000.0,12.8236850579
291,3_29_1,29,1.0,1920.46156106,3_D,test,05,4,10.0,00001,ignore,1.0,1100.0,5.00412260434
292,3_29_1,29,1.0,1927.96821162,3_D,test,05,4,11.0,11110,ignore,1.0,1200.0,5.59371307649
293,3_29_1,29,1.0,1933.12467366,3_D,test,05,4,12.0,00000,ignore,1.0,1300.0,3.18141255165
294,3_29_1,29,1.0,1946.73470589,3_D,test,05,4,13.0,10010,ignore,0.0,1200.0,11.7176153938
295,3_29_1,29,1.0,1953.06312389,3_D,test,05,4,14.0,10110,ignore,0.0,1100.0,4.31857494006
296,3_29_1,29,1.0,1959.78221943,3_D,test,05,4,15.0,01111,ignore,0.0,1000.0,4.75785681022
297,3_29_1,29,1.0,1963.81054333,3_D,test,05,4,16.0,10011,ignore,0.0,900.0,2.10916209847
298,3_29_1,29,1.0,1969.38895332,3_D,test,05,4,17.0,11010,ignore,1.0,1000.0,3.63180370836
299,3_29_1,29,1.0,1996.63600714,3_D,test,05,4,18.0,10000,ignore,1.0,1100.0,25.333565004
300,3_29_1,29,1.0,2000.35804213,3_D,test,05,4,19.0,00110,ignore,0.0,1000.0,1.73126963641
301,3_29_1,29,1.0,2013.70242808,3_D,test,05,4,20.0,01001,ignore,1.0,1100.0,11.3798177767
302,3_29_1,29,1.0,2016.65571122,3_D,test,05,4,21.0,01101,kill,0.0,1000.0,1.021124258
303,3_29_1,29,1.0,2019.31209212,3_D,test,05,4,22.0,11101,ignore,1.0,1100.0,0.683065891109
304,3_29_1,29,1.0,2022.42161856,3_D,test,05,4,23.0,00101,ignore,1.0,1200.0,1.18504701193
305,3_29_1,29,1.0,2025.32801517,3_D,test,05,4,24.0,00100,ignore,1.0,1300.0,0.977180066789
306,3_29_1,29,1.0,2028.10935742,3_D,test,05,4,25.0,11000,ignore,1.0,1400.0,0.818193276826
307,3_29_1,29,1.0,2030.76574569,3_D,test,05,4,26.0,01110,ignore,0.0,1300.0,0.762989058132
308,3_29_1,29,1.0,2033.54710302,3_D,test,05,4,27.0,01000,ignore,1.0,1400.0,0.861634891332
309,3_29_1,29,1.0,2036.01599939,3_D,test,05,4,28.0,11001,ignore,1.0,1500.0,0.49852690822
310,3_29_1,29,1.0,2038.64113104,3_D,test,05,4,29.0,10100,ignore,1.0,1600.0,0.68644056381
311,3_29_1,29,1.0,2041.45376326,3_D,test,05,4,30.0,11111,ignore,1.0,1700.0,0.858931817627
312,3_29_1,29,1.0,2044.15702427,3_D,test,05,4,31.0,01010,ignore,0.0,1600.0,0.802644188519
313,3_29_1,29,1.0,2046.56333525,3_D,test,05,4,32.0,00111,ignore,0.0,1500.0,0.424459545622
314,3_29_1,29,1.0,2049.98540924,3_D,test,05,4,33.0,00010,ignore,0.0,1400.0,1.47172324477
315,3_29_1,29,1.0,2052.37612655,3_D,test,05,4,34.0,10001,ignore,1.0,1500.0,0.477859042468
316,3_29_1,29,1.0,2054.90751402,3_D,test,05,4,35.0,11011,ignore,1.0,1600.0,0.578477657627
317,3_29_1,29,1.0,2057.39204511,3_D,test,05,4,36.0,10101,ignore,1.0,1700.0,0.589722611013
318,3_29_1,29,1.0,2061.15780011,3_D,test,05,4,37.0,10111,ignore,0.0,1600.0,1.78883663916
319,3_29_1,29,1.0,2063.45480722,3_D,test,05,4,38.0,01100,kill,0.0,1500.0,0.340558421415
320,3_29_1,29,1.0,2065.61116342,3_D,test,05,4,39.0,10101,ignore,1.0,1600.0,0.239892659622
321,3_29_1,29,1.0,2067.75188811,3_D,test,05,4,40.0,11101,ignore,1.0,1700.0,0.190585939655
322,3_29_1,29,1.0,2069.8769707,3_D,test,05,4,41.0,10011,ignore,0.0,1600.0,0.217643938354
323,3_29_1,29,1.0,2072.72085729,3_D,test,05,4,42.0,11001,ignore,1.0,1700.0,0.913933017141
324,3_29_1,29,1.0,2075.2835033,3_D,test,05,4,43.0,11100,ignore,1.0,1800.0,0.596796530521
325,3_29_1,29,1.0,2077.43985212,3_D,test,05,4,44.0,01101,ignore,1.0,1900.0,0.262033296429
326,3_29_1,29,1.0,2079.93993936,3_D,test,05,4,45.0,10100,ignore,1.0,2000.0,0.581712173325
327,3_29_1,29,1.0,2083.34636355,3_D,test,05,4,46.0,01110,ignore,0.0,1900.0,1.47084638151
328,3_29_1,29,1.0,2085.54961365,3_D,test,05,4,47.0,01010,ignore,0.0,1800.0,0.301415810222
329,3_29_1,29,1.0,2089.05619879,3_D,test,05,4,48.0,01000,ignore,1.0,1900.0,1.5774837296
330,3_29_1,29,1.0,2094.2282994,3_D,test,05,4,49.0,10110,ignore,0.0,1800.0,3.27654900748
331,3_29_1,29,1.0,2098.24410635,3_D,test,05,4,50.0,00011,ignore,0.0,1700.0,2.09630293412
332,3_29_1,29,1.0,2101.16610914,3_D,test,05,4,51.0,00101,ignore,1.0,1800.0,0.93015530807
333,3_29_1,29,1.0,2105.44758449,3_D,test,05,4,52.0,00000,ignore,1.0,1900.0,2.34938735033
334,3_29_1,29,1.0,2108.18204727,3_D,test,05,4,53.0,00111,ignore,0.0,1800.0,0.765182178444
335,3_29_1,29,1.0,2110.79159808,3_D,test,05,4,54.0,10001,ignore,1.0,1900.0,0.70420490248
336,3_29_1,29,1.0,2113.46358003,3_D,test,05,4,55.0,00100,ignore,1.0,2000.0,0.657236591434
337,3_29_1,29,1.0,2117.1043679,3_D,test,05,4,56.0,10111,ignore,0.0,1900.0,1.68651400993
338,3_29_1,29,1.0,2122.96402808,3_D,test,05,4,57.0,00010,kill,1.0,2000.0,3.93922478104
339,3_29_1,29,1.0,2125.4641259,3_D,test,05,4,58.0,01111,ignore,0.0,1900.0,0.547282942668
340,3_29_1,29,1.0,2127.82362893,3_D,test,05,4,59.0,00001,ignore,1.0,2000.0,0.447103400586
341,3_29_1,29,1.0,2130.51127574,3_D,test,05,4,60.0,01011,ignore,0.0,1900.0,0.707760464308
342,3_29_1,29,1.0,2132.77696595,3_D,test,05,4,61.0,11111,ignore,1.0,2000.0,0.327680975724
343,3_29_1,29,1.0,2135.2927434,3_D,test,05,4,62.0,10000,ignore,1.0,2100.0,0.604660396699
344,3_29_1,29,1.0,2138.23035268,3_D,test,05,4,63.0,11110,ignore,1.0,2200.0,0.980326703725
345,3_29_1,29,1.0,2141.01176774,3_D,test,05,4,64.0,10010,ignore,0.0,2100.0,0.903353889694
346,3_29_1,29,1.0,2144.10563155,3_D,test,05,4,65.0,01001,ignore,1.0,2200.0,1.16455907313
347,3_29_1,29,1.0,2146.80893875,3_D,test,05,4,66.0,11011,ignore,1.0,2300.0,0.749155850737
348,3_29_1,29,1.0,2149.15275702,3_D,test,05,4,67.0,01100,ignore,1.0,2400.0,0.440157129789
349,3_29_1,29,1.0,2156.7468803,3_D,test,05,4,68.0,11010,ignore,1.0,2500.0,5.69688113788
350,3_29_1,29,1.0,2160.77830498,3_D,test,05,4,69.0,11000,ignore,1.0,2600.0,2.0809809194
351,3_29_1,29,1.0,2163.51282324,3_D,test,05,4,70.0,00110,ignore,0.0,2500.0,0.813943023773
352,3_29_1,29,1.0,2169.55999842,3_D,test,05,4,71.0,11001,ignore,1.0,2600.0,4.09301774381
353,3_29_1,29,1.0,2172.15384877,3_D,test,05,4,72.0,00110,ignore,0.0,2500.0,0.696839122854
354,3_29_1,29,1.0,2174.56022068,3_D,test,05,4,73.0,10001,ignore,1.0,2600.0,0.427252101713
355,3_29_1,29,1.0,2177.49784505,3_D,test,05,4,74.0,00010,ignore,0.0,2500.0,0.986628316461
356,3_29_1,29,1.0,2180.09173709,3_D,test,05,4,75.0,00101,ignore,1.0,2600.0,0.675488111992
357,3_29_1,29,1.0,2183.06064212,3_D,test,05,4,76.0,01001,ignore,1.0,2700.0,1.02466314211
358,3_29_1,29,1.0,2185.2638749,3_D,test,05,4,77.0,01000,ignore,1.0,2800.0,0.305465930623
359,3_29_1,29,1.0,2187.73273535,3_D,test,05,4,78.0,01101,ignore,1.0,2900.0,0.484276437074
360,3_29_1,29,1.0,2190.46724175,3_D,test,05,4,79.0,10110,ignore,0.0,2800.0,0.784900697
361,3_29_1,29,1.0,2193.3423702,3_D,test,05,4,80.0,01100,ignore,1.0,2900.0,0.963479318985
362,3_29_1,29,1.0,2198.26448268,3_D,test,05,4,81.0,00111,kill,1.0,3000.0,2.95554136524
363,3_29_1,29,1.0,2201.20212917,3_D,test,05,4,82.0,11110,kill,0.0,2900.0,1.04623224625
364,3_29_1,29,1.0,2204.09286957,3_D,test,05,4,83.0,10101,ignore,1.0,3000.0,0.955796341935
365,3_29_1,29,1.0,2207.63990042,3_D,test,05,4,84.0,01110,kill,1.0,3100.0,1.60600295324
366,3_29_1,29,1.0,2210.20253745,3_D,test,05,4,85.0,00001,ignore,1.0,3200.0,0.66314659845
367,3_29_1,29,1.0,2214.60902162,3_D,test,05,4,86.0,11111,kill,0.0,3100.0,2.50225149233
368,3_29_1,29,1.0,2218.29666972,3_D,test,05,4,87.0,01011,kill,1.0,3200.0,1.73654589003
369,3_29_1,29,1.0,2220.87494532,3_D,test,05,4,88.0,10100,ignore,1.0,3300.0,0.650974427922
370,3_29_1,29,1.0,2223.2187838,3_D,test,05,4,89.0,00000,ignore,1.0,3400.0,0.37611403969
371,3_29_1,29,1.0,2227.09396356,3_D,test,05,4,90.0,11010,kill,0.0,3300.0,2.00446193182
372,3_29_1,29,1.0,2229.56285961,3_D,test,05,4,91.0,11100,ignore,1.0,3400.0,0.506357418956
373,3_29_1,29,1.0,2234.15678405,3_D,test,05,4,92.0,11011,ignore,1.0,3500.0,2.63829198328
374,3_29_1,29,1.0,2236.96944321,3_D,test,05,4,93.0,10011,ignore,0.0,3400.0,0.908581393051
375,3_29_1,29,1.0,2240.5477435,3_D,test,05,4,94.0,00011,ignore,0.0,3300.0,1.6160974646
376,3_29_1,29,1.0,2242.96973603,3_D,test,05,4,95.0,11000,ignore,1.0,3400.0,0.529395766168
377,3_29_1,29,1.0,2251.64198033,3_D,test,05,4,96.0,01010,ignore,0.0,3300.0,6.69046662981
378,3_29_1,29,1.0,2254.44217481,3_D,test,05,4,97.0,11101,ignore,1.0,3400.0,0.866125367712
379,3_29_1,29,1.0,2261.426907,3_D,test,05,4,98.0,10010,ignore,0.0,3300.0,5.08112588729
380,3_29_1,29,1.0,2264.13705879,3_D,test,05,5,0.0,00100,ignore,0.0,3200.0,0.753853515727
381,3_29_1,29,1.0,2267.74660769,3_D,test,05,5,1.0,10111,kill,1.0,3300.0,1.72654599266
382,3_29_1,29,1.0,2271.90306363,3_D,test,05,5,2.0,01111,kill,1.0,3400.0,2.25073766843
383,3_29_1,29,1.0,2275.18445239,3_D,test,05,5,3.0,10000,ignore,1.0,3500.0,1.34320633035
384,3_29_1,29,1.0,2277.98147041,3_D,test,05,5,4.0,00101,ignore,0.0,3400.0,0.874519713708
385,3_29_1,29,1.0,2281.98166605,3_D,test,05,5,5.0,11111,kill,1.0,3500.0,2.05571288918
