,unique_id,pair_id,sbj_id,wall_time,condition,block,rule_id,rule_num,trial,stimulus,choice,correct,points,reaction_time
0,1_24_2,24,2.0,64.8653105545,1_I,training,05,1_B,1.0,00011,ignore,1.0,100.0,11.8268038105
1,1_24_2,24,2.0,74.2072622476,1_I,training,05,1_B,2.0,00010,kill,0.0,0.0,7.17411823629
2,1_24_2,24,2.0,78.5255338409,1_I,training,05,1_B,3.0,11010,kill,0.0,0.0,2.17772801261
3,1_24_2,24,2.0,88.1509849603,1_I,training,05,1_B,4.0,01000,kill,1.0,100.0,7.45577808476
4,1_24_2,24,2.0,92.3574138352,1_I,training,05,1_B,5.0,00001,kill,1.0,200.0,2.04205699366
5,1_24_2,24,2.0,98.6296138775,1_I,training,05,1_B,6.0,00100,kill,0.0,100.0,4.08969142632
6,1_24_2,24,2.0,106.189875959,1_I,training,05,1_B,7.0,11000,ignore,0.0,0.0,5.40275136141
7,1_24_2,24,2.0,121.368210732,1_I,training,05,1_B,8.0,01101,ignore,0.0,0.0,13.0091046991
8,1_24_2,24,2.0,129.212317494,1_I,training,05,1_B,9.0,00101,kill,1.0,100.0,5.66464098264
9,1_24_2,24,2.0,137.215818481,1_I,training,05,1_B,10.0,11100,kill,1.0,200.0,5.85602604392
10,1_24_2,24,2.0,141.716045298,1_I,training,05,1_B,11.0,11101,kill,1.0,300.0,2.33678847729
11,1_24_2,24,2.0,148.294479419,1_I,training,05,1_B,12.0,11001,kill,1.0,400.0,4.38416838233
12,1_24_2,24,2.0,154.391672431,1_I,training,05,1_B,13.0,00110,ignore,1.0,500.0,3.90015743765
13,1_24_2,24,2.0,163.614002714,1_I,training,05,1_B,14.0,01100,kill,1.0,600.0,7.07571703919
14,1_24_2,24,2.0,172.542572412,1_I,training,05,1_B,15.0,11111,kill,0.0,500.0,6.78336005189
15,1_24_2,24,2.0,177.402241075,1_I,training,05,1_B,16.0,01111,ignore,1.0,600.0,2.66976109299
16,1_24_2,24,2.0,181.746095567,1_I,training,05,1_B,17.0,01011,ignore,1.0,700.0,2.09930764383
17,1_24_2,24,2.0,190.840324974,1_I,training,05,1_B,18.0,11011,ignore,1.0,800.0,6.78905982836
18,1_24_2,24,2.0,195.590494625,1_I,training,05,1_B,19.0,10011,kill,0.0,700.0,2.53017281193
19,1_24_2,24,2.0,200.031391055,1_I,training,05,1_B,20.0,10100,kill,0.0,600.0,2.08017743038
20,1_24_2,24,2.0,205.828580167,1_I,training,05,1_B,21.0,11110,kill,0.0,500.0,3.51015873081
21,1_24_2,24,2.0,209.406985962,1_I,training,05,1_B,22.0,01110,ignore,1.0,600.0,1.22982242594
22,1_24_2,24,2.0,214.797755231,1_I,training,05,1_B,23.0,10001,ignore,0.0,500.0,3.10947437995
23,1_24_2,24,2.0,227.079536596,1_I,training,05,1_B,24.0,10111,kill,0.0,400.0,9.87249562274
24,1_24_2,24,2.0,231.939174058,1_I,training,05,1_B,25.0,00111,ignore,1.0,500.0,2.52108740766
25,1_24_2,24,2.0,235.783057082,1_I,training,05,1_B,26.0,10110,ignore,1.0,600.0,1.53661112901
26,1_24_2,24,2.0,244.033435897,1_I,training,05,1_B,27.0,10000,kill,0.0,500.0,5.88960398377
27,1_24_2,24,2.0,247.814859897,1_I,training,05,1_B,28.0,10010,ignore,1.0,600.0,1.57877486006
28,1_24_2,24,2.0,253.40888753,1_I,training,05,1_B,29.0,10101,ignore,0.0,500.0,3.38324674605
29,1_24_2,24,2.0,257.049703496,1_I,training,05,1_B,30.0,01010,ignore,1.0,600.0,1.43947805418
30,1_24_2,24,2.0,266.284488389,1_I,training,05,1_B,31.0,00000,ignore,1.0,700.0,6.99833202306
31,1_24_2,24,2.0,272.800458971,1_I,training,05,1_B,32.0,01001,ignore,0.0,600.0,4.28599174427
32,1_24_2,24,2.0,281.425871911,1_I,training,05,1_B,33.0,11001,ignore,0.0,500.0,6.4251374757
33,1_24_2,24,2.0,287.238611429,1_I,training,05,1_B,34.0,11101,ignore,0.0,400.0,3.53765633435
34,1_24_2,24,2.0,291.035672866,1_I,training,05,1_B,35.0,01010,ignore,1.0,500.0,1.52360558893
35,1_24_2,24,2.0,297.582850586,1_I,training,05,1_B,36.0,00001,ignore,0.0,400.0,4.27432083206
36,1_24_2,24,2.0,302.942457464,1_I,training,05,1_B,37.0,10100,ignore,1.0,500.0,3.02305609665
37,1_24_2,24,2.0,309.099015758,1_I,training,05,1_B,38.0,10111,kill,0.0,400.0,3.76455497694
38,1_24_2,24,2.0,319.20885674,1_I,training,05,1_B,39.0,01110,ignore,1.0,500.0,7.86237322369
39,1_24_2,24,2.0,322.740303011,1_I,training,05,1_B,40.0,10110,kill,0.0,400.0,1.31363754857
40,1_24_2,24,2.0,326.193596167,1_I,training,05,1_B,41.0,10011,ignore,1.0,500.0,1.23417443763
41,1_24_2,24,2.0,333.772029878,1_I,training,05,1_B,42.0,00100,kill,0.0,400.0,5.33988755627
42,1_24_2,24,2.0,337.506610944,1_I,training,05,1_B,43.0,10001,kill,1.0,500.0,1.54353469068
43,1_24_2,24,2.0,345.366348165,1_I,training,05,1_B,44.0,11111,kill,0.0,400.0,5.62413332321
44,1_24_2,24,2.0,349.444651944,1_I,training,05,1_B,45.0,10101,kill,1.0,500.0,1.91991822274
45,1_24_2,24,2.0,354.976219321,1_I,training,05,1_B,46.0,11100,kill,1.0,600.0,3.36484563105
46,1_24_2,24,2.0,359.507756319,1_I,training,05,1_B,47.0,01101,kill,1.0,700.0,2.26556056628
47,1_24_2,24,2.0,363.804755151,1_I,training,05,1_B,48.0,01001,kill,1.0,800.0,2.05202380244
48,1_24_2,24,2.0,367.195510461,1_I,training,05,1_B,49.0,00011,ignore,1.0,900.0,1.10759949669
49,1_24_2,24,2.0,370.476912087,1_I,training,05,1_B,50.0,10010,ignore,1.0,1000.0,0.986285887881
50,1_24_2,24,2.0,373.570783514,1_I,training,05,1_B,51.0,01011,ignore,1.0,1100.0,0.831071253364
51,1_24_2,24,2.0,376.617800101,1_I,training,05,1_B,52.0,11110,ignore,1.0,1200.0,0.784885575468
52,1_24_2,24,2.0,380.055481683,1_I,training,05,1_B,53.0,10000,kill,0.0,1100.0,1.16618764843
53,1_24_2,24,2.0,383.446263678,1_I,training,05,1_B,54.0,00010,ignore,1.0,1200.0,1.14349486942
54,1_24_2,24,2.0,386.383931918,1_I,training,05,1_B,55.0,01111,ignore,1.0,1300.0,0.633904720461
55,1_24_2,24,2.0,389.868446992,1_I,training,05,1_B,56.0,00111,ignore,1.0,1400.0,1.11480919666
56,1_24_2,24,2.0,393.884285999,1_I,training,05,1_B,57.0,11010,ignore,1.0,1500.0,1.73932513234
57,1_24_2,24,2.0,397.4938275,1_I,training,05,1_B,58.0,01100,kill,1.0,1600.0,1.44441876361
58,1_24_2,24,2.0,401.462739005,1_I,training,05,1_B,59.0,00101,kill,1.0,1700.0,1.76744797066
59,1_24_2,24,2.0,404.759799005,1_I,training,05,1_B,60.0,00000,kill,0.0,1600.0,1.06960427114
60,1_24_2,24,2.0,407.916197193,1_I,training,05,1_B,61.0,11000,kill,1.0,1700.0,0.952525262892
61,1_24_2,24,2.0,410.947594406,1_I,training,05,1_B,62.0,01000,kill,1.0,1800.0,0.813755575489
62,1_24_2,24,2.0,413.822717,1_I,training,05,1_B,63.0,00110,ignore,1.0,1900.0,0.665306859725
63,1_24_2,24,2.0,417.182254088,1_I,training,05,1_B,64.0,11011,ignore,1.0,2000.0,1.18677154299
64,1_24_2,24,2.0,420.494924432,1_I,training,05,1_B,65.0,00000,kill,0.0,1900.0,1.08773074263
65,1_24_2,24,2.0,423.604414001,1_I,training,05,1_B,66.0,01100,kill,1.0,2000.0,0.82740728729
66,1_24_2,24,2.0,426.510809829,1_I,training,05,1_B,67.0,11011,ignore,1.0,2100.0,0.734800698719
67,1_24_2,24,2.0,429.354724464,1_I,training,05,1_B,68.0,11111,ignore,1.0,2200.0,0.578970682113
68,1_24_2,24,2.0,432.745487574,1_I,training,05,1_B,69.0,10000,kill,0.0,2100.0,1.12523251303
69,1_24_2,24,2.0,435.823772879,1_I,training,05,1_B,70.0,01001,kill,1.0,2200.0,0.773431422255
70,1_24_2,24,2.0,440.480209862,1_I,training,05,1_B,71.0,10100,kill,0.0,2100.0,2.48056291656
71,1_24_2,24,2.0,443.292880411,1_I,training,05,1_B,72.0,11101,kill,1.0,2200.0,0.553932554287
72,1_24_2,24,2.0,447.121147755,1_I,training,05,1_B,73.0,10101,ignore,0.0,2100.0,1.58082791265
73,1_24_2,24,2.0,450.136907531,1_I,training,05,1_B,74.0,00110,ignore,1.0,2200.0,0.767227927427
74,1_24_2,24,2.0,453.918329478,1_I,training,05,1_B,75.0,10001,ignore,0.0,2100.0,1.55587722737
75,1_24_2,24,2.0,457.090413135,1_I,training,05,1_B,76.0,00100,kill,0.0,2000.0,0.799574282037
76,1_24_2,24,2.0,460.715556358,1_I,training,05,1_B,77.0,10011,ignore,1.0,2100.0,1.32032998274
77,1_24_2,24,2.0,463.762572535,1_I,training,05,1_B,78.0,00101,kill,1.0,2200.0,0.808292673915
78,1_24_2,24,2.0,466.747121067,1_I,training,05,1_B,79.0,00010,ignore,1.0,2300.0,0.745548743065
79,1_24_2,24,2.0,469.591013123,1_I,training,05,1_B,80.0,00111,ignore,1.0,2400.0,0.6632402597
80,1_24_2,24,2.0,472.372352143,1_I,training,05,1_B,81.0,01011,ignore,1.0,2500.0,0.635248379952
81,1_24_2,24,2.0,475.216258567,1_I,training,05,1_B,82.0,10110,ignore,1.0,2600.0,0.714670848583
82,1_24_2,24,2.0,478.622676768,1_I,training,05,1_B,83.0,11000,kill,1.0,2700.0,1.09067792609
83,1_24_2,24,2.0,481.747791049,1_I,training,05,1_B,84.0,00011,ignore,1.0,2800.0,0.826119870191
84,1_24_2,24,2.0,485.388642731,1_I,training,05,1_B,85.0,01111,ignore,1.0,2900.0,1.44155655953
85,1_24_2,24,2.0,488.123100228,1_I,training,05,1_B,86.0,10010,ignore,1.0,3000.0,0.498168016963
86,1_24_2,24,2.0,491.154471168,1_I,training,05,1_B,87.0,00001,kill,1.0,3100.0,0.794366729135
87,1_24_2,24,2.0,494.170240795,1_I,training,05,1_B,88.0,01000,kill,1.0,3200.0,0.831453455315
88,1_24_2,24,2.0,496.842235163,1_I,training,05,1_B,89.0,11110,ignore,1.0,3300.0,0.450951912754
89,1_24_2,24,2.0,499.342344158,1_I,training,05,1_B,90.0,10111,ignore,1.0,3400.0,0.339402722214
90,1_24_2,24,2.0,502.154981865,1_I,training,05,1_B,91.0,01010,ignore,1.0,3500.0,0.640229321171
91,1_24_2,24,2.0,505.655164755,1_I,training,05,1_B,92.0,01101,kill,1.0,3600.0,1.27398707246
92,1_24_2,24,2.0,508.780350879,1_I,training,05,1_B,93.0,11010,ignore,1.0,3700.0,0.915203303933
93,1_24_2,24,2.0,512.014906287,1_I,training,05,1_B,94.0,01110,ignore,1.0,3800.0,1.02530004495
94,1_24_2,24,2.0,517.33073072,1_I,training,05,1_B,95.0,11100,kill,1.0,3900.0,3.13204769519
95,1_24_2,24,2.0,521.502852146,1_I,training,05,1_B,96.0,11001,kill,1.0,4000.0,2.01384466015
96,1_24_2,24,2.0,525.221749795,1_I,training,05,1_B,97.0,11011,ignore,1.0,4100.0,1.55951984597
97,1_24_2,24,2.0,528.534379497,1_I,training,05,1_B,98.0,01000,kill,1.0,4200.0,1.18674403759
98,1_24_2,24,2.0,531.378279352,1_I,training,05,1_B,99.0,11110,ignore,1.0,4300.0,0.675433774583
99,1_24_2,24,2.0,534.35035562,1_I,training,05,1_B,100.0,01001,kill,1.0,4400.0,0.820144218631
100,1_24_2,24,2.0,537.506746419,1_I,training,05,1_B,101.0,01101,kill,1.0,4500.0,0.836980809849
101,1_24_2,24,2.0,540.475607839,1_I,training,05,1_B,102.0,11001,kill,1.0,4600.0,0.67304901504
102,1_24_2,24,2.0,543.491405793,1_I,training,05,1_B,103.0,00111,ignore,1.0,4700.0,0.857045796497
103,1_24_2,24,2.0,546.522759079,1_I,training,05,1_B,104.0,00001,kill,1.0,4800.0,0.859411671733
104,1_24_2,24,2.0,549.288523473,1_I,training,05,1_B,105.0,00110,ignore,1.0,4900.0,0.601679061204
105,1_24_2,24,2.0,552.085532774,1_I,training,05,1_B,106.0,10010,ignore,1.0,5000.0,0.627613783081
106,1_24_2,24,2.0,555.304512323,1_I,training,05,1_B,107.0,00000,kill,0.0,4900.0,1.0090726779
107,1_24_2,24,2.0,559.163962995,1_I,training,05,1_B,108.0,00010,ignore,1.0,5000.0,1.6541458238
108,1_24_2,24,2.0,562.78917765,1_I,training,05,1_B,109.0,10011,ignore,1.0,5100.0,1.24699236622
109,1_24_2,24,2.0,566.211191415,1_I,training,05,1_B,110.0,11010,ignore,1.0,5200.0,1.19798676867
110,1_24_2,24,2.0,569.476946161,1_I,training,05,1_B,111.0,11111,ignore,1.0,5300.0,1.02516128635
111,1_24_2,24,2.0,575.336622624,1_I,training,05,1_B,112.0,01100,kill,1.0,5400.0,3.63342317063
112,1_24_2,24,2.0,578.717679201,1_I,training,05,1_B,113.0,01010,ignore,1.0,5500.0,1.23302331596
113,1_24_2,24,2.0,585.046114246,1_I,training,05,1_B,114.0,00100,kill,0.0,5400.0,4.10321505326
114,1_24_2,24,2.0,591.45268229,1_I,training,05,1_B,115.0,11000,ignore,0.0,5300.0,4.23973217126
115,1_24_2,24,2.0,595.187233798,1_I,training,05,1_B,116.0,10101,kill,1.0,5400.0,1.58570950599
116,1_24_2,24,2.0,600.968771104,1_I,training,05,1_B,117.0,10111,ignore,1.0,5500.0,3.61004686182
117,1_24_2,24,2.0,603.843892877,1_I,training,05,1_B,118.0,11100,kill,1.0,5600.0,0.716544500253
118,1_24_2,24,2.0,606.578381163,1_I,training,05,1_B,119.0,10110,ignore,1.0,5700.0,0.546695759447
119,1_24_2,24,2.0,609.406598423,1_I,training,05,1_B,120.0,00101,kill,1.0,5800.0,0.563008105883
120,1_24_2,24,2.0,612.219268972,1_I,training,05,1_B,121.0,10000,ignore,1.0,5900.0,0.57764057006
121,1_24_2,24,2.0,615.641281095,1_I,training,05,1_B,122.0,01011,ignore,1.0,6000.0,1.16107287495
122,1_24_2,24,2.0,618.438317901,1_I,training,05,1_B,123.0,01110,ignore,1.0,6100.0,0.60410692623
123,1_24_2,24,2.0,621.360306829,1_I,training,05,1_B,124.0,10001,kill,1.0,6200.0,0.675111099251
124,1_24_2,24,2.0,624.266724825,1_I,training,05,1_B,125.0,10100,kill,0.0,6100.0,0.603867588166
125,1_24_2,24,2.0,627.141846598,1_I,training,05,1_B,126.0,01111,ignore,1.0,6200.0,0.682799475345
126,1_24_2,24,2.0,629.970138163,1_I,training,05,1_B,127.0,00011,ignore,1.0,6300.0,0.604568770693
127,1_24_2,24,2.0,633.048398426,1_I,training,05,1_B,128.0,11101,kill,1.0,6400.0,0.901853741043
128,1_24_2,24,2.0,635.923555504,1_I,training,05,1_B,129.0,00010,ignore,1.0,6500.0,0.66136660803
129,1_24_2,24,2.0,638.814249441,1_I,training,05,1_B,130.0,01011,ignore,1.0,6600.0,0.672755487225
130,1_24_2,24,2.0,641.626889611,1_I,training,05,1_B,131.0,00111,ignore,1.0,6700.0,0.627570267069
131,1_24_2,24,2.0,644.548949971,1_I,training,05,1_B,132.0,10010,ignore,1.0,6800.0,0.704495491372
132,1_24_2,24,2.0,647.720901438,1_I,training,05,1_B,133.0,10001,kill,1.0,6900.0,0.969252243025
133,1_24_2,24,2.0,651.189877601,1_I,training,05,1_B,134.0,11000,kill,1.0,7000.0,1.24503660887
134,1_24_2,24,2.0,654.924399961,1_I,training,05,1_B,135.0,01001,kill,1.0,7100.0,1.50531654819
135,1_24_2,24,2.0,657.846410647,1_I,training,05,1_B,136.0,10011,ignore,1.0,7200.0,0.71831059348
136,1_24_2,24,2.0,660.596555256,1_I,training,05,1_B,137.0,01111,ignore,1.0,7300.0,0.499406170653
137,1_24_2,24,2.0,663.362322934,1_I,training,05,1_B,138.0,11011,ignore,1.0,7400.0,0.562876326263
138,1_24_2,24,2.0,666.221848733,1_I,training,05,1_B,139.0,11010,ignore,1.0,7500.0,0.658759342087
139,1_24_2,24,2.0,670.518916944,1_I,training,05,1_B,140.0,00001,kill,1.0,7600.0,2.08559722647
140,1_24_2,24,2.0,675.175438906,1_I,training,05,1_B,141.0,00101,kill,1.0,7700.0,2.45552971507
141,1_24_2,24,2.0,678.691179592,1_I,training,05,1_B,142.0,00110,ignore,1.0,7800.0,1.27729839463
142,1_24_2,24,2.0,683.378864355,1_I,training,05,1_B,143.0,01100,kill,1.0,7900.0,2.47416318915
143,1_24_2,24,2.0,688.55099276,1_I,training,05,1_B,144.0,11101,kill,1.0,8000.0,2.93440248616
144,1_24_2,24,2.0,693.051288957,1_I,training,05,1_B,145.0,11100,kill,1.0,8100.0,2.33692148849
145,1_24_2,24,2.0,696.301379991,1_I,training,05,1_B,146.0,10110,ignore,1.0,8200.0,0.966633892815
146,1_24_2,24,2.0,701.348454874,1_I,training,05,1_B,147.0,10000,kill,0.0,8100.0,2.78120190403
147,1_24_2,24,2.0,704.973657623,1_I,training,05,1_B,148.0,01010,ignore,1.0,8200.0,1.39977133567
148,1_24_2,24,2.0,712.458366466,1_I,training,05,1_B,149.0,00100,kill,0.0,8100.0,5.21013799913
149,1_24_2,24,2.0,716.458536836,1_I,training,05,1_B,150.0,00000,kill,0.0,8000.0,1.69374169963
150,1_24_2,24,2.0,720.42751813,1_I,training,05,1_B,151.0,10101,kill,1.0,8100.0,1.6975501717
151,1_24_2,24,2.0,723.833980258,1_I,training,05,1_B,152.0,11110,ignore,1.0,8200.0,1.17536008473
152,1_24_2,24,2.0,726.724769848,1_I,training,05,1_B,153.0,00011,ignore,1.0,8300.0,0.602937330785
153,1_24_2,24,2.0,730.568603198,1_I,training,05,1_B,154.0,01101,kill,1.0,8400.0,1.56047637717
154,1_24_2,24,2.0,735.459454777,1_I,training,05,1_B,155.0,01000,kill,1.0,8500.0,2.60571168179
155,1_24_2,24,2.0,738.834648598,1_I,training,05,1_B,156.0,10111,ignore,1.0,8600.0,1.00694203544
156,1_24_2,24,2.0,741.772297543,1_I,training,05,1_B,157.0,01110,ignore,1.0,8700.0,0.670419170035
157,1_24_2,24,2.0,747.381870655,1_I,training,05,1_B,158.0,10100,ignore,1.0,8800.0,3.30498402018
158,1_24_2,24,2.0,751.960264545,1_I,training,05,1_B,159.0,11001,kill,1.0,8900.0,2.18892886979
159,1_24_2,24,2.0,755.085389499,1_I,training,05,1_B,160.0,11111,ignore,1.0,9000.0,0.830680019787
160,1_24_2,24,2.0,758.60737268,1_I,training,05,1_B,161.0,10110,ignore,1.0,9100.0,1.30161932932
161,1_24_2,24,2.0,762.310696934,1_I,training,05,1_B,162.0,01000,kill,1.0,9200.0,1.55525281366
162,1_24_2,24,2.0,765.65952703,1_I,training,05,1_B,163.0,00011,ignore,1.0,9300.0,1.22296660146
163,1_24_2,24,2.0,768.925273155,1_I,training,05,1_B,164.0,01010,ignore,1.0,9400.0,1.17112835787
164,1_24_2,24,2.0,772.144198515,1_I,training,05,1_B,165.0,10010,ignore,1.0,9500.0,1.01771183779
165,1_24_2,24,2.0,776.006926435,1_I,training,05,1_B,166.0,00101,kill,1.0,9600.0,1.65177091694
166,1_24_2,24,2.0,779.44453248,1_I,training,05,1_B,167.0,10111,ignore,1.0,9700.0,1.23641551223
167,1_24_2,24,2.0,786.476115662,1_I,training,05,1_B,168.0,10000,ignore,1.0,9800.0,4.79971591434
168,1_24_2,24,2.0,790.351368394,1_I,training,05,1_B,169.0,11001,kill,1.0,9900.0,1.71124334687
169,1_24_2,24,2.0,793.788976081,1_I,training,05,1_B,170.0,01111,ignore,1.0,10000.0,1.26976725092
170,1_24_2,24,2.0,796.601647451,1_I,training,05,1_B,171.0,11010,ignore,1.0,10100.0,0.677121046355
171,1_24_2,24,2.0,800.554944096,1_I,training,05,1_B,172.0,11100,kill,1.0,10200.0,1.81825989322
172,1_24_2,24,2.0,804.914512795,1_I,training,05,1_B,173.0,00100,ignore,1.0,10300.0,2.17483625048
173,1_24_2,24,2.0,808.352182882,1_I,training,05,1_B,174.0,00110,ignore,1.0,10400.0,1.27851520084
174,1_24_2,24,2.0,811.992951638,1_I,training,05,1_B,175.0,11111,ignore,1.0,10500.0,1.49181467926
175,1_24_2,24,2.0,815.961934574,1_I,training,05,1_B,176.0,10011,ignore,1.0,10600.0,1.7415251541
176,1_24_2,24,2.0,819.258965838,1_I,training,05,1_B,177.0,11110,ignore,1.0,10700.0,0.932036200395
177,1_24_2,24,2.0,824.384148266,1_I,training,05,1_B,178.0,00000,ignore,1.0,10800.0,2.86789852559
178,1_24_2,24,2.0,828.259418651,1_I,training,05,1_B,179.0,01101,kill,1.0,10900.0,1.56390593152
179,1_24_2,24,2.0,832.134633203,1_I,training,05,1_B,180.0,10101,kill,1.0,11000.0,1.60905297253
180,1_24_2,24,2.0,837.166083785,1_I,training,05,1_B,181.0,10100,ignore,1.0,11100.0,2.76264643035
181,1_24_2,24,2.0,840.088014007,1_I,training,05,1_B,182.0,11011,ignore,1.0,11200.0,0.760497314118
182,1_24_2,24,2.0,950.796401718,1_I,test,05,2,0.0,10001,kill,0.0,0.0,3.73118394341
183,1_24_2,24,2.0,954.671579734,1_I,test,05,2,1.0,01110,ignore,0.0,0.0,1.68915445516
184,1_24_2,24,2.0,960.468759404,1_I,test,05,2,2.0,00001,ignore,1.0,100.0,3.6262890079
185,1_24_2,24,2.0,964.406588981,1_I,test,05,2,3.0,00111,kill,1.0,200.0,1.76562194028
186,1_24_2,24,2.0,968.703541423,1_I,test,05,2,4.0,00010,kill,0.0,100.0,2.12199919126
187,1_24_2,24,2.0,972.563106633,1_I,test,05,2,5.0,01001,ignore,1.0,200.0,1.68172265932
188,1_24_2,24,2.0,979.125869243,1_I,test,05,2,6.0,11101,ignore,1.0,300.0,4.39279399479
189,1_24_2,24,2.0,983.469778746,1_I,test,05,2,7.0,11000,ignore,1.0,400.0,2.19393649536
190,1_24_2,24,2.0,988.313800118,1_I,test,05,2,8.0,01011,kill,0.0,300.0,2.56877028267
191,1_24_2,24,2.0,992.813996556,1_I,test,05,2,9.0,01100,ignore,1.0,400.0,2.21854808417
192,1_24_2,24,2.0,998.861178586,1_I,test,05,2,10.0,10110,kill,1.0,500.0,3.88170172237
193,1_24_2,24,2.0,1002.61137862,1_I,test,05,2,11.0,10111,kill,1.0,600.0,1.59396810605
194,1_24_2,24,2.0,1007.70538141,1_I,test,05,2,12.0,01110,ignore,0.0,500.0,2.94992579699
195,1_24_2,24,2.0,1012.93996309,1_I,test,05,2,13.0,01010,kill,0.0,400.0,3.03399380513
196,1_24_2,24,2.0,1017.0495397,1_I,test,05,2,14.0,01111,kill,1.0,500.0,1.94435041063
197,1_24_2,24,2.0,1021.25288263,1_I,test,05,2,15.0,01101,ignore,1.0,600.0,1.96512930619
198,1_24_2,24,2.0,1025.04989685,1_I,test,05,2,16.0,10100,ignore,0.0,500.0,1.59110220721
199,1_24_2,24,2.0,1034.65973476,1_I,test,05,2,17.0,01011,ignore,1.0,600.0,7.3932825236
200,1_24_2,24,2.0,1039.019317,1_I,test,05,2,18.0,01100,ignore,1.0,700.0,2.18662950016
201,1_24_2,24,2.0,1043.31641642,1_I,test,05,2,19.0,00000,ignore,1.0,800.0,2.02335372975
202,1_24_2,24,2.0,1047.66035548,1_I,test,05,2,20.0,10010,ignore,1.0,900.0,2.20106532123
203,1_24_2,24,2.0,1057.61394442,1_I,test,05,2,21.0,00001,ignore,1.0,1000.0,7.74240491649
204,1_24_2,24,2.0,1062.81734441,1_I,test,05,2,22.0,11001,ignore,1.0,1100.0,2.95122101413
205,1_24_2,24,2.0,1068.00506633,1_I,test,05,2,23.0,10011,ignore,1.0,1200.0,2.99427025496
206,1_24_2,24,2.0,1072.73966628,1_I,test,05,2,24.0,10000,ignore,1.0,1300.0,2.56444495532
207,1_24_2,24,2.0,1078.05241586,1_I,test,05,2,25.0,11010,ignore,1.0,1400.0,3.17719678885
208,1_24_2,24,2.0,1081.49004694,1_I,test,05,2,26.0,11111,kill,1.0,1500.0,1.24550461126
209,1_24_2,24,2.0,1084.6621228,1_I,test,05,3,0.0,11011,ignore,0.0,1400.0,1.02337959304
210,1_24_2,24,2.0,1089.4279381,1_I,test,05,3,1.0,10101,ignore,1.0,1500.0,2.55967666782
211,1_24_2,24,2.0,1094.99074669,1_I,test,05,3,2.0,00101,ignore,1.0,1600.0,3.36215543837
212,1_24_2,24,2.0,1099.91283004,1_I,test,05,3,3.0,00010,ignore,1.0,1700.0,2.75839828235
213,1_24_2,24,2.0,1104.06925532,1_I,test,05,3,4.0,00111,kill,0.0,1600.0,1.9296637567
214,1_24_2,24,2.0,1107.7881698,1_I,test,05,3,5.0,01000,ignore,1.0,1700.0,1.53997130406
215,1_24_2,24,2.0,1110.86645552,1_I,test,05,3,6.0,11000,ignore,0.0,1600.0,0.905202831825
216,1_24_2,24,2.0,1115.05413474,1_I,test,05,3,7.0,11110,kill,1.0,1700.0,2.02568388902
217,1_24_2,24,2.0,1119.33560862,1_I,test,05,3,8.0,11101,kill,0.0,1600.0,2.11062427003
218,1_24_2,24,2.0,1124.50773374,1_I,test,05,3,9.0,10001,ignore,0.0,1500.0,2.96532718088
219,1_24_2,24,2.0,1128.64858029,1_I,test,05,3,10.0,11100,ignore,0.0,1400.0,1.96252655606
220,1_24_2,24,2.0,1132.96124119,1_I,test,05,3,11.0,01001,ignore,1.0,1500.0,2.14520020444
221,1_24_2,24,2.0,1137.2427085,1_I,test,05,3,12.0,00011,ignore,1.0,1600.0,1.09704932704
222,1_24_2,24,2.0,1142.60234494,1_I,test,05,3,13.0,00110,ignore,1.0,1700.0,3.20847084325
223,1_24_2,24,2.0,1146.10250689,1_I,test,05,3,14.0,00100,ignore,1.0,1800.0,1.30560802337
224,1_24_2,24,2.0,1151.94653606,1_I,test,05,3,15.0,11010,kill,1.0,1900.0,3.68189959707
225,1_24_2,24,2.0,1169.99424234,1_I,test,05,3,16.0,10001,kill,1.0,2000.0,15.7035052968
226,1_24_2,24,2.0,1173.74443826,1_I,test,05,3,17.0,01100,ignore,1.0,2100.0,1.46175743108
227,1_24_2,24,2.0,1177.02585097,1_I,test,05,3,18.0,00110,ignore,1.0,2200.0,1.03632355386
228,1_24_2,24,2.0,1180.3854131,1_I,test,05,3,19.0,01010,ignore,1.0,2300.0,1.13338519676
229,1_24_2,24,2.0,1183.63551604,1_I,test,05,3,20.0,11100,kill,1.0,2400.0,0.960638535891
230,1_24_2,24,2.0,1186.65129553,1_I,test,05,4,0.0,11111,kill,0.0,2300.0,0.819172497881
231,1_24_2,24,2.0,1192.22966478,1_I,test,05,4,1.0,00111,kill,1.0,2400.0,3.34523550989
232,1_24_2,24,2.0,1196.32361134,1_I,test,05,4,2.0,10100,ignore,1.0,2500.0,1.88734033011
233,1_24_2,24,2.0,1200.49569705,1_I,test,05,4,3.0,01111,kill,1.0,2600.0,1.66367911457
234,1_24_2,24,2.0,1203.4957927,1_I,test,05,4,4.0,10011,ignore,0.0,2500.0,0.760107312127
235,1_24_2,24,2.0,1207.40227022,1_I,test,05,4,5.0,01101,ignore,1.0,2600.0,1.70062954532
236,1_24_2,24,2.0,1210.76180936,1_I,test,05,4,6.0,00001,ignore,1.0,2700.0,1.13582004077
237,1_24_2,24,2.0,1215.46516359,1_I,test,05,4,7.0,00101,ignore,1.0,2800.0,2.35764824694
238,1_24_2,24,2.0,1221.05916823,1_I,test,05,4,8.0,10111,kill,1.0,2900.0,3.41048489563
239,1_24_2,24,2.0,1224.74689404,1_I,test,05,4,9.0,11101,ignore,1.0,3000.0,1.49158970969
240,1_24_2,24,2.0,1229.35641174,1_I,test,05,4,10.0,11000,ignore,1.0,3100.0,2.34163722836
241,1_24_2,24,2.0,1234.24727235,1_I,test,05,4,11.0,10101,ignore,1.0,3200.0,2.68374286963
242,1_24_2,24,2.0,1239.71647512,1_I,test,05,4,12.0,10010,kill,1.0,3300.0,3.20530895342
243,1_24_2,24,2.0,1244.8729082,1_I,test,05,4,13.0,00000,ignore,1.0,3400.0,2.8818191335
244,1_24_2,24,2.0,1248.65427555,1_I,test,05,4,14.0,11011,kill,0.0,3300.0,1.4728548351
245,1_24_2,24,2.0,1254.62324699,1_I,test,05,4,15.0,10110,kill,1.0,3400.0,3.81793803895
246,1_24_2,24,2.0,1257.77966817,1_I,test,05,4,16.0,11001,ignore,1.0,3500.0,0.969003462807
247,1_24_2,24,2.0,1262.07671627,1_I,test,05,4,17.0,00010,kill,1.0,3600.0,2.00933007921
248,1_24_2,24,2.0,1266.6238439,1_I,test,05,4,18.0,01011,kill,1.0,3700.0,2.37577553949
249,1_24_2,24,2.0,1269.85833239,1_I,test,05,4,19.0,00011,kill,1.0,3800.0,1.04151099087
250,1_24_2,24,2.0,1275.79612379,1_I,test,05,4,20.0,01110,ignore,0.0,3700.0,3.72003727598
251,1_24_2,24,2.0,1279.20253953,1_I,test,05,4,21.0,10000,ignore,1.0,3800.0,1.1988932154
252,1_24_2,24,2.0,1283.51524764,1_I,test,05,4,22.0,11110,ignore,1.0,3900.0,2.13156573484
253,1_24_2,24,2.0,1287.78102209,1_I,test,05,4,23.0,01001,ignore,1.0,4000.0,2.07249233851
254,1_24_2,24,2.0,1291.64064724,1_I,test,05,4,24.0,01000,ignore,1.0,4100.0,1.58465157427
255,1_24_2,24,2.0,1295.48450892,1_I,test,05,4,25.0,00100,ignore,1.0,4200.0,1.6550128598
256,1_24_2,24,2.0,1298.32842642,1_I,test,05,4,26.0,01101,ignore,1.0,4300.0,0.668853414673
257,1_24_2,24,2.0,1305.09435954,1_I,test,05,4,27.0,10010,ignore,0.0,4200.0,4.55181217504
258,1_24_2,24,2.0,1308.1100992,1_I,test,05,4,28.0,00000,ignore,1.0,4300.0,0.839372958904
259,1_24_2,24,2.0,1311.48535912,1_I,test,05,4,29.0,00011,kill,1.0,4400.0,1.05985381083
260,1_24_2,24,2.0,1315.29801858,1_I,test,05,4,30.0,10011,kill,1.0,4500.0,1.61439189453
261,1_24_2,24,2.0,1320.31382311,1_I,test,05,4,31.0,00111,kill,1.0,4600.0,2.75218206114
262,1_24_2,24,2.0,1323.86086207,1_I,test,05,4,32.0,10100,ignore,1.0,4700.0,1.34625279929
263,1_24_2,24,2.0,1331.59561227,1_I,test,05,4,33.0,10111,kill,1.0,4800.0,5.56297977942
264,1_24_2,24,2.0,1334.70515275,1_I,test,05,4,34.0,11001,ignore,1.0,4900.0,0.912816902276
265,1_24_2,24,2.0,1342.22114837,1_I,test,05,4,35.0,11110,ignore,1.0,5000.0,5.14961707962
266,1_24_2,24,2.0,1348.79957675,1_I,test,05,4,36.0,00010,kill,1.0,5100.0,4.3459769242
267,1_24_2,24,2.0,1354.36234059,1_I,test,05,4,37.0,10110,kill,1.0,5200.0,3.32286910096
268,1_24_2,24,2.0,1358.69066068,1_I,test,05,5,0.0,11011,kill,0.0,5100.0,2.12335434555
269,1_24_2,24,2.0,1365.33157436,1_I,test,05,5,1.0,01000,ignore,1.0,5200.0,4.23054906122
270,1_24_2,24,2.0,1368.1911096,1_I,test,05,5,2.0,01100,ignore,1.0,5300.0,0.643552138135
271,1_24_2,24,2.0,1375.53516196,1_I,test,05,5,3.0,11111,ignore,0.0,5200.0,2.79683441542
272,1_24_2,24,2.0,1378.64473282,1_I,test,05,5,4.0,11000,ignore,1.0,5300.0,0.835932730814
273,1_24_2,24,2.0,1381.95732639,1_I,test,05,5,5.0,10001,ignore,1.0,5400.0,1.12064403697
274,1_24_2,24,2.0,1384.9575099,1_I,test,05,5,6.0,00001,ignore,1.0,5500.0,0.730570613966
275,1_24_2,24,2.0,1387.84825844,1_I,test,05,5,7.0,10000,ignore,1.0,5600.0,0.69762858263
276,1_24_2,24,2.0,1390.66090435,1_I,test,05,5,8.0,00100,ignore,0.0,5500.0,0.618748011503
277,1_24_2,24,2.0,1395.62990699,1_I,test,05,5,9.0,01011,kill,0.0,5400.0,2.76437188127
278,1_24_2,24,2.0,1399.44264118,1_I,test,05,5,10.0,01110,ignore,0.0,5300.0,1.63843777518
279,1_24_2,24,2.0,1404.28654883,1_I,test,05,5,11.0,01111,ignore,0.0,5200.0,2.67063018164
280,1_24_2,24,2.0,1409.06809476,1_I,test,05,5,12.0,01010,ignore,1.0,5300.0,2.47882802349
281,1_24_2,24,2.0,1412.33385525,1_I,test,05,5,13.0,11010,ignore,1.0,5400.0,0.926077791029
282,1_24_2,24,2.0,1415.58393808,1_I,test,05,5,14.0,00101,kill,1.0,5500.0,1.06054308804
283,1_24_2,24,2.0,1419.41242793,1_I,test,05,5,15.0,10101,kill,1.0,5600.0,1.54398257717
284,1_24_2,24,2.0,1422.42804484,1_I,test,05,5,16.0,11101,kill,0.0,5500.0,0.842153878365
285,1_24_2,24,2.0,1425.69383448,1_I,test,05,5,17.0,01001,ignore,1.0,5600.0,1.04333168438
286,1_24_2,24,2.0,1430.56902851,1_I,test,05,5,18.0,11100,kill,0.0,5500.0,2.652349762
287,1_24_2,24,2.0,1434.58490035,1_I,test,05,5,19.0,00110,kill,1.0,5600.0,1.73851023345
288,1_24_2,24,2.0,1439.17884958,1_I,test,05,5,20.0,10101,kill,1.0,5700.0,2.38113950371
289,1_24_2,24,2.0,1443.71029092,1_I,test,05,5,21.0,01111,kill,1.0,5800.0,2.35646510406
290,1_24_2,24,2.0,1447.28858916,1_I,test,05,5,22.0,00110,kill,1.0,5900.0,1.39863991937
291,1_24_2,24,2.0,1451.92944125,1_I,test,05,5,23.0,11011,ignore,1.0,6000.0,2.41970782693
292,1_24_2,24,2.0,1455.21084944,1_I,test,05,5,24.0,10011,ignore,1.0,6100.0,1.04338464254
293,1_24_2,24,2.0,1459.57046125,1_I,test,05,5,25.0,01000,ignore,1.0,6200.0,2.14631396802
294,1_24_2,24,2.0,1463.02368831,1_I,test,05,5,26.0,00001,ignore,1.0,6300.0,1.27389839832
295,1_24_2,24,2.0,1468.10203355,1_I,test,05,5,27.0,11100,ignore,1.0,6400.0,2.88138356285
296,1_24_2,24,2.0,1472.93045197,1_I,test,05,5,28.0,00011,ignore,1.0,6500.0,2.61898981274
297,1_24_2,24,2.0,1477.85256118,1_I,test,05,6,0.0,00111,kill,0.0,6400.0,2.74956986886
298,1_24_2,24,2.0,1484.93104724,1_I,test,05,6,1.0,10000,kill,1.0,6500.0,4.85022733011
299,1_24_2,24,2.0,1490.75938725,1_I,test,05,6,2.0,11101,kill,0.0,6400.0,3.65763285213
300,1_24_2,24,2.0,1496.3846643,1_I,test,05,6,3.0,10100,kill,1.0,6500.0,3.43530215917
301,1_24_2,24,2.0,1499.47855995,1_I,test,05,6,4.0,11110,ignore,0.0,6400.0,0.900778977661
302,1_24_2,24,2.0,1507.55706612,1_I,test,05,6,5.0,10010,kill,1.0,6500.0,5.87955219561
303,1_24_2,24,2.0,1516.77623944,1_I,test,05,6,6.0,01110,kill,0.0,6400.0,6.96515024314
304,1_24_2,24,2.0,1520.4014426,1_I,test,05,6,7.0,11111,ignore,1.0,6500.0,1.47000699951
305,1_24_2,24,2.0,1524.97977901,1_I,test,05,6,8.0,01100,ignore,1.0,6600.0,2.35396580709
306,1_24_2,24,2.0,1528.49556198,1_I,test,05,6,9.0,01101,ignore,1.0,6700.0,1.1884867307
307,1_24_2,24,2.0,1532.01134413,1_I,test,05,6,10.0,10110,kill,1.0,6800.0,1.35194067043
308,1_24_2,24,2.0,1536.76152938,1_I,test,05,6,11.0,10001,kill,1.0,6900.0,2.53410485306
309,1_24_2,24,2.0,1541.05869982,1_I,test,05,6,12.0,10111,kill,0.0,6800.0,1.92902415344
310,1_24_2,24,2.0,1545.49638017,1_I,test,05,6,13.0,11000,ignore,0.0,6700.0,2.1710840208
311,1_24_2,24,2.0,1550.19965023,1_I,test,05,6,14.0,00000,kill,0.0,6600.0,2.38850766764
312,1_24_2,24,2.0,1554.12177833,1_I,test,05,6,15.0,01010,kill,0.0,6500.0,1.77457761758
313,1_24_2,24,2.0,1557.18441388,1_I,test,05,6,16.0,01001,kill,0.0,6400.0,0.855362630009
314,1_24_2,24,2.0,1560.8408603,1_I,test,05,6,17.0,00100,kill,0.0,6300.0,1.26146677696
315,1_24_2,24,2.0,1565.65352675,1_I,test,05,6,18.0,11010,ignore,0.0,6200.0,2.64146336958
316,1_24_2,24,2.0,1572.8133159,1_I,test,05,6,19.0,11001,ignore,0.0,6100.0,4.9355474499
317,1_24_2,24,2.0,1580.90743159,1_I,test,05,6,20.0,00101,ignore,1.0,6200.0,5.89501515876
318,1_24_2,24,2.0,1585.7513844,1_I,test,05,6,21.0,00010,ignore,1.0,6300.0,2.65113131367
319,1_24_2,24,2.0,1588.54840438,1_I,test,05,6,22.0,01011,ignore,1.0,6400.0,0.590903511455
320,1_24_2,24,2.0,1591.50167065,1_I,test,05,6,23.0,11101,kill,0.0,6300.0,0.796097106391
321,1_24_2,24,2.0,1595.33000655,1_I,test,05,6,24.0,00000,ignore,1.0,6400.0,1.62665437818
322,1_24_2,24,2.0,1598.76761382,1_I,test,05,6,25.0,01100,ignore,1.0,6500.0,1.28912202341
323,1_24_2,24,2.0,1601.78345735,1_I,test,05,6,26.0,00010,ignore,1.0,6600.0,0.850197772062
324,1_24_2,24,2.0,1604.8929539,1_I,test,05,6,27.0,01111,ignore,1.0,6700.0,0.898727567188
325,1_24_2,24,2.0,1609.39314459,1_I,test,05,6,28.0,11000,kill,1.0,6800.0,2.34938348896
326,1_24_2,24,2.0,1612.44016076,1_I,test,05,6,29.0,01000,ignore,1.0,6900.0,0.878036114184
327,1_24_2,24,2.0,1615.2996841,1_I,test,05,6,30.0,00100,ignore,1.0,7000.0,0.59257189892
328,1_24_2,24,2.0,1618.25300086,1_I,test,05,6,31.0,01110,ignore,1.0,7100.0,0.787268282369
329,1_24_2,24,2.0,1624.33136417,1_I,test,05,6,32.0,10011,kill,1.0,7200.0,3.79080867939
330,1_24_2,24,2.0,1627.3471769,1_I,test,05,6,33.0,00011,ignore,1.0,7300.0,0.868141147878
331,1_24_2,24,2.0,1630.09723694,1_I,test,05,7,0.0,00111,ignore,0.0,7200.0,0.570573733982
332,1_24_2,24,2.0,1636.11321881,1_I,test,05,7,1.0,10010,kill,1.0,7300.0,3.74734480487
333,1_24_2,24,2.0,1641.47277889,1_I,test,05,7,2.0,10001,kill,0.0,7200.0,3.17196173054
334,1_24_2,24,2.0,1648.73880417,1_I,test,05,7,3.0,10000,kill,0.0,7100.0,5.02980231004
335,1_24_2,24,2.0,1651.94206418,1_I,test,05,7,4.0,01010,ignore,0.0,7000.0,1.08336066768
336,1_24_2,24,2.0,1660.536185,1_I,test,05,7,5.0,10101,ignore,1.0,7100.0,6.35680255841
337,1_24_2,24,2.0,1664.41139955,1_I,test,05,7,6.0,10111,kill,1.0,7200.0,1.68054444278
338,1_24_2,24,2.0,1670.09915739,1_I,test,05,7,7.0,01001,ignore,1.0,7300.0,1.65848100382
339,1_24_2,24,2.0,1673.25558596,1_I,test,05,7,8.0,01011,kill,1.0,7400.0,0.927884526568
340,1_24_2,24,2.0,1677.06820026,1_I,test,05,7,9.0,10110,kill,1.0,7500.0,1.53374687229
341,1_24_2,24,2.0,1680.77154422,1_I,test,05,7,10.0,11100,ignore,1.0,7600.0,1.40614519979
342,1_24_2,24,2.0,1684.31854377,1_I,test,05,7,11.0,11111,kill,0.0,7500.0,1.35067706398
343,1_24_2,24,2.0,1690.53878365,1_I,test,05,7,12.0,11010,kill,0.0,7400.0,4.05792884311
344,1_24_2,24,2.0,1695.04128684,1_I,test,05,7,13.0,00101,kill,0.0,7300.0,2.25845514053
345,1_24_2,24,2.0,1698.11951385,1_I,test,05,7,14.0,00001,ignore,1.0,7400.0,0.886121060723
346,1_24_2,24,2.0,1701.49470767,1_I,test,05,7,15.0,11001,ignore,1.0,7500.0,1.23726120075
347,1_24_2,24,2.0,1707.79187564,1_I,test,05,7,16.0,11110,kill,0.0,7400.0,4.09034170332
348,1_24_2,24,2.0,1711.6358379,1_I,test,05,7,17.0,01101,ignore,1.0,7500.0,1.69662730383
349,1_24_2,24,2.0,1716.32357521,1_I,test,05,7,18.0,10100,ignore,1.0,7600.0,2.46484049945
350,1_24_2,24,2.0,1722.69885606,1_I,test,05,7,19.0,11011,ignore,1.0,7700.0,4.18874084778
351,1_24_2,24,2.0,1726.08964627,1_I,test,05,7,20.0,00110,kill,1.0,7800.0,1.24468396497
352,1_24_2,24,2.0,1729.699189,1_I,test,05,7,21.0,10100,ignore,1.0,7900.0,1.39661355113
353,1_24_2,24,2.0,1733.19933618,1_I,test,05,7,22.0,01000,kill,0.0,7800.0,1.34432454734
354,1_24_2,24,2.0,1736.6996841,1_I,test,05,7,23.0,10111,kill,1.0,7900.0,1.30667827094
355,1_24_2,24,2.0,1739.79354198,1_I,test,05,7,24.0,01010,ignore,0.0,7800.0,0.912134193527
356,1_24_2,24,2.0,1742.93431258,1_I,test,05,7,25.0,11000,ignore,1.0,7900.0,0.965760288355
357,1_24_2,24,2.0,1747.84103683,1_I,test,05,7,26.0,00010,kill,1.0,8000.0,2.72090759621
358,1_24_2,24,2.0,1751.04429273,1_I,test,05,7,27.0,10110,kill,1.0,8100.0,1.05052167898
359,1_24_2,24,2.0,1754.40377276,1_I,test,05,7,28.0,01101,ignore,1.0,8200.0,1.13511270031
360,1_24_2,24,2.0,1758.15394651,1_I,test,05,7,29.0,10000,ignore,1.0,8300.0,1.54860471656
361,1_24_2,24,2.0,1761.49788763,1_I,test,05,7,30.0,10010,kill,1.0,8400.0,1.20653725443
362,1_24_2,24,2.0,1764.73237735,1_I,test,05,7,31.0,00110,kill,1.0,8500.0,1.01777752234
363,1_24_2,24,2.0,1767.82634238,1_I,test,05,7,32.0,10101,ignore,1.0,8600.0,0.9241700655
364,1_24_2,24,2.0,1772.60794085,1_I,test,05,7,33.0,00100,ignore,1.0,8700.0,2.58120477773
365,1_24_2,24,2.0,1775.65491269,1_I,test,05,7,34.0,11100,ignore,1.0,8800.0,0.857755189592
366,1_24_2,24,2.0,1779.06136866,1_I,test,05,8,0.0,00000,ignore,0.0,8700.0,1.26252388762
367,1_24_2,24,2.0,1784.28037079,1_I,test,05,8,1.0,11110,ignore,1.0,8800.0,3.06690792053
368,1_24_2,24,2.0,1787.74926649,1_I,test,05,8,2.0,11111,ignore,1.0,8900.0,1.30207788956
369,1_24_2,24,2.0,1790.74940402,1_I,test,05,8,3.0,01111,ignore,0.0,8800.0,0.848650490479
370,1_24_2,24,2.0,1794.2965103,1_I,test,05,8,4.0,01011,ignore,0.0,8700.0,1.34984533342
371,1_24_2,24,2.0,1798.64040995,1_I,test,05,8,5.0,01001,kill,1.0,8800.0,2.17902117711
372,1_24_2,24,2.0,1801.5624814,1_I,test,05,8,6.0,00001,kill,1.0,8900.0,0.745903439612
373,1_24_2,24,2.0,1804.48445349,1_I,test,05,8,7.0,01110,ignore,0.0,8800.0,0.738531580924
374,1_24_2,24,2.0,1808.21903743,1_I,test,05,8,8.0,00111,kill,0.0,8700.0,1.55633045074
375,1_24_2,24,2.0,1816.0162405,1_I,test,05,8,9.0,10001,kill,0.0,8600.0,5.6023047065
376,1_24_2,24,2.0,1821.86026762,1_I,test,05,8,10.0,10011,kill,0.0,8500.0,3.68416899813
377,1_24_2,24,2.0,1825.53234656,1_I,test,05,8,11.0,11001,kill,0.0,8400.0,1.44956925306
378,1_24_2,24,2.0,1831.84511461,1_I,test,05,8,12.0,01100,ignore,0.0,8300.0,4.11095105064
379,1_24_2,24,2.0,1837.00160681,1_I,test,05,8,13.0,11101,ignore,1.0,8400.0,2.97894358724
380,1_24_2,24,2.0,1841.26743299,1_I,test,05,8,14.0,11011,kill,0.0,8300.0,2.08541536238
381,1_24_2,24,2.0,1845.75200307,1_I,test,05,8,15.0,00101,ignore,1.0,8400.0,2.33949262794
382,1_24_2,24,2.0,1853.06485856,1_I,test,05,8,16.0,00011,ignore,0.0,8300.0,5.10588841427
383,1_24_2,24,2.0,1859.25268845,1_I,test,05,8,17.0,11010,ignore,1.0,8400.0,4.00751923839
384,1_24_2,24,2.0,1862.64346182,1_I,test,05,8,18.0,00110,kill,0.0,8300.0,1.23932862184
385,1_24_2,24,2.0,1866.44050314,1_I,test,05,8,19.0,11111,ignore,1.0,8400.0,1.633442876
386,1_24_2,24,2.0,1869.78440444,1_I,test,05,8,20.0,00100,ignore,1.0,8500.0,1.20150869191
387,1_24_2,24,2.0,1873.73767111,1_I,test,05,8,21.0,10011,kill,0.0,8400.0,1.78610853961
388,1_24_2,24,2.0,1879.64420529,1_I,test,05,8,22.0,01010,ignore,0.0,8300.0,3.71508384016
389,1_24_2,24,2.0,1886.42578693,1_I,test,05,8,23.0,11110,ignore,1.0,8400.0,3.61965897405
390,1_24_2,24,2.0,1891.56669424,1_I,test,05,8,24.0,00010,kill,1.0,8500.0,2.96558252955
391,1_24_2,24,2.0,1896.05125735,1_I,test,05,8,25.0,00111,ignore,1.0,8600.0,2.2878214694
392,1_24_2,24,2.0,1900.59835419,1_I,test,05,8,26.0,01000,ignore,0.0,8500.0,2.37747594817
393,1_24_2,24,2.0,1912.17700015,1_I,test,05,8,27.0,01011,ignore,0.0,8400.0,9.42093038054
394,1_24_2,24,2.0,1916.20841337,1_I,test,05,8,28.0,10101,ignore,1.0,8500.0,1.88469775872
395,1_24_2,24,2.0,1919.23038813,1_I,test,05,8,29.0,11001,ignore,1.0,8600.0,0.844305868298
396,1_24_2,24,2.0,1922.38680644,1_I,test,05,8,30.0,10110,ignore,1.0,8700.0,0.838340069421
397,1_24_2,24,2.0,1925.02756165,1_I,test,05,8,31.0,10001,ignore,1.0,8800.0,0.407930998384
398,1_24_2,24,2.0,1927.99641403,1_I,test,05,8,32.0,01111,kill,1.0,8900.0,0.789500735872
399,1_24_2,24,2.0,1930.91845428,1_I,test,05,8,33.0,00011,kill,1.0,9000.0,0.786652900281
400,1_24_2,24,2.0,1933.98111364,1_I,test,05,8,34.0,01101,kill,1.0,9100.0,0.870471717672
401,1_24_2,24,2.0,1936.87184945,1_I,test,05,8,35.0,00000,kill,1.0,9200.0,0.681551058445
402,1_24_2,24,2.0,1939.52826714,1_I,test,05,8,36.0,00101,kill,0.0,9100.0,0.486118187025
403,1_24_2,24,2.0,1944.93473912,1_I,test,05,8,37.0,00001,kill,1.0,9200.0,3.23531734873
404,1_24_2,24,2.0,1948.38800559,1_I,test,05,8,38.0,10000,ignore,1.0,9300.0,1.311021251
405,1_24_2,24,2.0,1952.18504486,1_I,test,05,8,39.0,01110,kill,1.0,9400.0,1.60166222954
406,1_24_2,24,2.0,1955.74769909,1_I,test,05,8,40.0,11011,ignore,1.0,9500.0,1.30767954973
407,1_24_2,24,2.0,1959.20470712,1_I,test,05,8,41.0,11100,ignore,1.0,9600.0,1.15278102209
408,1_24_2,24,2.0,1962.21679841,1_I,test,05,8,42.0,10100,ignore,1.0,9700.0,0.733406133705
409,1_24_2,24,2.0,1965.2638228,1_I,test,05,8,43.0,10111,ignore,1.0,9800.0,0.749057939927
410,1_24_2,24,2.0,1968.68589322,1_I,test,05,8,44.0,01100,kill,1.0,9900.0,1.23147521332
411,1_24_2,24,2.0,1971.68600119,1_I,test,05,8,45.0,11000,ignore,1.0,10000.0,0.814900539229
412,1_24_2,24,2.0,1974.8111557,1_I,test,05,8,46.0,01001,kill,1.0,10100.0,0.969196411161
413,1_24_2,24,2.0,1978.32697808,1_I,test,05,9,0.0,11101,ignore,1.0,10200.0,1.36790365719
414,1_24_2,24,2.0,1981.34271733,1_I,test,05,9,1.0,10010,ignore,1.0,10300.0,0.83225850153
415,1_24_2,24,2.0,1984.06156654,1_I,test,05,9,2.0,11010,ignore,1.0,10400.0,0.607134162738
416,1_24_2,24,2.0,1986.81174111,1_I,test,05,9,3.0,10010,ignore,1.0,10500.0,0.593275955146
417,1_24_2,24,2.0,1989.73392668,1_I,test,05,9,4.0,10001,ignore,0.0,10400.0,0.777994445551
418,1_24_2,24,2.0,1994.17159554,1_I,test,05,9,5.0,00000,kill,1.0,10500.0,2.21293985553
419,1_24_2,24,2.0,1997.7343134,1_I,test,05,9,6.0,01100,kill,1.0,10600.0,1.3679557943
420,1_24_2,24,2.0,2000.54687968,1_I,test,05,9,7.0,10000,ignore,0.0,10500.0,0.664806425591
421,1_24_2,24,2.0,2004.57835119,1_I,test,05,9,8.0,00101,kill,1.0,10600.0,1.83529230649
422,1_24_2,24,2.0,2008.65669767,1_I,test,05,9,9.0,00011,kill,0.0,10500.0,1.94838262069
423,1_24_2,24,2.0,2013.79754915,1_I,test,05,9,10.0,10110,ignore,1.0,10600.0,2.8776925019
424,1_24_2,24,2.0,2019.29782317,1_I,test,05,9,11.0,10101,kill,1.0,10700.0,3.09057816769
425,1_24_2,24,2.0,2023.57920591,1_I,test,05,9,12.0,11011,ignore,1.0,10800.0,2.10949367478
426,1_24_2,24,2.0,2027.34507294,1_I,test,05,9,13.0,01101,kill,0.0,10700.0,1.5790470404
427,1_24_2,24,2.0,2031.2983388,1_I,test,05,9,14.0,01110,kill,0.0,10600.0,1.80205428417
428,1_24_2,24,2.0,2035.6423222,1_I,test,05,9,15.0,00111,kill,0.0,10500.0,2.09399622724
429,1_24_2,24,2.0,2042.36140376,1_I,test,05,9,16.0,10011,ignore,1.0,10600.0,4.51255005881
430,1_24_2,24,2.0,2046.70532189,1_I,test,05,9,17.0,11111,ignore,1.0,10700.0,2.06454081371
431,1_24_2,24,2.0,2049.97111604,1_I,test,05,9,18.0,11010,ignore,1.0,10800.0,1.12885706838
432,1_24_2,24,2.0,2052.84624603,1_I,test,05,9,19.0,11000,ignore,0.0,10700.0,0.696362923537
433,1_24_2,24,2.0,2056.64608058,1_I,test,05,9,20.0,01011,ignore,1.0,10800.0,1.65550754654
434,1_24_2,24,2.0,2059.78683928,1_I,test,05,9,21.0,10100,ignore,0.0,10700.0,0.913463484524
435,1_24_2,24,2.0,2064.24018457,1_I,test,05,9,22.0,01000,kill,1.0,10800.0,2.30512770513
436,1_24_2,24,2.0,2068.36537439,1_I,test,05,9,23.0,00010,ignore,1.0,10900.0,1.91693203907
437,1_24_2,24,2.0,2071.78736763,1_I,test,05,9,24.0,11100,kill,1.0,11000.0,1.21345424764
438,1_24_2,24,2.0,2075.49070502,1_I,test,05,9,25.0,10111,ignore,1.0,11100.0,1.49928629636
439,1_24_2,24,2.0,2079.72534253,1_I,test,05,9,26.0,00001,kill,1.0,11200.0,2.0044287805
440,1_24_2,24,2.0,2082.99102831,1_I,test,05,9,27.0,00110,kill,0.0,11100.0,1.1153313888
441,1_24_2,24,2.0,2089.16322158,1_I,test,05,9,28.0,01010,kill,0.0,11000.0,3.96742785476
442,1_24_2,24,2.0,2092.69470193,1_I,test,05,9,29.0,11110,ignore,1.0,11100.0,1.33761158675
443,1_24_2,24,2.0,2095.96050758,1_I,test,05,9,30.0,11001,kill,0.0,11000.0,1.08298708683
444,1_24_2,24,2.0,2100.92940759,1_I,test,05,9,31.0,01111,ignore,1.0,11100.0,2.75523475041
445,1_24_2,24,2.0,2104.67961419,1_I,test,05,9,32.0,11101,kill,0.0,11000.0,1.60103781582
446,1_24_2,24,2.0,2109.30480339,1_I,test,05,9,33.0,01001,ignore,1.0,11100.0,2.44811967724
447,1_24_2,24,2.0,2113.05500547,1_I,test,05,9,34.0,00100,kill,1.0,11200.0,1.54040605365
448,1_24_2,24,2.0,2117.21139873,1_I,test,05,9,35.0,11110,ignore,1.0,11300.0,2.02874560991
449,1_24_2,24,2.0,2123.38631298,1_I,test,05,9,36.0,10010,kill,0.0,11200.0,1.9406552444
450,1_24_2,24,2.0,2129.18346925,1_I,test,05,9,37.0,00100,ignore,0.0,11100.0,3.52710575417
451,1_24_2,24,2.0,2132.57429189,1_I,test,05,9,38.0,01111,ignore,1.0,11200.0,1.17675341816
452,1_24_2,24,2.0,2137.51201514,1_I,test,05,9,39.0,00101,ignore,0.0,11100.0,2.75359140518
453,1_24_2,24,2.0,2140.9497308,1_I,test,05,9,40.0,11000,kill,1.0,11200.0,1.33744409116
454,1_24_2,24,2.0,2144.16860484,1_I,test,05,9,41.0,01010,ignore,1.0,11300.0,1.08131787831
455,1_24_2,24,2.0,2147.74686941,1_I,test,05,9,42.0,10101,kill,1.0,11400.0,1.38936074568
456,1_24_2,24,2.0,2151.1064377,1_I,test,05,9,43.0,00001,kill,1.0,11500.0,1.16082861055
457,1_24_2,24,2.0,2154.93470505,1_I,test,05,9,44.0,00011,ignore,1.0,11600.0,1.64404025642
458,1_24_2,24,2.0,2158.5286518,1_I,test,05,9,45.0,01011,ignore,1.0,11700.0,1.4813856155
459,1_24_2,24,2.0,2161.57564745,1_I,test,05,9,46.0,00110,ignore,1.0,11800.0,0.846453752948
