,unique_id,pair_id,sbj_id,wall_time,condition,block,rule_id,rule_num,trial,stimulus,choice,correct,points,reaction_time
0,1_17_1,17,1.0,54.2457291633,1_I,training,02,1_A,1.0,00011,ignore,0.0,0.0,12.7253979156
1,1_17_1,17,1.0,61.5273049053,1_I,training,02,1_A,2.0,00001,ignore,0.0,0.0,5.10340570824
2,1_17_1,17,1.0,66.2306750617,1_I,training,02,1_A,3.0,10001,kill,1.0,100.0,2.52743381142
3,1_17_1,17,1.0,71.5902849934,1_I,training,02,1_A,4.0,10101,kill,0.0,0.0,3.19202990622
4,1_17_1,17,1.0,83.0595780336,1_I,training,02,1_A,5.0,11100,kill,0.0,0.0,9.33730547592
5,1_17_1,17,1.0,98.0447181123,1_I,training,02,1_A,6.0,01011,ignore,0.0,0.0,12.8123237547
6,1_17_1,17,1.0,103.310604254,1_I,training,02,1_A,7.0,11110,ignore,1.0,100.0,3.09185095659
7,1_17_1,17,1.0,113.43607549,1_I,training,02,1_A,8.0,00010,kill,0.0,0.0,7.9471612119
8,1_17_1,17,1.0,119.139494499,1_I,training,02,1_A,9.0,10110,ignore,1.0,100.0,3.49135651536
9,1_17_1,17,1.0,124.155371712,1_I,training,02,1_A,10.0,00000,ignore,0.0,0.0,2.8045815867
10,1_17_1,17,1.0,141.24991697,1_I,training,02,1_A,11.0,10010,ignore,1.0,100.0,14.9297904947
11,1_17_1,17,1.0,146.578336134,1_I,training,02,1_A,12.0,10000,ignore,0.0,0.0,3.11040522916
12,1_17_1,17,1.0,151.437941755,1_I,training,02,1_A,13.0,11111,ignore,1.0,100.0,2.71260952403
13,1_17_1,17,1.0,158.422647494,1_I,training,02,1_A,14.0,10100,kill,0.0,0.0,4.81134505339
14,1_17_1,17,1.0,163.141654293,1_I,training,02,1_A,15.0,01100,ignore,1.0,100.0,2.56424513349
15,1_17_1,17,1.0,172.845263788,1_I,training,02,1_A,16.0,01101,ignore,1.0,200.0,7.57862678842
16,1_17_1,17,1.0,178.283006846,1_I,training,02,1_A,17.0,10111,ignore,1.0,300.0,3.2794557698
17,1_17_1,17,1.0,184.970804814,1_I,training,02,1_A,18.0,01110,ignore,1.0,400.0,4.55197770334
18,1_17_1,17,1.0,189.502306147,1_I,training,02,1_A,19.0,00111,ignore,1.0,500.0,2.36040266335
19,1_17_1,17,1.0,193.330638484,1_I,training,02,1_A,20.0,11101,ignore,1.0,600.0,1.68208011804
20,1_17_1,17,1.0,199.924707324,1_I,training,02,1_A,21.0,00100,kill,0.0,500.0,4.43724549762
21,1_17_1,17,1.0,205.221811328,1_I,training,02,1_A,22.0,01001,ignore,0.0,400.0,3.16459383689
22,1_17_1,17,1.0,211.159591129,1_I,training,02,1_A,23.0,11010,ignore,1.0,500.0,3.79409380015
23,1_17_1,17,1.0,214.56601123,1_I,training,02,1_A,24.0,01000,ignore,0.0,400.0,1.2384857881
24,1_17_1,17,1.0,222.800793635,1_I,training,02,1_A,25.0,00110,ignore,1.0,500.0,6.01896028583
25,1_17_1,17,1.0,225.769720688,1_I,training,02,1_A,26.0,00101,ignore,1.0,600.0,0.773097290056
26,1_17_1,17,1.0,229.12921403,1_I,training,02,1_A,27.0,01111,ignore,1.0,700.0,1.17327365335
27,1_17_1,17,1.0,233.457546571,1_I,training,02,1_A,28.0,11001,ignore,0.0,600.0,2.15530027945
28,1_17_1,17,1.0,239.301635014,1_I,training,02,1_A,29.0,11000,kill,1.0,700.0,3.68395089908
29,1_17_1,17,1.0,243.739330041,1_I,training,02,1_A,30.0,11011,ignore,0.0,600.0,2.25233334469
30,1_17_1,17,1.0,246.958214297,1_I,training,02,1_A,31.0,10011,kill,1.0,700.0,1.07439279669
31,1_17_1,17,1.0,250.48966883,1_I,training,02,1_A,32.0,01010,kill,0.0,600.0,1.35924661344
32,1_17_1,17,1.0,253.646079591,1_I,training,02,1_A,33.0,11111,kill,0.0,500.0,0.989659182858
33,1_17_1,17,1.0,257.55251796,1_I,training,02,1_A,34.0,11110,ignore,1.0,600.0,1.74755047558
34,1_17_1,17,1.0,260.912043322,1_I,training,02,1_A,35.0,01011,ignore,0.0,500.0,1.2049866147
35,1_17_1,17,1.0,264.240324548,1_I,training,02,1_A,36.0,11001,ignore,0.0,400.0,1.19282017471
36,1_17_1,17,1.0,268.740525091,1_I,training,02,1_A,37.0,01111,ignore,1.0,500.0,2.33882197037
37,1_17_1,17,1.0,272.021964538,1_I,training,02,1_A,38.0,10010,ignore,1.0,600.0,1.14592954253
38,1_17_1,17,1.0,275.068976686,1_I,training,02,1_A,39.0,00010,ignore,1.0,700.0,0.903020714066
39,1_17_1,17,1.0,280.272362238,1_I,training,02,1_A,40.0,10000,kill,1.0,800.0,3.02875756246
40,1_17_1,17,1.0,284.006904689,1_I,training,02,1_A,41.0,10101,ignore,1.0,900.0,1.59851445945
41,1_17_1,17,1.0,287.63209656,1_I,training,02,1_A,42.0,00101,ignore,1.0,1000.0,1.46550631989
42,1_17_1,17,1.0,291.085383892,1_I,training,02,1_A,43.0,01101,ignore,1.0,1100.0,1.29915090269
43,1_17_1,17,1.0,296.226281579,1_I,training,02,1_A,44.0,01110,kill,0.0,1000.0,2.98736514633
44,1_17_1,17,1.0,299.288927086,1_I,training,02,1_A,45.0,10011,ignore,0.0,900.0,0.926751758398
45,1_17_1,17,1.0,302.492223142,1_I,training,02,1_A,46.0,00001,ignore,0.0,800.0,1.05589476662
46,1_17_1,17,1.0,305.882979505,1_I,training,02,1_A,47.0,01010,ignore,1.0,900.0,1.22481722219
47,1_17_1,17,1.0,308.867521443,1_I,training,02,1_A,48.0,11010,ignore,1.0,1000.0,0.839521717194
48,1_17_1,17,1.0,311.773877706,1_I,training,02,1_A,49.0,01100,ignore,1.0,1100.0,0.749181097106
49,1_17_1,17,1.0,316.321009113,1_I,training,02,1_A,50.0,00110,ignore,1.0,1200.0,2.38912533084
50,1_17_1,17,1.0,325.930832418,1_I,training,02,1_A,51.0,11000,kill,1.0,1300.0,7.45585190738
51,1_17_1,17,1.0,331.352995077,1_I,training,02,1_A,52.0,11100,ignore,1.0,1400.0,3.27439230406
52,1_17_1,17,1.0,338.134590319,1_I,training,02,1_A,53.0,01001,ignore,0.0,1300.0,4.60961106064
53,1_17_1,17,1.0,342.572276314,1_I,training,02,1_A,54.0,00111,ignore,1.0,1400.0,2.25402226135
54,1_17_1,17,1.0,345.85373095,1_I,training,02,1_A,55.0,11011,ignore,0.0,1300.0,1.10074630082
55,1_17_1,17,1.0,351.916491405,1_I,training,02,1_A,56.0,00011,ignore,0.0,1200.0,3.88299182103
56,1_17_1,17,1.0,355.697934751,1_I,training,02,1_A,57.0,11101,ignore,1.0,1300.0,1.55590605617
57,1_17_1,17,1.0,359.119966041,1_I,training,02,1_A,58.0,00100,ignore,1.0,1400.0,1.23728786423
58,1_17_1,17,1.0,363.68269468,1_I,training,02,1_A,59.0,10110,ignore,1.0,1500.0,2.42974431017
59,1_17_1,17,1.0,368.542314259,1_I,training,02,1_A,60.0,10001,kill,1.0,1600.0,2.71328402332
60,1_17_1,17,1.0,372.464398302,1_I,training,02,1_A,61.0,01000,ignore,0.0,1500.0,1.73597519747
61,1_17_1,17,1.0,376.120830205,1_I,training,02,1_A,62.0,10111,kill,0.0,1400.0,1.4799384699
62,1_17_1,17,1.0,379.870977687,1_I,training,02,1_A,63.0,00000,ignore,0.0,1300.0,1.55835609375
63,1_17_1,17,1.0,383.433634073,1_I,training,02,1_A,64.0,10100,kill,0.0,1200.0,1.40499022736
64,1_17_1,17,1.0,387.183859556,1_I,training,02,1_A,65.0,11110,ignore,1.0,1300.0,1.52368362822
65,1_17_1,17,1.0,393.996653777,1_I,training,02,1_A,66.0,10101,ignore,1.0,1400.0,4.63815843221
66,1_17_1,17,1.0,399.715683155,1_I,training,02,1_A,67.0,10011,kill,1.0,1500.0,3.57075899849
67,1_17_1,17,1.0,403.825298937,1_I,training,02,1_A,68.0,10010,ignore,1.0,1600.0,1.97565151992
68,1_17_1,17,1.0,409.638038968,1_I,training,02,1_A,69.0,11011,kill,1.0,1700.0,3.66441956729
69,1_17_1,17,1.0,415.403965957,1_I,training,02,1_A,70.0,01101,ignore,1.0,1800.0,3.61355008722
70,1_17_1,17,1.0,421.201105473,1_I,training,02,1_A,71.0,11001,kill,1.0,1900.0,3.64781243419
71,1_17_1,17,1.0,425.357598339,1_I,training,02,1_A,72.0,11000,ignore,0.0,1800.0,2.00402072187
72,1_17_1,17,1.0,429.310893677,1_I,training,02,1_A,73.0,11111,ignore,1.0,1900.0,1.79792075229
73,1_17_1,17,1.0,455.109017641,1_I,training,02,1_A,74.0,11101,kill,0.0,1800.0,23.6364978421
74,1_17_1,17,1.0,458.859196324,1_I,training,02,1_A,75.0,00111,kill,0.0,1700.0,1.57273774868
75,1_17_1,17,1.0,462.578159606,1_I,training,02,1_A,76.0,01010,kill,0.0,1600.0,1.53409136161
76,1_17_1,17,1.0,466.281464489,1_I,training,02,1_A,77.0,00010,ignore,1.0,1700.0,1.53507252612
77,1_17_1,17,1.0,471.906725329,1_I,training,02,1_A,78.0,00110,kill,0.0,1600.0,3.43992214726
78,1_17_1,17,1.0,475.719420612,1_I,training,02,1_A,79.0,01011,ignore,0.0,1500.0,1.64656237312
79,1_17_1,17,1.0,479.172723955,1_I,training,02,1_A,80.0,10000,ignore,0.0,1400.0,1.28195383929
80,1_17_1,17,1.0,483.344751242,1_I,training,02,1_A,81.0,11100,ignore,1.0,1500.0,1.97833104326
81,1_17_1,17,1.0,486.641824867,1_I,training,02,1_A,82.0,10110,ignore,1.0,1600.0,1.13953965732
82,1_17_1,17,1.0,490.220224223,1_I,training,02,1_A,83.0,01100,ignore,1.0,1700.0,1.40701741998
83,1_17_1,17,1.0,493.532769047,1_I,training,02,1_A,84.0,11010,ignore,1.0,1800.0,1.12667860212
84,1_17_1,17,1.0,497.376717089,1_I,training,02,1_A,85.0,01001,ignore,0.0,1700.0,1.67667632368
85,1_17_1,17,1.0,500.548764082,1_I,training,02,1_A,86.0,10001,ignore,0.0,1600.0,0.959627338117
86,1_17_1,17,1.0,504.127047257,1_I,training,02,1_A,87.0,00011,ignore,0.0,1500.0,1.40643734238
87,1_17_1,17,1.0,507.783504202,1_I,training,02,1_A,88.0,10111,ignore,1.0,1600.0,1.48434057329
88,1_17_1,17,1.0,511.455526358,1_I,training,02,1_A,89.0,01000,ignore,0.0,1500.0,1.51541434085
89,1_17_1,17,1.0,516.502652634,1_I,training,02,1_A,90.0,01111,ignore,1.0,1600.0,2.93041326731
90,1_17_1,17,1.0,525.128075222,1_I,training,02,1_A,91.0,01110,ignore,1.0,1700.0,6.4775220957
91,1_17_1,17,1.0,533.565975514,1_I,training,02,1_A,92.0,10100,kill,0.0,1600.0,6.26486310292
92,1_17_1,17,1.0,538.206849596,1_I,training,02,1_A,93.0,00101,ignore,1.0,1700.0,2.47855047106
93,1_17_1,17,1.0,542.160167512,1_I,training,02,1_A,94.0,00000,ignore,0.0,1600.0,1.79749503362
94,1_17_1,17,1.0,546.269740188,1_I,training,02,1_A,95.0,00001,ignore,0.0,1500.0,1.94277881391
95,1_17_1,17,1.0,553.723208153,1_I,training,02,1_A,96.0,00100,ignore,1.0,1600.0,5.26876025553
96,1_17_1,17,1.0,557.020253042,1_I,training,02,1_A,97.0,00011,ignore,0.0,1500.0,1.10795108628
97,1_17_1,17,1.0,562.754936304,1_I,training,02,1_A,98.0,11000,kill,1.0,1600.0,3.56935663113
98,1_17_1,17,1.0,567.536417009,1_I,training,02,1_A,99.0,00110,ignore,1.0,1700.0,2.60094150741
99,1_17_1,17,1.0,573.005412415,1_I,training,02,1_A,100.0,00100,ignore,1.0,1800.0,3.28614493073
100,1_17_1,17,1.0,578.177522219,1_I,training,02,1_A,101.0,00000,ignore,0.0,1700.0,3.00966344415
101,1_17_1,17,1.0,581.615187277,1_I,training,02,1_A,102.0,10110,ignore,1.0,1800.0,1.25878850404
102,1_17_1,17,1.0,584.709134806,1_I,training,02,1_A,103.0,01111,ignore,1.0,1900.0,0.92051417947
103,1_17_1,17,1.0,588.209268844,1_I,training,02,1_A,104.0,00001,kill,1.0,2000.0,1.32649542404
104,1_17_1,17,1.0,591.771992967,1_I,training,02,1_A,105.0,01001,kill,1.0,2100.0,1.36704461343
105,1_17_1,17,1.0,594.912714127,1_I,training,02,1_A,106.0,11011,kill,1.0,2200.0,0.979856979877
106,1_17_1,17,1.0,598.272274385,1_I,training,02,1_A,107.0,11100,ignore,1.0,2300.0,1.18483086817
107,1_17_1,17,1.0,601.928671803,1_I,training,02,1_A,108.0,01011,kill,1.0,2400.0,1.48918645862
108,1_17_1,17,1.0,606.053863879,1_I,training,02,1_A,109.0,11110,ignore,1.0,2500.0,1.95976486536
109,1_17_1,17,1.0,613.397986601,1_I,training,02,1_A,110.0,10010,kill,0.0,2400.0,5.18611377157
110,1_17_1,17,1.0,621.382750635,1_I,training,02,1_A,111.0,11001,kill,1.0,2500.0,5.83926021017
111,1_17_1,17,1.0,625.539207375,1_I,training,02,1_A,112.0,10111,ignore,1.0,2600.0,1.98307388579
112,1_17_1,17,1.0,629.117541456,1_I,training,02,1_A,113.0,10101,ignore,1.0,2700.0,1.42175212993
113,1_17_1,17,1.0,632.383290891,1_I,training,02,1_A,114.0,01110,ignore,1.0,2800.0,1.11935968957
114,1_17_1,17,1.0,636.164734648,1_I,training,02,1_A,115.0,10011,kill,1.0,2900.0,1.62593410762
115,1_17_1,17,1.0,641.243148577,1_I,training,02,1_A,116.0,01100,ignore,1.0,3000.0,2.94435894036
116,1_17_1,17,1.0,644.774566163,1_I,training,02,1_A,117.0,10001,kill,1.0,3100.0,1.35270277982
117,1_17_1,17,1.0,649.93103604,1_I,training,02,1_A,118.0,01000,kill,1.0,3200.0,3.02179006281
118,1_17_1,17,1.0,653.087444337,1_I,training,02,1_A,119.0,10000,kill,1.0,3300.0,1.00020567507
119,1_17_1,17,1.0,656.634491997,1_I,training,02,1_A,120.0,10100,ignore,1.0,3400.0,1.37600851602
120,1_17_1,17,1.0,661.587876419,1_I,training,02,1_A,121.0,00010,kill,0.0,3300.0,2.80644087293
121,1_17_1,17,1.0,665.884959487,1_I,training,02,1_A,122.0,11111,ignore,1.0,3400.0,2.13589210639
122,1_17_1,17,1.0,669.822669088,1_I,training,02,1_A,123.0,00111,ignore,1.0,3500.0,1.76702802805
123,1_17_1,17,1.0,673.166558219,1_I,training,02,1_A,124.0,11010,kill,0.0,3400.0,1.21378589512
124,1_17_1,17,1.0,679.901268986,1_I,training,02,1_A,125.0,00101,ignore,1.0,3500.0,4.5538796846
125,1_17_1,17,1.0,685.120280506,1_I,training,02,1_A,126.0,01010,ignore,1.0,3600.0,3.05036945565
126,1_17_1,17,1.0,689.198605351,1_I,training,02,1_A,127.0,01101,ignore,1.0,3700.0,1.92455501726
127,1_17_1,17,1.0,692.52687426,1_I,training,02,1_A,128.0,11101,ignore,1.0,3800.0,1.13507433245
128,1_17_1,17,1.0,697.73028978,1_I,training,02,1_A,129.0,01110,ignore,1.0,3900.0,3.06314758397
129,1_17_1,17,1.0,701.292929334,1_I,training,02,1_A,130.0,11010,kill,0.0,3800.0,1.39947025327
130,1_17_1,17,1.0,704.824348562,1_I,training,02,1_A,131.0,00110,ignore,1.0,3900.0,1.35417986347
131,1_17_1,17,1.0,713.402921982,1_I,training,02,1_A,132.0,00010,kill,0.0,3800.0,6.39994810912
132,1_17_1,17,1.0,716.559303595,1_I,training,02,1_A,133.0,11110,ignore,1.0,3900.0,0.988552396443
133,1_17_1,17,1.0,719.809483715,1_I,training,02,1_A,134.0,01111,ignore,1.0,4000.0,1.10061739469
134,1_17_1,17,1.0,723.497143744,1_I,training,02,1_A,135.0,00011,ignore,0.0,3900.0,1.41994210719
135,1_17_1,17,1.0,727.372360144,1_I,training,02,1_A,136.0,01010,ignore,1.0,4000.0,1.72330011195
136,1_17_1,17,1.0,737.685336024,1_I,training,02,1_A,137.0,10000,kill,1.0,4100.0,8.16139540478
137,1_17_1,17,1.0,741.13862623,1_I,training,02,1_A,138.0,11101,ignore,1.0,4200.0,1.29497253766
138,1_17_1,17,1.0,744.888843092,1_I,training,02,1_A,139.0,10100,ignore,1.0,4300.0,1.58772206031
139,1_17_1,17,1.0,749.764060724,1_I,training,02,1_A,140.0,00001,ignore,0.0,4200.0,2.68475348344
140,1_17_1,17,1.0,752.654799229,1_I,training,02,1_A,141.0,10101,ignore,1.0,4300.0,0.722292263046
141,1_17_1,17,1.0,756.029995308,1_I,training,02,1_A,142.0,01011,kill,1.0,4400.0,1.22313446347
142,1_17_1,17,1.0,758.983269708,1_I,training,02,1_A,143.0,10011,kill,1.0,4500.0,0.7978517834
143,1_17_1,17,1.0,762.452154272,1_I,training,02,1_A,144.0,01001,kill,1.0,4600.0,1.33824353489
144,1_17_1,17,1.0,765.921102057,1_I,training,02,1_A,145.0,11111,ignore,1.0,4700.0,1.32343985605
145,1_17_1,17,1.0,771.108860408,1_I,training,02,1_A,146.0,11000,ignore,0.0,4600.0,3.03695008089
146,1_17_1,17,1.0,773.937129934,1_I,training,02,1_A,147.0,00101,ignore,1.0,4700.0,0.677248601225
147,1_17_1,17,1.0,778.515439794,1_I,training,02,1_A,148.0,11011,kill,1.0,4800.0,2.42818635229
148,1_17_1,17,1.0,782.187500949,1_I,training,02,1_A,149.0,01100,ignore,1.0,4900.0,1.52813294246
149,1_17_1,17,1.0,786.28146531,1_I,training,02,1_A,150.0,10010,ignore,1.0,5000.0,1.93036769859
150,1_17_1,17,1.0,789.54724225,1_I,training,02,1_A,151.0,10110,ignore,1.0,5100.0,1.088448081
151,1_17_1,17,1.0,797.641419265,1_I,training,02,1_A,152.0,11001,kill,1.0,5200.0,5.956139483
152,1_17_1,17,1.0,801.157199798,1_I,training,02,1_A,153.0,10111,ignore,1.0,5300.0,1.32268325095
153,1_17_1,17,1.0,805.938680092,1_I,training,02,1_A,154.0,10001,ignore,0.0,5200.0,2.62612787735
154,1_17_1,17,1.0,811.126400263,1_I,training,02,1_A,155.0,01000,kill,1.0,5300.0,2.99715831767
155,1_17_1,17,1.0,814.40782411,1_I,training,02,1_A,156.0,11100,ignore,1.0,5400.0,1.12418053263
156,1_17_1,17,1.0,817.579852218,1_I,training,02,1_A,157.0,00100,ignore,1.0,5500.0,0.984761981394
157,1_17_1,17,1.0,820.62687504,1_I,training,02,1_A,158.0,01101,ignore,1.0,5600.0,0.87962342988
158,1_17_1,17,1.0,823.908281644,1_I,training,02,1_A,159.0,00111,ignore,1.0,5700.0,1.12247396322
159,1_17_1,17,1.0,827.01783872,1_I,training,02,1_A,160.0,00000,ignore,0.0,5600.0,0.952686522864
160,1_17_1,17,1.0,832.439987011,1_I,training,02,1_A,161.0,11001,kill,1.0,5700.0,3.26701222268
161,1_17_1,17,1.0,838.002743976,1_I,training,02,1_A,162.0,10001,kill,1.0,5800.0,3.41934437684
162,1_17_1,17,1.0,842.5810719,1_I,training,02,1_A,163.0,00101,ignore,1.0,5900.0,2.43404870763
163,1_17_1,17,1.0,997.088635282,1_I,test,02,2,0.0,11110,ignore,0.0,0.0,6.2493906722
164,1_17_1,17,1.0,1001.44820211,1_I,test,02,2,1.0,10110,kill,1.0,100.0,2.1977120393
165,1_17_1,17,1.0,1010.30804707,1_I,test,02,2,2.0,01100,kill,0.0,0.0,6.70148295422
166,1_17_1,17,1.0,1016.98023508,1_I,test,02,2,3.0,10101,ignore,1.0,100.0,4.49360785687
167,1_17_1,17,1.0,1021.5741861,1_I,test,02,2,4.0,01011,kill,0.0,0.0,2.44879614398
168,1_17_1,17,1.0,1025.88688774,1_I,test,02,2,5.0,00100,ignore,1.0,100.0,2.14541638118
169,1_17_1,17,1.0,1029.91833345,1_I,test,02,2,6.0,00011,ignore,0.0,0.0,1.87797556613
170,1_17_1,17,1.0,1033.57479902,1_I,test,02,2,7.0,01111,ignore,1.0,100.0,1.47932637103
171,1_17_1,17,1.0,1038.7000227,1_I,test,02,2,8.0,11111,kill,1.0,200.0,2.96796887861
172,1_17_1,17,1.0,1044.68472516,1_I,test,02,2,9.0,00001,ignore,1.0,300.0,3.81641426654
173,1_17_1,17,1.0,1048.66929378,1_I,test,02,2,10.0,10011,kill,1.0,400.0,1.81498357268
174,1_17_1,17,1.0,1052.74757675,1_I,test,02,2,11.0,10111,kill,1.0,500.0,1.92276798415
175,1_17_1,17,1.0,1057.02904616,1_I,test,02,2,12.0,01001,ignore,1.0,600.0,2.11762315154
176,1_17_1,17,1.0,1061.34180611,1_I,test,02,2,13.0,11011,kill,1.0,700.0,2.16813013444
177,1_17_1,17,1.0,1065.70137047,1_I,test,02,2,14.0,11000,ignore,1.0,800.0,2.20122288404
178,1_17_1,17,1.0,1070.04530353,1_I,test,02,2,15.0,01101,ignore,1.0,900.0,2.18774110886
179,1_17_1,17,1.0,1076.09247086,1_I,test,02,2,16.0,00111,kill,1.0,1000.0,3.90393988869
180,1_17_1,17,1.0,1079.92079129,1_I,test,02,3,0.0,01000,ignore,0.0,900.0,1.6902348678
181,1_17_1,17,1.0,1083.73347425,1_I,test,02,3,1.0,01110,ignore,1.0,1000.0,1.63570223669
182,1_17_1,17,1.0,1087.11177106,1_I,test,02,3,2.0,11100,kill,1.0,1100.0,1.22322724304
183,1_17_1,17,1.0,1092.08077037,1_I,test,02,3,3.0,11101,kill,0.0,1000.0,2.77380955802
184,1_17_1,17,1.0,1096.56535151,1_I,test,02,3,4.0,01010,ignore,0.0,900.0,2.3378202794
185,1_17_1,17,1.0,1100.20618536,1_I,test,02,3,5.0,10100,ignore,0.0,800.0,1.54587518848
186,1_17_1,17,1.0,1104.20641567,1_I,test,02,3,6.0,10000,kill,1.0,900.0,1.8416798686
187,1_17_1,17,1.0,1107.98781303,1_I,test,02,3,7.0,00010,kill,1.0,1000.0,1.63602080726
188,1_17_1,17,1.0,1112.20676338,1_I,test,02,3,8.0,00110,ignore,1.0,1100.0,2.06809281734
189,1_17_1,17,1.0,1115.69134412,1_I,test,02,3,9.0,11010,kill,1.0,1200.0,1.37264381963
190,1_17_1,17,1.0,1119.05084156,1_I,test,02,3,10.0,00000,kill,1.0,1300.0,1.2088427144
191,1_17_1,17,1.0,1122.97288537,1_I,test,02,3,11.0,10010,kill,1.0,1400.0,1.72645379639
192,1_17_1,17,1.0,1125.97308079,1_I,test,02,3,12.0,01000,kill,1.0,1500.0,0.819654983146
193,1_17_1,17,1.0,1129.20758608,1_I,test,02,3,13.0,01011,kill,0.0,1400.0,1.0812441166
194,1_17_1,17,1.0,1135.34852893,1_I,test,02,3,14.0,01101,kill,0.0,1300.0,3.98492742462
195,1_17_1,17,1.0,1138.98932994,1_I,test,02,3,15.0,01010,ignore,0.0,1200.0,1.47704916619
196,1_17_1,17,1.0,1143.11451257,1_I,test,02,3,16.0,00000,ignore,0.0,1100.0,1.94126806687
197,1_17_1,17,1.0,1146.94283382,1_I,test,02,3,17.0,11101,ignore,1.0,1200.0,1.68108827976
198,1_17_1,17,1.0,1149.98984597,1_I,test,02,3,18.0,10001,ignore,1.0,1300.0,0.864130062183
199,1_17_1,17,1.0,1153.77127577,1_I,test,02,3,19.0,10011,kill,0.0,1200.0,1.62977912304
200,1_17_1,17,1.0,1157.08394417,1_I,test,02,3,20.0,01111,ignore,1.0,1300.0,1.16270786627
201,1_17_1,17,1.0,1160.59974728,1_I,test,02,3,21.0,11100,kill,1.0,1400.0,1.36236827661
202,1_17_1,17,1.0,1163.89680571,1_I,test,02,3,22.0,11010,kill,1.0,1500.0,1.17181955933
203,1_17_1,17,1.0,1167.30320693,1_I,test,02,3,23.0,00011,ignore,1.0,1600.0,1.25867684012
204,1_17_1,17,1.0,1170.70965577,1_I,test,02,3,24.0,10100,kill,1.0,1700.0,1.25196345799
205,1_17_1,17,1.0,1173.85038226,1_I,test,02,3,25.0,10010,kill,1.0,1800.0,0.98789349726
206,1_17_1,17,1.0,1178.31936946,1_I,test,02,3,26.0,01001,ignore,1.0,1900.0,2.31881442484
207,1_17_1,17,1.0,1181.8195347,1_I,test,02,3,27.0,01100,kill,1.0,2000.0,1.35809631094
208,1_17_1,17,1.0,1185.19469383,1_I,test,02,3,28.0,00111,ignore,1.0,2100.0,1.22590922956
209,1_17_1,17,1.0,1188.53864208,1_I,test,02,3,29.0,01110,kill,0.0,2000.0,1.19669146399
210,1_17_1,17,1.0,1194.44513997,1_I,test,02,3,30.0,10101,ignore,1.0,2100.0,3.75266115217
211,1_17_1,17,1.0,1198.44533415,1_I,test,02,3,31.0,11001,kill,0.0,2000.0,1.86644749887
212,1_17_1,17,1.0,1201.35175446,1_I,test,02,3,32.0,00101,ignore,1.0,2100.0,0.783645834915
213,1_17_1,17,1.0,1204.32065031,1_I,test,02,3,33.0,00100,ignore,0.0,2000.0,0.796321741497
214,1_17_1,17,1.0,1208.27398424,1_I,test,02,3,34.0,11110,kill,0.0,1900.0,1.85006820941
215,1_17_1,17,1.0,1211.6022474,1_I,test,02,3,35.0,00110,ignore,1.0,2000.0,1.1949894104
216,1_17_1,17,1.0,1214.89925329,1_I,test,02,3,36.0,11000,ignore,0.0,1900.0,1.15078733321
217,1_17_1,17,1.0,1217.89943269,1_I,test,02,3,37.0,10110,ignore,1.0,2000.0,0.858086252982
218,1_17_1,17,1.0,1221.96210488,1_I,test,02,3,38.0,11111,ignore,1.0,2100.0,1.90965896938
219,1_17_1,17,1.0,1226.16546621,1_I,test,02,3,39.0,11011,kill,0.0,2000.0,2.05491852845
220,1_17_1,17,1.0,1231.55633054,1_I,test,02,3,40.0,10000,ignore,0.0,1900.0,3.24736224799
221,1_17_1,17,1.0,1235.15027787,1_I,test,02,3,41.0,10111,ignore,1.0,2000.0,1.2823619052
222,1_17_1,17,1.0,1238.4473129,1_I,test,02,3,42.0,00010,kill,1.0,2100.0,1.0410504454
223,1_17_1,17,1.0,1241.93188337,1_I,test,02,3,43.0,00001,ignore,1.0,2200.0,1.32766789511
224,1_17_1,17,1.0,1245.10386181,1_I,test,02,3,44.0,00010,kill,1.0,2300.0,0.970074892821
225,1_17_1,17,1.0,1248.82278978,1_I,test,02,3,45.0,00100,kill,1.0,2400.0,1.56335346431
226,1_17_1,17,1.0,1251.86984257,1_I,test,02,3,46.0,11010,kill,1.0,2500.0,0.909676622134
227,1_17_1,17,1.0,1255.02623856,1_I,test,02,3,47.0,10001,ignore,1.0,2600.0,0.98343925668
228,1_17_1,17,1.0,1257.96388576,1_I,test,02,3,48.0,11100,kill,1.0,2700.0,0.776488670834
229,1_17_1,17,1.0,1260.80775087,1_I,test,02,3,49.0,11110,kill,0.0,2600.0,0.694906278262
230,1_17_1,17,1.0,1265.13612118,1_I,test,02,3,50.0,00001,ignore,1.0,2700.0,2.18322487839
231,1_17_1,17,1.0,1268.91752758,1_I,test,02,3,51.0,01010,kill,1.0,2800.0,1.61077901589
232,1_17_1,17,1.0,1272.41772484,1_I,test,02,3,52.0,10011,ignore,1.0,2900.0,1.3199302429
233,1_17_1,17,1.0,1275.83977296,1_I,test,02,3,53.0,01100,ignore,0.0,2800.0,1.28243169514
234,1_17_1,17,1.0,1278.94927174,1_I,test,02,3,54.0,00101,ignore,1.0,2900.0,0.935196341693
235,1_17_1,17,1.0,1282.76197031,1_I,test,02,3,55.0,10100,kill,1.0,3000.0,1.65965948254
236,1_17_1,17,1.0,1286.02774643,1_I,test,02,3,56.0,00111,ignore,1.0,3100.0,1.09076059134
237,1_17_1,17,1.0,1289.3404296,1_I,test,02,3,57.0,11001,ignore,1.0,3200.0,1.1630978689
238,1_17_1,17,1.0,1292.99685206,1_I,test,02,3,58.0,11000,kill,1.0,3300.0,1.52133417027
239,1_17_1,17,1.0,1296.34072108,1_I,test,02,3,59.0,01011,ignore,1.0,3400.0,1.20984358431
240,1_17_1,17,1.0,1300.21596334,1_I,test,02,3,60.0,01000,kill,1.0,3500.0,1.74601755997
241,1_17_1,17,1.0,1303.481698,1_I,test,02,3,61.0,11011,ignore,1.0,3600.0,1.13200398542
242,1_17_1,17,1.0,1307.57568165,1_I,test,02,3,62.0,10010,kill,1.0,3700.0,1.94097782281
243,1_17_1,17,1.0,1310.8883406,1_I,test,02,3,63.0,01111,ignore,1.0,3800.0,1.18476682564
244,1_17_1,17,1.0,1314.669786,1_I,test,02,4,0.0,01001,ignore,1.0,3900.0,1.6593540489
245,1_17_1,17,1.0,1319.70131135,1_I,test,02,4,1.0,11111,ignore,0.0,3800.0,2.91624426645
246,1_17_1,17,1.0,1323.70147023,1_I,test,02,4,2.0,10111,kill,1.0,3900.0,1.74151528749
247,1_17_1,17,1.0,1327.37349074,1_I,test,02,4,3.0,11101,kill,1.0,4000.0,1.40616105631
248,1_17_1,17,1.0,1332.28003051,1_I,test,02,4,4.0,00000,ignore,1.0,4100.0,2.68424360632
249,1_17_1,17,1.0,1336.56144984,1_I,test,02,4,5.0,10110,kill,1.0,4200.0,2.132237987
250,1_17_1,17,1.0,1340.56165921,1_I,test,02,4,6.0,01101,kill,0.0,4100.0,1.83719196463
251,1_17_1,17,1.0,1344.2493451,1_I,test,02,4,7.0,00110,ignore,1.0,4200.0,1.53412954081
252,1_17_1,17,1.0,1347.40577146,1_I,test,02,4,8.0,01110,ignore,1.0,4300.0,1.00418000715
253,1_17_1,17,1.0,1351.09342287,1_I,test,02,4,9.0,10000,kill,1.0,4400.0,1.55161315352
254,1_17_1,17,1.0,1354.53112242,1_I,test,02,4,10.0,00011,kill,0.0,4300.0,1.26289502648
255,1_17_1,17,1.0,1358.64066759,1_I,test,02,4,11.0,10101,ignore,0.0,4200.0,1.93917149483
256,1_17_1,17,1.0,1361.6095815,1_I,test,02,4,12.0,11000,ignore,1.0,4300.0,0.840500008005
257,1_17_1,17,1.0,1365.1253764,1_I,test,02,4,13.0,01110,kill,0.0,4200.0,1.36261869935
258,1_17_1,17,1.0,1369.15677901,1_I,test,02,4,14.0,10100,ignore,0.0,4100.0,1.89628023701
259,1_17_1,17,1.0,1372.61010903,1_I,test,02,4,15.0,01010,ignore,1.0,4200.0,1.31446527971
260,1_17_1,17,1.0,1375.62588443,1_I,test,02,4,16.0,00100,ignore,1.0,4300.0,0.82212267348
261,1_17_1,17,1.0,1378.82916407,1_I,test,02,4,17.0,11001,kill,1.0,4400.0,1.06120085505
262,1_17_1,17,1.0,1382.61062999,1_I,test,02,4,18.0,00101,kill,0.0,4300.0,1.58914002778
263,1_17_1,17,1.0,1385.89199842,1_I,test,02,4,19.0,10110,ignore,0.0,4200.0,1.13857162973
264,1_17_1,17,1.0,1389.07970012,1_I,test,02,4,20.0,00010,ignore,1.0,4300.0,1.03876995633
265,1_17_1,17,1.0,1392.37670231,1_I,test,02,4,21.0,10001,ignore,0.0,4200.0,1.04720797116
266,1_17_1,17,1.0,1395.59562844,1_I,test,02,4,22.0,00110,kill,0.0,4100.0,1.08812088932
267,1_17_1,17,1.0,1399.50203273,1_I,test,02,4,23.0,11011,kill,1.0,4200.0,1.78090391115
268,1_17_1,17,1.0,1403.08030975,1_I,test,02,4,24.0,00111,kill,0.0,4100.0,1.3986491951
269,1_17_1,17,1.0,1406.53362746,1_I,test,02,4,25.0,10011,kill,1.0,4200.0,1.32545268016
270,1_17_1,17,1.0,1409.83068795,1_I,test,02,4,26.0,01111,ignore,1.0,4300.0,1.17307126251
271,1_17_1,17,1.0,1413.19021537,1_I,test,02,4,27.0,01001,kill,0.0,4200.0,1.23548728366
272,1_17_1,17,1.0,1417.23726857,1_I,test,02,4,28.0,11111,ignore,0.0,4100.0,1.9127855589
273,1_17_1,17,1.0,1420.48744048,1_I,test,02,4,29.0,11010,ignore,1.0,4200.0,1.1075914628
274,1_17_1,17,1.0,1424.12826078,1_I,test,02,4,30.0,01011,ignore,1.0,4300.0,1.52262528424
275,1_17_1,17,1.0,1427.09713159,1_I,test,02,4,31.0,10111,ignore,0.0,4200.0,0.806733580171
276,1_17_1,17,1.0,1430.17540019,1_I,test,02,4,32.0,10101,ignore,0.0,4100.0,0.955096739126
277,1_17_1,17,1.0,1432.84741085,1_I,test,02,4,33.0,01100,ignore,1.0,4200.0,0.541055987546
278,1_17_1,17,1.0,1436.16009854,1_I,test,02,4,34.0,11101,kill,1.0,4300.0,1.15163712841
279,1_17_1,17,1.0,1440.67590371,1_I,test,02,4,35.0,11110,kill,0.0,4200.0,2.41160467199
280,1_17_1,17,1.0,1444.16046474,1_I,test,02,4,36.0,00000,ignore,1.0,4300.0,1.28545483133
281,1_17_1,17,1.0,1447.52003033,1_I,test,02,4,37.0,01101,kill,0.0,4200.0,1.24709991991
282,1_17_1,17,1.0,1450.62950817,1_I,test,02,4,38.0,10000,ignore,0.0,4100.0,0.942009071871
283,1_17_1,17,1.0,1453.83284405,1_I,test,02,4,39.0,00011,ignore,1.0,4200.0,1.04916865808
284,1_17_1,17,1.0,1457.16112938,1_I,test,02,4,40.0,01000,kill,0.0,4100.0,1.19792058807
285,1_17_1,17,1.0,1460.70816637,1_I,test,02,4,41.0,10010,ignore,0.0,4000.0,1.43288567873
286,1_17_1,17,1.0,1464.0520711,1_I,test,02,4,42.0,00001,ignore,1.0,4100.0,1.1819801542
287,1_17_1,17,1.0,1468.06786826,1_I,test,02,4,43.0,11100,ignore,1.0,4200.0,1.88266380829
288,1_17_1,17,1.0,1471.34929375,1_I,test,02,4,44.0,01011,ignore,1.0,4300.0,1.13272856925
289,1_17_1,17,1.0,1475.1776347,1_I,test,02,4,45.0,00100,ignore,1.0,4400.0,1.68684553966
290,1_17_1,17,1.0,1478.41216545,1_I,test,02,4,46.0,00001,ignore,1.0,4500.0,1.06173659551
291,1_17_1,17,1.0,1481.45918417,1_I,test,02,4,47.0,01111,ignore,1.0,4600.0,0.870295387993
292,1_17_1,17,1.0,1484.88121998,1_I,test,02,4,48.0,10010,kill,1.0,4700.0,1.31580155188
293,1_17_1,17,1.0,1488.17825009,1_I,test,02,4,49.0,10011,ignore,0.0,4600.0,1.13690816587
294,1_17_1,17,1.0,1491.63152387,1_I,test,02,4,50.0,00110,kill,0.0,4500.0,1.30192566878
295,1_17_1,17,1.0,1495.47547356,1_I,test,02,4,51.0,10000,ignore,0.0,4400.0,1.65908925765
296,1_17_1,17,1.0,1498.80380938,1_I,test,02,4,52.0,00010,ignore,1.0,4500.0,1.1825897899
297,1_17_1,17,1.0,1501.8039038,1_I,test,02,4,53.0,11001,ignore,0.0,4400.0,0.800780908427
298,1_17_1,17,1.0,1505.02279996,1_I,test,02,4,54.0,01001,kill,0.0,4300.0,1.05441152503
299,1_17_1,17,1.0,1508.89803853,1_I,test,02,4,55.0,01100,ignore,1.0,4400.0,1.74086829365
300,1_17_1,17,1.0,1512.4919173,1_I,test,02,4,56.0,11011,ignore,0.0,4300.0,1.47379572319
301,1_17_1,17,1.0,1515.74523181,1_I,test,02,4,57.0,11110,ignore,1.0,4400.0,1.12388618327
302,1_17_1,17,1.0,1519.01103379,1_I,test,02,4,58.0,10100,ignore,0.0,4300.0,1.15178450836
303,1_17_1,17,1.0,1521.90180226,1_I,test,02,4,59.0,01101,ignore,1.0,4400.0,0.789694980995
304,1_17_1,17,1.0,1526.44889672,1_I,test,02,4,60.0,00000,ignore,1.0,4500.0,2.43934165914
305,1_17_1,17,1.0,1530.33970173,1_I,test,02,4,61.0,11101,ignore,0.0,4400.0,1.77804088131
306,1_17_1,17,1.0,1533.76174493,1_I,test,02,4,62.0,00111,ignore,1.0,4500.0,1.2643618469
307,1_17_1,17,1.0,1536.74625854,1_I,test,02,4,63.0,11111,ignore,0.0,4400.0,0.853790066099
308,1_17_1,17,1.0,1539.91829486,1_I,test,02,4,64.0,10101,kill,1.0,4500.0,1.03513718445
309,1_17_1,17,1.0,1543.43410126,1_I,test,02,4,65.0,11100,ignore,1.0,4600.0,1.36898190018
310,1_17_1,17,1.0,1546.71552018,1_I,test,02,4,66.0,01010,ignore,1.0,4700.0,1.17480656896
311,1_17_1,17,1.0,1551.12193453,1_I,test,02,4,67.0,10111,kill,1.0,4800.0,2.25579369435
312,1_17_1,17,1.0,1554.5439769,1_I,test,02,4,68.0,11010,ignore,1.0,4900.0,1.32606888432
313,1_17_1,17,1.0,1558.24731093,1_I,test,02,4,69.0,10001,ignore,0.0,4800.0,1.54371991078
314,1_17_1,17,1.0,1561.23184343,1_I,test,02,4,70.0,10110,ignore,0.0,4700.0,0.83599404076
315,1_17_1,17,1.0,1566.52895687,1_I,test,02,4,71.0,00101,ignore,1.0,4800.0,3.16890151859
316,1_17_1,17,1.0,1570.51350292,1_I,test,02,4,72.0,00011,kill,0.0,4700.0,1.84202799726
317,1_17_1,17,1.0,1579.68587792,1_I,test,02,4,73.0,11000,ignore,1.0,4800.0,7.07646514752
318,1_17_1,17,1.0,1582.88916002,1_I,test,02,4,74.0,01110,ignore,1.0,4900.0,1.04568449772
319,1_17_1,17,1.0,1585.92055277,1_I,test,02,4,75.0,01000,ignore,1.0,5000.0,0.870415673015
320,1_17_1,17,1.0,1589.0613002,1_I,test,02,4,76.0,10011,kill,1.0,5100.0,0.962960013235
321,1_17_1,17,1.0,1592.10830989,1_I,test,02,4,77.0,11100,ignore,1.0,5200.0,0.905218276263
322,1_17_1,17,1.0,1595.24911767,1_I,test,02,4,78.0,01001,kill,0.0,5100.0,1.03274954729
323,1_17_1,17,1.0,1598.31176441,1_I,test,02,4,79.0,01111,ignore,1.0,5200.0,0.948472031268
324,1_17_1,17,1.0,1601.4212907,1_I,test,02,4,80.0,10111,ignore,0.0,5100.0,0.949350563513
325,1_17_1,17,1.0,1605.15584464,1_I,test,02,4,81.0,00000,kill,0.0,5000.0,1.60485426012
326,1_17_1,17,1.0,1608.18725012,1_I,test,02,4,82.0,00010,ignore,1.0,5100.0,0.902746070107
327,1_17_1,17,1.0,1610.99985755,1_I,test,02,4,83.0,00001,ignore,1.0,5200.0,0.63777499804
328,1_17_1,17,1.0,1613.68750239,1_I,test,02,4,84.0,10000,ignore,0.0,5100.0,0.552396853541
329,1_17_1,17,1.0,1617.93772643,1_I,test,02,4,85.0,01110,ignore,1.0,5200.0,2.07765280816
330,1_17_1,17,1.0,1620.84416398,1_I,test,02,4,86.0,00101,ignore,1.0,5300.0,0.768663165401
331,1_17_1,17,1.0,1623.85990449,1_I,test,02,4,87.0,10100,ignore,0.0,5200.0,0.841752532246
332,1_17_1,17,1.0,1626.89126562,1_I,test,02,4,88.0,11010,ignore,1.0,5300.0,0.898863286015
333,1_17_1,17,1.0,1630.11017656,1_I,test,02,4,89.0,00110,kill,0.0,5200.0,1.11237330559
334,1_17_1,17,1.0,1633.68846549,1_I,test,02,4,90.0,01100,kill,0.0,5100.0,1.43457911121
335,1_17_1,17,1.0,1636.50114024,1_I,test,02,4,91.0,10101,ignore,0.0,5000.0,0.707402373104
336,1_17_1,17,1.0,1639.45441423,1_I,test,02,4,92.0,10010,ignore,0.0,4900.0,0.805487624395
337,1_17_1,17,1.0,1642.7513959,1_I,test,02,4,93.0,11000,kill,0.0,4800.0,1.13454762363
338,1_17_1,17,1.0,1645.75159788,1_I,test,02,4,94.0,11101,ignore,0.0,4700.0,0.884654463826
339,1_17_1,17,1.0,1648.89238021,1_I,test,02,4,95.0,01011,ignore,1.0,4800.0,1.00666329759
340,1_17_1,17,1.0,1651.59560135,1_I,test,02,4,96.0,11011,ignore,0.0,4700.0,0.605198694025
341,1_17_1,17,1.0,1655.2520587,1_I,test,02,4,97.0,00111,kill,0.0,4600.0,1.54036547762
342,1_17_1,17,1.0,1659.08037872,1_I,test,02,4,98.0,01000,kill,0.0,4500.0,1.67067151474
343,1_17_1,17,1.0,1661.98671856,1_I,test,02,4,99.0,01010,ignore,1.0,4600.0,0.806941307888
344,1_17_1,17,1.0,1665.5494119,1_I,test,02,4,100.0,11001,kill,1.0,4700.0,1.46895230104
345,1_17_1,17,1.0,1669.0183605,1_I,test,02,4,101.0,10001,kill,1.0,4800.0,1.38563337043
346,1_17_1,17,1.0,1672.14349428,1_I,test,02,4,102.0,00011,kill,0.0,4700.0,1.03301515961
347,1_17_1,17,1.0,1675.11238275,1_I,test,02,4,103.0,00100,ignore,1.0,4800.0,0.817873286913
348,1_17_1,17,1.0,1677.97192104,1_I,test,02,4,104.0,11110,ignore,1.0,4900.0,0.776331027665
349,1_17_1,17,1.0,1681.48770404,1_I,test,02,4,105.0,01101,kill,0.0,4800.0,1.42139455909
350,1_17_1,17,1.0,1684.5816138,1_I,test,02,4,106.0,10110,ignore,0.0,4700.0,0.931804960916
351,1_17_1,17,1.0,1687.73803195,1_I,test,02,4,107.0,11111,ignore,0.0,4600.0,1.01231012517
352,1_17_1,17,1.0,1690.98813201,1_I,test,02,4,108.0,01000,ignore,1.0,4700.0,1.09230212806
353,1_17_1,17,1.0,1694.39460097,1_I,test,02,4,109.0,00100,kill,0.0,4600.0,1.27929607399
354,1_17_1,17,1.0,1697.9103774,1_I,test,02,4,110.0,00011,ignore,1.0,4700.0,1.33951083817
355,1_17_1,17,1.0,1701.14489296,1_I,test,02,4,111.0,11010,ignore,1.0,4800.0,1.09010046057
356,1_17_1,17,1.0,1704.47322632,1_I,test,02,4,112.0,11011,ignore,0.0,4700.0,1.22382784709
357,1_17_1,17,1.0,1708.44214968,1_I,test,02,4,113.0,11100,kill,0.0,4600.0,1.82090175998
358,1_17_1,17,1.0,1712.92673328,1_I,test,02,4,114.0,10100,ignore,0.0,4500.0,2.36316182933
359,1_17_1,17,1.0,1721.69280806,1_I,test,02,4,115.0,00000,kill,0.0,4400.0,6.58346446317
360,1_17_1,17,1.0,1724.38042376,1_I,test,02,4,116.0,00010,ignore,1.0,4500.0,0.525223112295
361,1_17_1,17,1.0,1727.78684057,1_I,test,02,4,117.0,00001,ignore,1.0,4600.0,1.26903120473
362,1_17_1,17,1.0,1730.83386504,1_I,test,02,4,118.0,01101,kill,0.0,4500.0,0.909071091733
363,1_17_1,17,1.0,1733.53709726,1_I,test,02,4,119.0,11111,ignore,0.0,4400.0,0.612664575979
364,1_17_1,17,1.0,1736.31849462,1_I,test,02,5,0.0,00110,ignore,0.0,4300.0,0.677704699039
365,1_17_1,17,1.0,1739.09989692,1_I,test,02,5,1.0,11110,kill,1.0,4400.0,0.634855315181
366,1_17_1,17,1.0,1741.78754997,1_I,test,02,5,2.0,00111,kill,1.0,4500.0,0.586711748234
367,1_17_1,17,1.0,1745.31893635,1_I,test,02,5,3.0,10010,ignore,0.0,4400.0,1.43671222034
368,1_17_1,17,1.0,1748.14719438,1_I,test,02,5,4.0,10000,ignore,1.0,4500.0,0.696919923428
369,1_17_1,17,1.0,1750.92859668,1_I,test,02,5,5.0,11001,ignore,1.0,4600.0,0.655981552465
370,1_17_1,17,1.0,1753.64746348,1_I,test,02,5,6.0,01010,ignore,1.0,4700.0,0.598394584958
371,1_17_1,17,1.0,1756.24135703,1_I,test,02,5,7.0,01001,ignore,1.0,4800.0,0.486626809766
372,1_17_1,17,1.0,1758.97588142,1_I,test,02,5,8.0,10011,ignore,0.0,4700.0,0.5761607402
373,1_17_1,17,1.0,1763.02291573,1_I,test,02,5,9.0,01110,ignore,1.0,4800.0,1.89395992661
374,1_17_1,17,1.0,1765.56992686,1_I,test,02,5,10.0,11101,ignore,1.0,4900.0,0.429877321593
375,1_17_1,17,1.0,1768.28882856,1_I,test,02,5,11.0,10101,ignore,1.0,5000.0,0.574436107511
376,1_17_1,17,1.0,1770.85141967,1_I,test,02,5,12.0,00101,ignore,1.0,5100.0,0.455635558552
377,1_17_1,17,1.0,1773.88281447,1_I,test,02,5,13.0,10111,ignore,0.0,5000.0,0.878554412141
378,1_17_1,17,1.0,1777.41427024,1_I,test,02,5,14.0,01111,kill,0.0,4900.0,1.36754586944
379,1_17_1,17,1.0,1781.03942393,1_I,test,02,5,15.0,01011,ignore,1.0,5000.0,1.54988154183
380,1_17_1,17,1.0,1784.60207908,1_I,test,02,5,16.0,01100,kill,0.0,4900.0,1.44442770398
381,1_17_1,17,1.0,1788.61796122,1_I,test,02,5,17.0,10110,kill,1.0,5000.0,1.9101659728
382,1_17_1,17,1.0,1791.55558543,1_I,test,02,5,18.0,11000,ignore,1.0,5100.0,0.820437041054
383,1_17_1,17,1.0,1794.44636006,1_I,test,02,5,19.0,10001,ignore,1.0,5200.0,0.736736318399
384,1_17_1,17,1.0,1798.02466582,1_I,test,02,5,20.0,01011,kill,0.0,5100.0,1.47709637704
385,1_17_1,17,1.0,1801.83736357,1_I,test,02,5,21.0,00111,kill,1.0,5200.0,1.69314634007
386,1_17_1,17,1.0,1805.33749966,1_I,test,02,5,22.0,11100,ignore,1.0,5300.0,1.35709461998
387,1_17_1,17,1.0,1809.30647023,1_I,test,02,5,23.0,01001,ignore,1.0,5400.0,1.84432696014
388,1_17_1,17,1.0,1812.32217707,1_I,test,02,5,24.0,00010,ignore,0.0,5300.0,0.871501111918
389,1_17_1,17,1.0,1815.94737797,1_I,test,02,5,25.0,01110,kill,0.0,5200.0,1.52517466986
390,1_17_1,17,1.0,1819.27571708,1_I,test,02,5,26.0,00000,ignore,1.0,5300.0,1.21305925864
391,1_17_1,17,1.0,1823.10401247,1_I,test,02,5,27.0,10011,kill,1.0,5400.0,1.66353775082
392,1_17_1,17,1.0,1826.32288318,1_I,test,02,5,28.0,11001,ignore,1.0,5500.0,1.10198568813
393,1_17_1,17,1.0,1829.9793508,1_I,test,02,5,29.0,11111,kill,1.0,5600.0,1.5069463574
394,1_17_1,17,1.0,1833.38576967,1_I,test,02,5,30.0,00001,ignore,1.0,5700.0,1.23982698662
395,1_17_1,17,1.0,1837.15152793,1_I,test,02,5,31.0,10010,ignore,0.0,5600.0,1.59681815327
396,1_17_1,17,1.0,1840.55798333,1_I,test,02,5,32.0,01111,kill,0.0,5500.0,1.25501409962
397,1_17_1,17,1.0,1844.15186538,1_I,test,02,5,33.0,00100,ignore,1.0,5600.0,1.48295709027
398,1_17_1,17,1.0,1846.85516903,1_I,test,02,5,34.0,10100,ignore,1.0,5700.0,0.554565268172
399,1_17_1,17,1.0,1849.9959411,1_I,test,02,5,35.0,01010,kill,0.0,5600.0,1.06559105309
400,1_17_1,17,1.0,1852.66794355,1_I,test,02,5,36.0,11000,ignore,1.0,5700.0,0.520316058132
401,1_17_1,17,1.0,1855.26183052,1_I,test,02,5,37.0,11010,ignore,0.0,5600.0,0.466581085037
402,1_17_1,17,1.0,1858.49632597,1_I,test,02,5,38.0,01101,ignore,1.0,5700.0,1.14734176259
403,1_17_1,17,1.0,1861.09020761,1_I,test,02,5,39.0,10111,ignore,0.0,5600.0,0.455840412565
404,1_17_1,17,1.0,1863.8559708,1_I,test,02,5,40.0,10101,ignore,1.0,5700.0,0.680732351047
405,1_17_1,17,1.0,1867.32492022,1_I,test,02,5,41.0,11110,kill,1.0,5800.0,1.37505649907
406,1_17_1,17,1.0,1871.52822531,1_I,test,02,5,42.0,00011,kill,1.0,5900.0,2.04138010026
407,1_17_1,17,1.0,1876.74726311,1_I,test,02,5,43.0,10001,kill,0.0,5800.0,3.12275681776
408,1_17_1,17,1.0,1880.4192869,1_I,test,02,5,44.0,00101,kill,0.0,5700.0,1.55841274676
409,1_17_1,17,1.0,1883.29443926,1_I,test,02,5,45.0,11101,ignore,1.0,5800.0,0.732485289716
410,1_17_1,17,1.0,1886.45085536,1_I,test,02,5,46.0,00110,kill,1.0,5900.0,1.0233890736
411,1_17_1,17,1.0,1889.34161562,1_I,test,02,5,47.0,10110,kill,1.0,6000.0,0.736952667228
412,1_17_1,17,1.0,1892.43552743,1_I,test,02,5,48.0,01100,kill,0.0,5900.0,1.00917204083
413,1_17_1,17,1.0,1895.60750587,1_I,test,02,5,49.0,01000,ignore,1.0,6000.0,1.02886717372
414,1_17_1,17,1.0,1898.1857755,1_I,test,02,5,50.0,10000,ignore,1.0,6100.0,0.425592629525
415,1_17_1,17,1.0,1901.46720016,1_I,test,02,5,51.0,11011,kill,1.0,6200.0,1.18898378041
416,1_17_1,17,1.0,1904.29550705,1_I,test,02,5,52.0,11000,ignore,1.0,6300.0,0.712420680648
417,1_17_1,17,1.0,1907.35812094,1_I,test,02,5,53.0,10110,ignore,0.0,6200.0,0.942892530465
418,1_17_1,17,1.0,1910.13947479,1_I,test,02,5,54.0,10010,ignore,0.0,6100.0,0.599808857658
419,1_17_1,17,1.0,1913.34278932,1_I,test,02,5,55.0,10111,ignore,0.0,6000.0,1.02277204839
420,1_17_1,17,1.0,1916.29606085,1_I,test,02,5,56.0,10011,ignore,0.0,5900.0,0.845965381724
421,1_17_1,17,1.0,1919.8587238,1_I,test,02,5,57.0,01010,ignore,1.0,6000.0,1.42329736141
422,1_17_1,17,1.0,1923.49953056,1_I,test,02,5,58.0,00100,kill,0.0,5900.0,1.42081448149
423,1_17_1,17,1.0,1926.09339783,1_I,test,02,5,59.0,01100,ignore,1.0,6000.0,0.440752647605
424,1_17_1,17,1.0,1928.85915158,1_I,test,02,5,60.0,10100,ignore,1.0,6100.0,0.60262755036
425,1_17_1,17,1.0,1931.99989942,1_I,test,02,5,61.0,01110,ignore,1.0,6200.0,1.05511927717
426,1_17_1,17,1.0,1934.87509817,1_I,test,02,5,62.0,11110,ignore,0.0,6100.0,0.772490528067
427,1_17_1,17,1.0,1937.76587855,1_I,test,02,5,63.0,01011,ignore,1.0,6200.0,0.766104748139
428,1_17_1,17,1.0,1940.62537004,1_I,test,02,5,64.0,11101,ignore,1.0,6300.0,0.722279947173
429,1_17_1,17,1.0,1943.84428509,1_I,test,02,5,65.0,00011,ignore,0.0,6200.0,1.04472180702
430,1_17_1,17,1.0,1946.75065572,1_I,test,02,5,66.0,01101,ignore,1.0,6300.0,0.813875554676
431,1_17_1,17,1.0,1950.15708074,1_I,test,02,5,67.0,11111,ignore,0.0,6200.0,1.23510590214
432,1_17_1,17,1.0,1954.11038676,1_I,test,02,5,68.0,10101,kill,0.0,6100.0,1.79279611771
433,1_17_1,17,1.0,1957.17304088,1_I,test,02,5,69.0,10001,ignore,1.0,6200.0,0.966038570849
434,1_17_1,17,1.0,1960.93885662,1_I,test,02,5,70.0,00001,kill,0.0,6100.0,1.61550215302
435,1_17_1,17,1.0,1963.89213307,1_I,test,02,5,71.0,00101,ignore,1.0,6200.0,0.841652773678
436,1_17_1,17,1.0,1966.67352428,1_I,test,02,5,72.0,01111,ignore,1.0,6300.0,0.635230128238
437,1_17_1,17,1.0,1969.7361702,1_I,test,02,5,73.0,00111,ignore,0.0,6200.0,0.917211883504
438,1_17_1,17,1.0,1974.00200626,1_I,test,02,5,74.0,01000,kill,0.0,6100.0,2.16990074638
439,1_17_1,17,1.0,1977.37716785,1_I,test,02,5,75.0,00000,ignore,1.0,6200.0,1.22487633838
440,1_17_1,17,1.0,1980.23665729,1_I,test,02,5,76.0,11010,ignore,0.0,6100.0,0.803396389232
441,1_17_1,17,1.0,1983.04930988,1_I,test,02,5,77.0,11001,ignore,1.0,6200.0,0.660625868013
442,1_17_1,17,1.0,1986.56510437,1_I,test,02,5,78.0,00010,kill,1.0,6300.0,1.35577928479
443,1_17_1,17,1.0,1989.98713361,1_I,test,02,5,79.0,11100,ignore,1.0,6400.0,1.32263070322
444,1_17_1,17,1.0,1993.28417973,1_I,test,02,5,80.0,11011,kill,1.0,6500.0,1.17511610789
445,1_17_1,17,1.0,1996.20621081,1_I,test,02,5,81.0,10000,ignore,1.0,6600.0,0.849371541549
446,1_17_1,17,1.0,1999.47197256,1_I,test,02,5,82.0,01001,ignore,1.0,6700.0,1.17779973652
447,1_17_1,17,1.0,2002.64399369,1_I,test,02,5,83.0,00110,kill,1.0,6800.0,1.00911251412
448,1_17_1,17,1.0,2005.86293173,1_I,test,02,5,84.0,01001,ignore,1.0,6900.0,1.12538461444
449,1_17_1,17,1.0,2009.19118093,1_I,test,02,5,85.0,11001,ignore,1.0,7000.0,1.24293756551
450,1_17_1,17,1.0,2012.47261381,1_I,test,02,5,86.0,10011,kill,1.0,7100.0,1.13501973208
451,1_17_1,17,1.0,2015.64463083,1_I,test,02,6,0.0,10111,kill,0.0,7000.0,1.05152222132
452,1_17_1,17,1.0,2019.11356548,1_I,test,02,6,1.0,01101,kill,0.0,6900.0,1.3230679167
453,1_17_1,17,1.0,2022.89502197,1_I,test,02,6,2.0,00100,kill,1.0,7000.0,1.68031689561
454,1_17_1,17,1.0,2026.61391012,1_I,test,02,6,3.0,00110,ignore,1.0,7100.0,1.54998212146
455,1_17_1,17,1.0,2030.44226463,1_I,test,02,6,4.0,00000,kill,1.0,7200.0,1.65700459095
456,1_17_1,17,1.0,2033.78617757,1_I,test,02,6,5.0,11010,ignore,0.0,7100.0,1.24256849986
457,1_17_1,17,1.0,2037.00509672,1_I,test,02,6,6.0,10001,ignore,1.0,7200.0,1.06447441398
458,1_17_1,17,1.0,2040.86465759,1_I,test,02,6,7.0,10100,kill,1.0,7300.0,1.74854806126
459,1_17_1,17,1.0,2044.19293553,1_I,test,02,6,8.0,00111,ignore,1.0,7400.0,1.15369962654
460,1_17_1,17,1.0,2047.25556626,1_I,test,02,6,9.0,00001,ignore,1.0,7500.0,0.874369068111
461,1_17_1,17,1.0,2054.52154682,1_I,test,02,6,10.0,00101,ignore,1.0,7600.0,5.14356982135
462,1_17_1,17,1.0,2060.88124297,1_I,test,02,6,11.0,10101,kill,0.0,7500.0,4.20815015183
463,1_17_1,17,1.0,2064.53770073,1_I,test,02,6,12.0,01111,ignore,1.0,7600.0,1.54961305581
464,1_17_1,17,1.0,2070.63169629,1_I,test,02,6,13.0,11110,kill,0.0,7500.0,3.99954349166
465,1_17_1,17,1.0,2073.69433523,1_I,test,02,6,14.0,11000,ignore,0.0,7400.0,0.924405995203
466,1_17_1,17,1.0,2076.71010324,1_I,test,02,6,15.0,10010,ignore,0.0,7300.0,0.934275935483
467,1_17_1,17,1.0,2080.14780197,1_I,test,02,6,16.0,11101,ignore,1.0,7400.0,1.35228362962
468,1_17_1,17,1.0,2086.77317652,1_I,test,02,6,17.0,01110,ignore,1.0,7500.0,4.54254046072
469,1_17_1,17,1.0,2092.63275259,1_I,test,02,6,18.0,00011,ignore,1.0,7600.0,3.72045309274
470,1_17_1,17,1.0,2096.74235687,1_I,test,02,6,19.0,01010,ignore,0.0,7500.0,1.98063493249
471,1_17_1,17,1.0,2102.71141776,1_I,test,02,6,20.0,01000,kill,1.0,7600.0,3.92199536841
472,1_17_1,17,1.0,2106.02407343,1_I,test,02,6,21.0,01100,ignore,0.0,7500.0,1.23423270677
473,1_17_1,17,1.0,2108.69609353,1_I,test,02,6,22.0,10110,ignore,1.0,7600.0,0.521824341993
474,1_17_1,17,1.0,2111.57122823,1_I,test,02,6,23.0,01011,ignore,1.0,7700.0,0.745363176608
475,1_17_1,17,1.0,2114.66512362,1_I,test,02,6,24.0,11011,ignore,1.0,7800.0,0.996239143045
476,1_17_1,17,1.0,2117.75902476,1_I,test,02,6,25.0,11100,kill,1.0,7900.0,1.00348005506
477,1_17_1,17,1.0,2121.21228746,1_I,test,02,6,26.0,00010,ignore,0.0,7800.0,1.31637259784
478,1_17_1,17,1.0,2125.0718508,1_I,test,02,6,27.0,10000,ignore,0.0,7700.0,1.70330570336
479,1_17_1,17,1.0,2128.69706115,1_I,test,02,6,28.0,11111,ignore,1.0,7800.0,1.51442414469
480,1_17_1,17,1.0,2132.61907827,1_I,test,02,6,29.0,11101,kill,0.0,7700.0,1.7581154416
481,1_17_1,17,1.0,2135.86928097,1_I,test,02,6,30.0,11011,ignore,1.0,7800.0,1.17892089146
482,1_17_1,17,1.0,2138.60377785,1_I,test,02,6,31.0,01011,ignore,1.0,7900.0,0.575960402007
483,1_17_1,17,1.0,2141.41639062,1_I,test,02,6,32.0,00001,ignore,1.0,8000.0,0.65724557152
484,1_17_1,17,1.0,2144.40095144,1_I,test,02,6,33.0,00101,ignore,1.0,8100.0,0.887457145895
485,1_17_1,17,1.0,2147.47920034,1_I,test,02,6,34.0,00100,kill,1.0,8200.0,0.91816964786
486,1_17_1,17,1.0,2150.80749757,1_I,test,02,6,35.0,00110,ignore,1.0,8300.0,1.21667643042
487,1_17_1,17,1.0,2153.91702673,1_I,test,02,6,36.0,10101,ignore,1.0,8400.0,0.966618237919
488,1_17_1,17,1.0,2156.82343637,1_I,test,02,6,37.0,10110,ignore,1.0,8500.0,0.743841345287
489,1_17_1,17,1.0,2159.47980997,1_I,test,02,6,38.0,00111,ignore,1.0,8600.0,0.56579241761
490,1_17_1,17,1.0,2162.69872338,1_I,test,02,6,39.0,10100,kill,1.0,8700.0,1.13185085807
491,1_17_1,17,1.0,2166.26135718,1_I,test,02,7,0.0,10011,ignore,0.0,8600.0,1.4041679376
492,1_17_1,17,1.0,2169.60532678,1_I,test,02,7,1.0,11100,ignore,1.0,8700.0,1.17838556153
493,1_17_1,17,1.0,2173.79299605,1_I,test,02,7,2.0,11110,kill,0.0,8600.0,2.05513159305
494,1_17_1,17,1.0,2176.87128476,1_I,test,02,7,3.0,11111,kill,1.0,8700.0,0.978766614625
495,1_17_1,17,1.0,2179.76202286,1_I,test,02,7,4.0,01100,ignore,1.0,8800.0,0.739629316867
496,1_17_1,17,1.0,2183.71538142,1_I,test,02,7,5.0,10111,kill,1.0,8900.0,1.7894819164
497,1_17_1,17,1.0,2186.715521,1_I,test,02,7,6.0,01010,ignore,1.0,9000.0,0.930291340176
498,1_17_1,17,1.0,2190.15317415,1_I,test,02,7,7.0,00011,kill,0.0,8900.0,1.29886476392
499,1_17_1,17,1.0,2194.04397054,1_I,test,02,7,8.0,10000,kill,1.0,9000.0,1.77075481109
500,1_17_1,17,1.0,2196.82534943,1_I,test,02,7,9.0,11000,kill,0.0,8900.0,0.642789200293
501,1_17_1,17,1.0,2201.48186878,1_I,test,02,7,10.0,01110,ignore,1.0,9000.0,2.53066057004
502,1_17_1,17,1.0,2205.60705429,1_I,test,02,7,11.0,00000,ignore,1.0,9100.0,2.00239913198
503,1_17_1,17,1.0,2209.43535378,1_I,test,02,7,12.0,10010,kill,1.0,9200.0,1.70120051021
504,1_17_1,17,1.0,2212.62303659,1_I,test,02,7,13.0,01111,ignore,1.0,9300.0,1.11591083472
505,1_17_1,17,1.0,2215.99819121,1_I,test,02,7,14.0,10001,kill,1.0,9400.0,1.27839126788
506,1_17_1,17,1.0,2219.5765179,1_I,test,02,7,15.0,00010,ignore,1.0,9500.0,1.44805062316
507,1_17_1,17,1.0,2222.96727591,1_I,test,02,7,16.0,11010,kill,0.0,9400.0,1.24477550422
508,1_17_1,17,1.0,2226.2174084,1_I,test,02,7,17.0,01000,ignore,1.0,9500.0,1.12077396228
