,unique_id,pair_id,sbj_id,wall_time,condition,block,rule_id,rule_num,trial,stimulus,choice,correct,points,reaction_time
0,3_1_2,1,2,36.04754304885864,3_D,training,01,1_B,1,11101,kill,0,0,10.492710828781128
1,3_1_2,1,2,43.96817207336426,3_D,training,01,1_B,2,01101,ignore,1,100,5.27556300163269
2,3_1_2,1,2,49.58761405944824,3_D,training,01,1_B,3,00110,ignore,1,200,2.968094825744629
3,3_1_2,1,2,-28.596461057662964,3_D,training,01,1_B,4,10001,ignore,0,100,-80.82785987854004
4,3_1_2,1,2,-24.06079912185669,3_D,training,01,1_B,5,10101,kill,1,200,1.9038119316101074
5,3_1_2,1,2,-15.039602994918823,3_D,training,01,1_B,6,11010,kill,1,300,6.390275955200195
6,3_1_2,1,2,-6.685419082641602,3_D,training,01,1_B,7,01010,ignore,0,200,5.758527994155884
7,3_1_2,1,2,9.439039945602417,3_D,training,01,1_B,8,00001,ignore,0,100,13.48796010017395
8,3_1_2,1,2,25.28019094467163,3_D,training,01,1_B,9,00011,ignore,1,200,13.20028305053711
9,3_1_2,1,2,34.317975997924805,3_D,training,01,1_B,10,10010,ignore,1,300,6.43408989906311
10,3_1_2,1,2,40.78794002532959,3_D,training,01,1_B,11,11000,kill,0,200,3.869127035140991
11,3_1_2,1,2,51.14311599731445,3_D,training,01,1_B,12,00000,ignore,0,100,7.7369091510772705
12,3_1_2,1,2,63.59964895248413,3_D,training,01,1_B,13,01001,ignore,1,200,9.839011907577515
13,3_1_2,1,2,68.33487796783447,3_D,training,01,1_B,14,01000,ignore,1,300,2.1210179328918457
14,3_1_2,1,2,72.83747291564941,3_D,training,01,1_B,15,11100,ignore,1,400,1.895569086074829
15,3_1_2,1,2,77.67281985282898,3_D,training,01,1_B,16,00101,kill,1,500,2.2003650665283203
16,3_1_2,1,2,83.4094500541687,3_D,training,01,1_B,17,00100,kill,1,600,3.0363070964813232
17,3_1_2,1,2,92.93029499053955,3_D,training,01,1_B,18,11111,kill,1,700,6.893619060516357
18,3_1_2,1,2,98.01628804206848,3_D,training,01,1_B,19,10011,ignore,1,800,2.435965061187744
19,3_1_2,1,2,106.0206470489502,3_D,training,01,1_B,20,01111,kill,1,900,5.367952823638916
20,3_1_2,1,2,114.95820307731628,3_D,training,01,1_B,21,11110,kill,1,1000,6.237483024597168
21,3_1_2,1,2,122.46172285079956,3_D,training,01,1_B,22,01110,kill,1,1100,4.842705011367798
22,3_1_2,1,2,128.6983618736267,3_D,training,01,1_B,23,10100,kill,1,1200,3.5814621448516846
23,3_1_2,1,2,136.83528089523315,3_D,training,01,1_B,24,00111,ignore,1,1300,5.474855899810791
24,3_1_2,1,2,141.65444087982178,3_D,training,01,1_B,25,11011,kill,1,1400,2.1533920764923096
25,3_1_2,1,2,146.67310500144958,3_D,training,01,1_B,26,01011,kill,1,1500,2.4153189659118652
26,3_1_2,1,2,151.39267992973328,3_D,training,01,1_B,27,10111,ignore,1,1600,2.0604000091552734
27,3_1_2,1,2,164.49895191192627,3_D,training,01,1_B,28,11001,ignore,1,1700,10.503177881240845
28,3_1_2,1,2,170.7688000202179,3_D,training,01,1_B,29,10110,ignore,1,1800,3.6334378719329834
29,3_1_2,1,2,177.27194690704346,3_D,training,01,1_B,30,10000,kill,1,1900,3.824100971221924
30,3_1_2,1,2,182.7747678756714,3_D,training,01,1_B,31,01100,ignore,1,2000,2.8270201683044434
31,3_1_2,1,2,187.67773294448853,3_D,training,01,1_B,32,00010,ignore,1,2100,2.236720085144043
32,3_1_2,1,2,191.92938089370728,3_D,training,01,1_B,33,10110,ignore,1,2200,1.5740580558776855
33,3_1_2,1,2,195.847913980484,3_D,training,01,1_B,34,00011,ignore,1,2300,1.246518850326538
34,3_1_2,1,2,200.05002689361572,3_D,training,01,1_B,35,00100,kill,1,2400,1.5269320011138916
35,3_1_2,1,2,204.13551497459412,3_D,training,01,1_B,36,00101,kill,1,2500,1.4075591564178467
36,3_1_2,1,2,208.67136693000793,3_D,training,01,1_B,37,10100,kill,1,2600,1.8582429885864258
37,3_1_2,1,2,212.88973689079285,3_D,training,01,1_B,38,01001,ignore,1,2700,1.5668668746948242
38,3_1_2,1,2,220.1765398979187,3_D,training,01,1_B,39,01000,ignore,1,2800,4.603790044784546
39,3_1_2,1,2,226.66320991516113,3_D,training,01,1_B,40,11011,kill,1,2900,3.8362278938293457
40,3_1_2,1,2,231.93293499946594,3_D,training,01,1_B,41,10000,kill,1,3000,2.6051390171051025
41,3_1_2,1,2,236.634752035141,3_D,training,01,1_B,42,00111,ignore,1,3100,2.0929529666900635
42,3_1_2,1,2,242.92176389694214,3_D,training,01,1_B,43,11001,ignore,1,3200,3.6877031326293945
43,3_1_2,1,2,247.25670289993286,3_D,training,01,1_B,44,10010,ignore,1,3300,1.7254328727722168
44,3_1_2,1,2,255.1108889579773,3_D,training,01,1_B,45,11100,ignore,1,3400,5.23711085319519
45,3_1_2,1,2,259.0958089828491,3_D,training,01,1_B,46,01101,ignore,1,3500,1.365164041519165
46,3_1_2,1,2,264.73218607902527,3_D,training,01,1_B,47,00010,ignore,1,3600,3.0265939235687256
47,3_1_2,1,2,268.59970593452454,3_D,training,01,1_B,48,11000,ignore,1,3700,1.2692430019378662
48,3_1_2,1,2,277.2547039985657,3_D,training,01,1_B,49,01111,kill,1,3800,6.041748046875
49,3_1_2,1,2,283.10771894454956,3_D,training,01,1_B,50,01100,ignore,1,3900,3.170642852783203
50,3_1_2,1,2,286.9768240451813,3_D,training,01,1_B,51,10011,ignore,1,4000,1.2535099983215332
51,3_1_2,1,2,291.41197085380554,3_D,training,01,1_B,52,11110,kill,1,4100,1.8252840042114258
52,3_1_2,1,2,295.4638249874115,3_D,training,01,1_B,53,10111,ignore,1,4200,1.4473190307617188
53,3_1_2,1,2,302.08379006385803,3_D,training,01,1_B,54,10101,kill,1,4300,3.946261167526245
54,3_1_2,1,2,307.08630084991455,3_D,training,01,1_B,55,11101,ignore,1,4400,2.3339478969573975
55,3_1_2,1,2,311.538400888443,3_D,training,01,1_B,56,11111,kill,1,4500,1.8411571979522705
56,3_1_2,1,2,315.8575088977814,3_D,training,01,1_B,57,01011,kill,1,4600,1.6387829780578613
57,3_1_2,1,2,320.4098689556122,3_D,training,01,1_B,58,01010,kill,1,4700,1.905022144317627
58,3_1_2,1,2,325.92901492118835,3_D,training,01,1_B,59,01110,kill,1,4800,2.8584978580474854
59,3_1_2,1,2,330.01462602615356,3_D,training,01,1_B,60,00000,kill,1,4900,1.4765899181365967
60,3_1_2,1,2,334.4665138721466,3_D,training,01,1_B,61,00110,ignore,1,5000,1.7837238311767578
61,3_1_2,1,2,339.63465189933777,3_D,training,01,1_B,62,11010,kill,1,5100,2.5781798362731934
62,3_1_2,1,2,344.92157101631165,3_D,training,01,1_B,63,10001,kill,1,5200,2.6466360092163086
63,3_1_2,1,2,349.89071393013,3_D,training,01,1_B,64,00001,kill,1,5300,2.35992693901062
64,3_1_2,1,2,354.0759389400482,3_D,training,01,1_B,65,10000,kill,1,5400,1.5725281238555908
65,3_1_2,1,2,358.6952209472656,3_D,training,01,1_B,66,00010,ignore,1,5500,2.0081429481506348
66,3_1_2,1,2,363.74715304374695,3_D,training,01,1_B,67,01110,kill,1,5600,2.400089979171753
67,3_1_2,1,2,368.09974694252014,3_D,training,01,1_B,68,01010,kill,1,5700,1.6969671249389648
68,3_1_2,1,2,372.8187940120697,3_D,training,01,1_B,69,11000,ignore,1,5800,2.1226720809936523
69,3_1_2,1,2,377.57120394706726,3_D,training,01,1_B,70,10111,ignore,1,5900,2.1405749320983887
70,3_1_2,1,2,381.73978996276855,3_D,training,01,1_B,71,01001,ignore,1,6000,1.5627241134643555
71,3_1_2,1,2,387.50966000556946,3_D,training,01,1_B,72,10100,kill,1,6100,3.150562047958374
72,3_1_2,1,2,391.4780490398407,3_D,training,01,1_B,73,00101,kill,1,6200,1.3529949188232422
73,3_1_2,1,2,396.33048701286316,3_D,training,01,1_B,74,11111,kill,1,6300,2.2556710243225098
74,3_1_2,1,2,400.2657890319824,3_D,training,01,1_B,75,00001,kill,1,6400,1.3300631046295166
75,3_1_2,1,2,404.0341670513153,3_D,training,01,1_B,76,01111,kill,1,6500,1.1529560089111328
76,3_1_2,1,2,409.11945104599,3_D,training,01,1_B,77,10110,ignore,1,6600,2.472689151763916
77,3_1_2,1,2,413.35543394088745,3_D,training,01,1_B,78,00011,ignore,1,6700,1.5598669052124023
78,3_1_2,1,2,418.07374596595764,3_D,training,01,1_B,79,01011,kill,1,6800,2.016180992126465
79,3_1_2,1,2,422.6266920566559,3_D,training,01,1_B,80,01000,ignore,1,6900,1.865384817123413
80,3_1_2,1,2,426.94547295570374,3_D,training,01,1_B,81,01101,ignore,1,7000,1.6457951068878174
81,3_1_2,1,2,434.4663188457489,3_D,training,01,1_B,82,11110,kill,1,7100,4.919512987136841
82,3_1_2,1,2,438.8681468963623,3_D,training,01,1_B,83,11010,kill,1,7200,1.7924580574035645
83,3_1_2,1,2,443.41936898231506,3_D,training,01,1_B,84,10010,ignore,1,7300,1.9442880153656006
84,3_1_2,1,2,448.3894078731537,3_D,training,01,1_B,85,00100,kill,1,7400,2.2932660579681396
85,3_1_2,1,2,453.2753698825836,3_D,training,01,1_B,86,11101,ignore,1,7500,2.271886110305786
86,3_1_2,1,2,458.9947588443756,3_D,training,01,1_B,87,00000,kill,1,7600,3.0942270755767822
87,3_1_2,1,2,463.2135970592499,3_D,training,01,1_B,88,00110,ignore,1,7700,1.5974030494689941
88,3_1_2,1,2,467.899160861969,3_D,training,01,1_B,89,11100,ignore,1,7800,2.0198400020599365
89,3_1_2,1,2,473.23513984680176,3_D,training,01,1_B,90,10001,kill,1,7900,2.719383955001831
90,3_1_2,1,2,477.6706910133362,3_D,training,01,1_B,91,11011,kill,1,8000,1.839918851852417
91,3_1_2,1,2,481.7227199077606,3_D,training,01,1_B,92,00111,ignore,1,8100,1.4463298320770264
92,3_1_2,1,2,486.1419370174408,3_D,training,01,1_B,93,10101,kill,1,8200,1.804527997970581
93,3_1_2,1,2,490.57707595825195,3_D,training,01,1_B,94,11001,ignore,1,8300,1.836846113204956
94,3_1_2,1,2,495.34601306915283,3_D,training,01,1_B,95,01100,ignore,1,8400,2.152245044708252
95,3_1_2,1,2,499.6815490722656,3_D,training,01,1_B,96,10011,ignore,1,8500,1.7226428985595703
96,3_1_2,1,2,503.88355684280396,3_D,training,01,1_B,97,00111,ignore,1,8600,1.5948870182037354
97,3_1_2,1,2,508.7864429950714,3_D,training,01,1_B,98,01010,kill,1,8700,2.3026540279388428
98,3_1_2,1,2,515.4726419448853,3_D,training,01,1_B,99,11101,ignore,1,8800,4.066886901855469
99,3_1_2,1,2,521.6094830036163,3_D,training,01,1_B,100,11100,ignore,1,8900,3.51871395111084
100,3_1_2,1,2,526.5113818645477,3_D,training,01,1_B,101,10110,ignore,1,9000,2.2933738231658936
101,3_1_2,1,2,531.3975849151611,3_D,training,01,1_B,102,11001,ignore,1,9100,2.2685580253601074
102,3_1_2,1,2,538.8342809677124,3_D,training,01,1_B,103,10001,kill,1,9200,4.829016208648682
103,3_1_2,1,2,543.4031639099121,3_D,training,01,1_B,104,01100,ignore,1,9300,1.9548568725585938
104,3_1_2,1,2,550.1398458480835,3_D,training,01,1_B,105,00101,kill,1,9400,4.085959196090698
105,3_1_2,1,2,554.8754298686981,3_D,training,01,1_B,106,10011,ignore,1,9500,2.0721688270568848
106,3_1_2,1,2,559.5276749134064,3_D,training,01,1_B,107,00110,ignore,1,9600,2.034860849380493
107,3_1_2,1,2,566.4816229343414,3_D,training,01,1_B,108,11011,kill,1,9700,4.331866979598999
108,3_1_2,1,2,570.4664559364319,3_D,training,01,1_B,109,00000,kill,1,9800,1.2994952201843262
109,3_1_2,1,2,574.852089881897,3_D,training,01,1_B,110,00011,ignore,1,9900,1.7709228992462158
110,3_1_2,1,2,579.6876759529114,3_D,training,01,1_B,111,00001,kill,1,10000,2.2021288871765137
111,3_1_2,1,2,584.5567729473114,3_D,training,01,1_B,112,01011,kill,1,10100,2.253587007522583
112,3_1_2,1,2,589.3758728504181,3_D,training,01,1_B,113,01001,ignore,1,10200,2.2096660137176514
113,3_1_2,1,2,593.9614350795746,3_D,training,01,1_B,114,10101,kill,1,10300,1.9647960662841797
114,3_1_2,1,2,600.1317138671875,3_D,training,01,1_B,115,10000,kill,1,10400,3.548670768737793
115,3_1_2,1,2,604.5332360267639,3_D,training,01,1_B,116,01000,ignore,1,10500,1.7966949939727783
116,3_1_2,1,2,608.2185800075531,3_D,training,01,1_B,117,11000,ignore,1,10600,1.084745168685913
117,3_1_2,1,2,612.5707039833069,3_D,training,01,1_B,118,11110,kill,1,10700,1.754856824874878
118,3_1_2,1,2,617.3229908943176,3_D,training,01,1_B,119,11111,kill,1,10800,2.1315479278564453
119,3_1_2,1,2,622.0091428756714,3_D,training,01,1_B,120,11010,kill,1,10900,2.086406946182251
120,3_1_2,1,2,625.7938640117645,3_D,training,01,1_B,121,01110,kill,1,11000,1.1824538707733154
121,3_1_2,1,2,630.0794038772583,3_D,training,01,1_B,122,01111,kill,1,11100,1.6895098686218262
122,3_1_2,1,2,634.6148788928986,3_D,training,01,1_B,123,01101,ignore,1,11200,1.9155709743499756
123,3_1_2,1,2,638.9337430000305,3_D,training,01,1_B,124,00100,kill,1,11300,1.6829638481140137
124,3_1_2,1,2,642.885468006134,3_D,training,01,1_B,125,00010,ignore,1,11400,1.3405680656433105
125,3_1_2,1,2,647.5044779777527,3_D,training,01,1_B,126,10100,kill,1,11500,1.9672889709472656
126,3_1_2,1,2,652.4729568958282,3_D,training,01,1_B,127,10111,ignore,1,11600,2.30582594871521
127,3_1_2,1,2,656.5081250667572,3_D,training,01,1_B,128,10010,ignore,1,11700,1.396003007888794
128,3_1_2,1,2,661.74498295784,3_D,training,01,1_B,129,00000,kill,1,11800,2.607762098312378
129,3_1_2,1,2,665.9138989448547,3_D,training,01,1_B,130,10110,ignore,1,11900,1.5292258262634277
130,3_1_2,1,2,671.1664819717407,3_D,training,01,1_B,131,01110,kill,1,12000,2.620511054992676
131,3_1_2,1,2,675.3682849407196,3_D,training,01,1_B,132,11011,kill,1,12100,1.6080069541931152
132,3_1_2,1,2,679.9539349079132,3_D,training,01,1_B,133,10111,ignore,1,12200,1.9473168849945068
133,3_1_2,1,2,683.9392869472504,3_D,training,01,1_B,134,01001,ignore,1,12300,1.3489198684692383
134,3_1_2,1,2,687.8416378498077,3_D,training,01,1_B,135,11000,ignore,1,12400,1.2878620624542236
135,3_1_2,1,2,692.376622915268,3_D,training,01,1_B,136,01010,kill,1,12500,1.9459638595581055
136,3_1_2,1,2,696.5287709236145,3_D,training,01,1_B,137,00010,ignore,1,12600,1.4885728359222412
137,3_1_2,1,2,700.6808569431305,3_D,training,01,1_B,138,00001,kill,1,12700,1.5412671566009521
138,3_1_2,1,2,704.6995499134064,3_D,training,01,1_B,139,10000,kill,1,12800,1.4057278633117676
139,3_1_2,1,2,709.3021349906921,3_D,training,01,1_B,140,01111,kill,1,12900,1.9848508834838867
140,3_1_2,1,2,714.6377699375153,3_D,training,01,1_B,141,11100,ignore,1,13000,2.7320380210876465
141,3_1_2,1,2,719.0901930332184,3_D,training,01,1_B,142,11101,ignore,1,13100,1.843940019607544
142,3_1_2,1,2,722.5083470344543,3_D,training,01,1_B,143,01101,ignore,1,13200,0.7995989322662354
143,3_1_2,1,2,726.1267800331116,3_D,training,01,1_B,144,00111,ignore,1,13300,1.0093648433685303
144,3_1_2,1,2,730.3792169094086,3_D,training,01,1_B,145,01011,kill,1,13400,1.6549839973449707
145,3_1_2,1,2,735.3646759986877,3_D,training,01,1_B,146,11001,ignore,1,13500,2.3828539848327637
146,3_1_2,1,2,739.5668258666992,3_D,training,01,1_B,147,10100,kill,1,13600,1.5862269401550293
147,3_1_2,1,2,743.3349928855896,3_D,training,01,1_B,148,00101,kill,1,13700,1.1466600894927979
148,3_1_2,1,2,748.604218006134,3_D,training,01,1_B,149,01000,ignore,1,13800,2.673335075378418
149,3_1_2,1,2,752.5567719936371,3_D,training,01,1_B,150,10101,kill,1,13900,1.2767269611358643
150,3_1_2,1,2,756.4251170158386,3_D,training,01,1_B,151,10010,ignore,1,14000,1.2512941360473633
151,3_1_2,1,2,759.9769420623779,3_D,training,01,1_B,152,01100,ignore,1,14100,0.9307119846343994
152,3_1_2,1,2,763.9954540729523,3_D,training,01,1_B,153,11010,kill,1,14200,1.4291999340057373
153,3_1_2,1,2,768.0809080600739,3_D,training,01,1_B,154,00100,kill,1,14300,1.401979923248291
154,3_1_2,1,2,772.4334239959717,3_D,training,01,1_B,155,00011,ignore,1,14400,1.7413699626922607
155,3_1_2,1,2,779.0862889289856,3_D,training,01,1_B,156,11111,kill,1,14500,4.052243947982788
156,3_1_2,1,2,783.2884860038757,3_D,training,01,1_B,157,00110,ignore,1,14600,1.515131950378418
157,3_1_2,1,2,788.2742040157318,3_D,training,01,1_B,158,10011,ignore,1,14700,2.368062973022461
158,3_1_2,1,2,793.4437580108643,3_D,training,01,1_B,159,10001,kill,1,14800,2.5527069568634033
159,3_1_2,1,2,798.7124898433685,3_D,training,01,1_B,160,11110,kill,1,14900,2.6605031490325928
160,3_1_2,1,2,802.6647250652313,3_D,training,01,1_B,161,01011,kill,1,15000,1.3370599746704102
161,3_1_2,1,2,807.3170049190521,3_D,training,01,1_B,162,00110,ignore,1,15100,2.0305838584899902
162,3_1_2,1,2,811.3522660732269,3_D,training,01,1_B,163,10001,kill,1,15200,1.3799619674682617
163,3_1_2,1,2,815.5213990211487,3_D,training,01,1_B,164,11000,ignore,1,15300,1.5701580047607422
164,3_1_2,1,2,822.2910630702972,3_D,training,01,1_B,165,01110,kill,1,15400,4.174498796463013
165,3_1_2,1,2,826.4263949394226,3_D,training,01,1_B,166,11011,kill,1,15500,1.5321259498596191
166,3_1_2,1,2,830.645192861557,3_D,training,01,1_B,167,00010,ignore,1,15600,1.6045420169830322
167,3_1_2,1,2,835.3643958568573,3_D,training,01,1_B,168,10101,kill,1,15700,2.109846830368042
168,3_1_2,1,2,841.6840949058533,3_D,training,01,1_B,169,11010,kill,1,15800,3.6781039237976074
169,3_1_2,1,2,848.2707679271698,3_D,training,01,1_B,170,01010,kill,1,15900,3.9860379695892334
170,3_1_2,1,2,853.1896228790283,3_D,training,01,1_B,171,00011,ignore,1,16000,2.262528896331787
171,3_1_2,1,2,857.4082679748535,3_D,training,01,1_B,172,11101,ignore,1,16100,1.6107540130615234
172,3_1_2,1,2,861.5103158950806,3_D,training,01,1_B,173,01000,ignore,1,16200,1.4958388805389404
173,3_1_2,1,2,865.1622450351715,3_D,training,01,1_B,174,01100,ignore,1,16300,1.0306038856506348
174,3_1_2,1,2,869.7149548530579,3_D,training,01,1_B,175,00100,kill,1,16400,1.921915054321289
175,3_1_2,1,2,874.7669169902802,3_D,training,01,1_B,176,10111,ignore,1,16500,2.432101011276245
176,3_1_2,1,2,878.652214050293,3_D,training,01,1_B,177,11100,ignore,1,16600,1.2676949501037598
177,3_1_2,1,2,884.6049978733063,3_D,training,01,1_B,178,11001,ignore,1,16700,3.362090826034546
178,3_1_2,1,2,892.1425230503082,3_D,training,01,1_B,179,11111,kill,1,16800,4.927950859069824
179,3_1_2,1,2,897.8114769458771,3_D,training,01,1_B,180,10100,kill,1,16900,3.046363115310669
180,3_1_2,1,2,904.2484509944916,3_D,training,01,1_B,181,01111,kill,1,17000,3.8359200954437256
181,3_1_2,1,2,908.9339270591736,3_D,training,01,1_B,182,00000,kill,1,17100,2.0021719932556152
182,3_1_2,1,2,912.5856318473816,3_D,training,01,1_B,183,10000,kill,1,17200,1.0339698791503906
183,3_1_2,1,2,917.037791967392,3_D,training,01,1_B,184,10010,ignore,1,17300,1.8338518142700195
184,3_1_2,1,2,921.2900159358978,3_D,training,01,1_B,185,10011,ignore,1,17400,1.56370210647583
185,3_1_2,1,2,926.5095019340515,3_D,training,01,1_B,186,01001,ignore,1,17500,2.5991480350494385
186,3_1_2,1,2,931.5617129802704,3_D,training,01,1_B,187,00111,ignore,1,17600,2.438697099685669
187,3_1_2,1,2,936.3643839359283,3_D,training,01,1_B,188,11110,kill,1,17700,2.2113170623779297
188,3_1_2,1,2,952.739254951477,3_D,training,01,1_B,189,00101,kill,1,17800,13.746227025985718
189,3_1_2,1,2,956.807443857193,3_D,training,01,1_B,190,10110,ignore,1,17900,1.4501190185546875
190,3_1_2,1,2,962.5937249660492,3_D,training,01,1_B,191,00001,kill,1,18000,3.16707706451416
191,3_1_2,1,2,966.4623720645905,3_D,training,01,1_B,192,01101,ignore,1,18100,1.2583119869232178
192,3_1_2,1,2,970.1307220458984,3_D,training,01,1_B,193,11101,ignore,1,18200,1.0574760437011719
193,3_1_2,1,2,975.0334959030151,3_D,training,01,1_B,194,01010,kill,1,18300,2.307281017303467
194,3_1_2,1,2,979.1686179637909,3_D,training,01,1_B,195,00010,ignore,1,18400,1.5165510177612305
195,3_1_2,1,2,991.5084660053253,3_D,training,01,1_B,196,00100,kill,1,18500,9.701159000396729
196,3_1_2,1,2,999.0273048877716,3_D,training,01,1_B,197,01110,kill,1,18600,4.911050081253052
197,3_1_2,1,2,1003.2471609115601,3_D,training,01,1_B,198,00110,ignore,1,18700,1.607957124710083
198,3_1_2,1,2,1006.7989499568939,3_D,training,01,1_B,199,11000,ignore,1,18800,0.954556941986084
199,3_1_2,1,2,1010.6008830070496,3_D,training,01,1_B,200,00111,ignore,1,18900,1.192328929901123
200,3_1_2,1,2,1015.1696798801422,3_D,training,01,1_B,201,01011,kill,1,19000,1.9532148838043213
201,3_1_2,1,2,1021.70627784729,3_D,training,01,1_B,202,01001,ignore,1,19100,3.922382116317749
202,3_1_2,1,2,1026.9755499362946,3_D,training,01,1_B,203,01000,ignore,1,19200,2.6636359691619873
203,3_1_2,1,2,1031.3443460464478,3_D,training,01,1_B,204,01100,ignore,1,19300,1.7480809688568115
204,3_1_2,1,2,1036.8803470134735,3_D,training,01,1_B,205,00001,kill,1,19400,2.9149580001831055
205,3_1_2,1,2,1040.8656208515167,3_D,training,01,1_B,206,11001,ignore,1,19500,1.3255031108856201
206,3_1_2,1,2,1045.3684439659119,3_D,training,01,1_B,207,10111,ignore,1,19600,1.8861360549926758
207,3_1_2,1,2,1053.9555370807648,3_D,training,01,1_B,208,10001,kill,1,19700,5.968981981277466
208,3_1_2,1,2,1057.6906969547272,3_D,training,01,1_B,209,10010,ignore,1,19800,1.093639850616455
209,3_1_2,1,2,1063.6435809135437,3_D,training,01,1_B,210,11110,kill,1,19900,3.359848976135254
210,3_1_2,1,2,1067.9789638519287,3_D,training,01,1_B,211,01101,ignore,1,20000,1.7302420139312744
211,3_1_2,1,2,1072.3312690258026,3_D,training,01,1_B,212,11011,kill,1,20100,1.7423019409179688
212,3_1_2,1,2,1076.467041015625,3_D,training,01,1_B,213,00011,ignore,1,20200,1.5263960361480713
213,3_1_2,1,2,1080.1185319423676,3_D,training,01,1_B,214,10110,ignore,1,20300,1.0315580368041992
214,3_1_2,1,2,1084.9707989692688,3_D,training,01,1_B,215,11100,ignore,1,20400,2.2363080978393555
215,3_1_2,1,2,1090.2568130493164,3_D,training,01,1_B,216,10101,kill,1,20500,2.664578914642334
216,3_1_2,1,2,1102.9464828968048,3_D,training,01,1_B,217,11010,kill,1,20600,10.072872161865234
217,3_1_2,1,2,1107.8989610671997,3_D,training,01,1_B,218,10000,kill,1,20700,2.331244945526123
218,3_1_2,1,2,1112.1510529518127,3_D,training,01,1_B,219,10011,ignore,1,20800,1.6322250366210938
219,3_1_2,1,2,1117.9036588668823,3_D,training,01,1_B,220,11111,kill,1,20900,3.1289689540863037
220,3_1_2,1,2,1124.9744160175323,3_D,training,01,1_B,221,01111,kill,1,21000,4.457010984420776
221,3_1_2,1,2,1128.6090848445892,3_D,training,01,1_B,222,00000,kill,1,21100,1.0166668891906738
222,3_1_2,1,2,1132.5943779945374,3_D,training,01,1_B,223,10100,kill,1,21200,1.3682000637054443
223,3_1_2,1,2,1142.7160880565643,3_D,training,01,1_B,224,00101,kill,1,21300,7.510361194610596
224,3_1_2,1,2,1150.4033529758453,3_D,training,01,1_B,225,11111,kill,1,21400,5.0679380893707275
225,3_1_2,1,2,1154.5219259262085,3_D,training,01,1_B,226,10101,kill,1,21500,1.5025029182434082
226,3_1_2,1,2,1158.390480041504,3_D,training,01,1_B,227,10001,kill,1,21600,1.2511839866638184
227,3_1_2,1,2,1162.4751288890839,3_D,training,01,1_B,228,11000,ignore,1,21700,1.4820919036865234
228,3_1_2,1,2,1169.8964610099792,3_D,training,01,1_B,229,00001,kill,1,21800,4.808557033538818
229,3_1_2,1,2,1173.6814069747925,3_D,training,01,1_B,230,00011,ignore,1,21900,1.122009038925171
230,3_1_2,1,2,1177.249839067459,3_D,training,01,1_B,231,11100,ignore,1,22000,0.9552719593048096
231,3_1_2,1,2,1181.2683839797974,3_D,training,01,1_B,232,01011,kill,1,22100,1.4089879989624023
232,3_1_2,1,2,1185.0537369251251,3_D,training,01,1_B,233,10111,ignore,1,22200,1.142848014831543
233,3_1_2,1,2,1188.9889869689941,3_D,training,01,1_B,234,10100,kill,1,22300,1.3010549545288086
234,3_1_2,1,2,1193.3911859989166,3_D,training,01,1_B,235,01000,ignore,1,22400,1.788351058959961
235,3_1_2,1,2,1196.9262518882751,3_D,training,01,1_B,236,01001,ignore,1,22500,0.9207789897918701
236,3_1_2,1,2,1200.5279340744019,3_D,training,01,1_B,237,00110,ignore,1,22600,0.9813849925994873
237,3_1_2,1,2,1204.0631408691406,3_D,training,01,1_B,238,10011,ignore,1,22700,0.9135370254516602
238,3_1_2,1,2,1208.3151240348816,3_D,training,01,1_B,239,10000,kill,1,22800,1.6418781280517578
239,3_1_2,1,2,1212.2004458904266,3_D,training,01,1_B,240,01110,kill,1,22900,1.233327865600586
240,3_1_2,1,2,1215.9189538955688,3_D,training,01,1_B,241,00100,kill,1,23000,1.0424871444702148
241,3_1_2,1,2,1219.5540430545807,3_D,training,01,1_B,242,00000,kill,1,23100,0.9770240783691406
242,3_1_2,1,2,1223.4893760681152,3_D,training,01,1_B,243,11110,kill,1,23200,1.3421149253845215
243,3_1_2,1,2,1227.7246758937836,3_D,training,01,1_B,244,00111,ignore,1,23300,1.6278660297393799
244,3_1_2,1,2,1231.2931730747223,3_D,training,01,1_B,245,10110,ignore,1,23400,0.9564239978790283
245,3_1_2,1,2,1235.0282850265503,3_D,training,01,1_B,246,00101,kill,1,23500,1.1275849342346191
246,3_1_2,1,2,1239.380490064621,3_D,training,01,1_B,247,11101,ignore,1,23600,1.6092610359191895
247,3_1_2,1,2,1255.8550379276276,3_D,training,01,1_B,248,01010,kill,1,23700,13.879238843917847
248,3_1_2,1,2,1260.174143075943,3_D,training,01,1_B,249,11010,kill,1,23800,1.7209060192108154
