,unique_id,pair_id,sbj_id,wall_time,condition,block,rule_id,rule_num,trial,stimulus,choice,correct,points,reaction_time
0,3_1_1,1,1,42.845304012298584,3_D,training,01,1_A,1,10110,ignore,0,0,8.315561056137085
1,3_1_1,1,1,45.92887616157532,3_D,training,01,1_A,2,00110,kill,1,100,1.0637531280517578
2,3_1_1,1,1,49.4782600402832,3_D,training,01,1_A,3,00011,ignore,0,0,1.6715378761291504
3,3_1_1,1,1,52.04478406906128,3_D,training,01,1_A,4,11011,kill,0,0,0.7024369239807129
4,3_1_1,1,1,56.42938709259033,3_D,training,01,1_A,5,00101,ignore,1,100,2.5226659774780273
5,3_1_1,1,1,60.42797112464905,3_D,training,01,1_A,6,00001,ignore,1,200,2.1418509483337402
6,3_1_1,1,1,65.57869505882263,3_D,training,01,1_A,7,01111,ignore,0,100,3.2961061000823975
7,3_1_1,1,1,71.26172614097595,3_D,training,01,1_A,8,11010,kill,0,0,3.801121950149536
8,3_1_1,1,1,77.74424314498901,3_D,training,01,1_A,9,11001,ignore,1,100,4.642570972442627
9,3_1_1,1,1,81.59548020362854,3_D,training,01,1_A,10,00100,ignore,1,200,1.9977929592132568
10,3_1_1,1,1,85.61223006248474,3_D,training,01,1_A,11,10000,kill,0,100,2.1589179039001465
11,3_1_1,1,1,90.69446420669556,3_D,training,01,1_A,12,01010,ignore,0,0,3.2159841060638428
12,3_1_1,1,1,95.36078000068665,3_D,training,01,1_A,13,11111,ignore,0,0,2.7848269939422607
13,3_1_1,1,1,98.77747201919556,3_D,training,01,1_A,14,10011,kill,0,0,1.544309139251709
14,3_1_1,1,1,102.86202120780945,3_D,training,01,1_A,15,00111,kill,1,100,2.2456820011138916
15,3_1_1,1,1,106.4112901687622,3_D,training,01,1_A,16,01101,ignore,1,200,1.687035083770752
16,3_1_1,1,1,113.3953161239624,3_D,training,01,1_A,17,01011,kill,1,300,5.120728015899658
17,3_1_1,1,1,116.94448208808899,3_D,training,01,1_A,18,01000,ignore,1,400,1.6956250667572021
18,3_1_1,1,1,121.69503402709961,3_D,training,01,1_A,19,10001,kill,0,300,2.886281967163086
19,3_1_1,1,1,124.89486718177795,3_D,training,01,1_A,20,10100,ignore,1,400,1.3201758861541748
20,3_1_1,1,1,127.64472103118896,3_D,training,01,1_A,21,11100,ignore,1,500,0.9090390205383301
21,3_1_1,1,1,131.21192121505737,3_D,training,01,1_A,22,00010,kill,1,600,1.720519781112671
22,3_1_1,1,1,135.67768120765686,3_D,training,01,1_A,23,11101,ignore,1,700,2.6148319244384766
23,3_1_1,1,1,140.04496908187866,3_D,training,01,1_A,24,11110,kill,1,800,2.5180611610412598
24,3_1_1,1,1,144.9613401889801,3_D,training,01,1_A,25,11000,ignore,1,900,3.034615993499756
25,3_1_1,1,1,149.27640414237976,3_D,training,01,1_A,26,10101,ignore,1,1000,2.491201877593994
26,3_1_1,1,1,153.2945580482483,3_D,training,01,1_A,27,01001,kill,0,900,2.1967990398406982
27,3_1_1,1,1,159.2275891304016,3_D,training,01,1_A,28,00000,ignore,1,1000,4.084085941314697
28,3_1_1,1,1,162.79465317726135,3_D,training,01,1_A,29,10010,kill,0,900,1.7191681861877441
29,3_1_1,1,1,167.56073999404907,3_D,training,01,1_A,30,01100,ignore,1,1000,2.9181759357452393
30,3_1_1,1,1,171.9105930328369,3_D,training,01,1_A,31,10111,kill,1,1100,2.494391918182373
31,3_1_1,1,1,175.82814121246338,3_D,training,01,1_A,32,01110,kill,1,1200,2.066923141479492
32,3_1_1,1,1,178.99400401115417,3_D,training,01,1_A,33,10100,ignore,1,1300,1.3260440826416016
33,3_1_1,1,1,182.34431505203247,3_D,training,01,1_A,34,01111,kill,1,1400,1.5059449672698975
34,3_1_1,1,1,185.47796821594238,3_D,training,01,1_A,35,11010,kill,0,1300,1.2835960388183594
35,3_1_1,1,1,188.27676105499268,3_D,training,01,1_A,36,00011,ignore,0,1200,0.9450020790100098
36,3_1_1,1,1,191.52746510505676,3_D,training,01,1_A,37,10001,ignore,1,1300,1.403730869293213
37,3_1_1,1,1,196.67617511749268,3_D,training,01,1_A,38,01110,kill,1,1400,3.323122978210449
38,3_1_1,1,1,200.61000800132751,3_D,training,01,1_A,39,00001,ignore,1,1500,2.1099889278411865
39,3_1_1,1,1,203.97762203216553,3_D,training,01,1_A,40,00010,kill,1,1600,1.5406320095062256
40,3_1_1,1,1,208.66086506843567,3_D,training,01,1_A,41,00110,kill,1,1700,2.840430974960327
41,3_1_1,1,1,211.82678413391113,3_D,training,01,1_A,42,00000,ignore,1,1800,1.324822187423706
42,3_1_1,1,1,216.67613315582275,3_D,training,01,1_A,43,00111,kill,1,1900,3.0126681327819824
43,3_1_1,1,1,219.90989017486572,3_D,training,01,1_A,44,11011,kill,0,1800,1.3956670761108398
44,3_1_1,1,1,224.04428815841675,3_D,training,01,1_A,45,10011,kill,0,1700,2.311535120010376
45,3_1_1,1,1,226.81019020080566,3_D,training,01,1_A,46,10101,ignore,1,1800,0.8994381427764893
46,3_1_1,1,1,230.94304299354553,3_D,training,01,1_A,47,11111,kill,1,1900,2.2985880374908447
47,3_1_1,1,1,241.49478316307068,3_D,training,01,1_A,48,01010,kill,1,2000,8.721490144729614
48,3_1_1,1,1,246.576416015625,3_D,training,01,1_A,49,11001,ignore,1,2100,3.2432620525360107
49,3_1_1,1,1,251.39430117607117,3_D,training,01,1_A,50,01100,ignore,1,2200,2.96311616897583
50,3_1_1,1,1,261.7440640926361,3_D,training,01,1_A,51,01011,kill,1,2300,8.512981176376343
51,3_1_1,1,1,265.36004400253296,3_D,training,01,1_A,52,11100,ignore,1,2400,1.7611501216888428
52,3_1_1,1,1,268.3431541919708,3_D,training,01,1_A,53,00101,ignore,1,2500,1.133108139038086
53,3_1_1,1,1,271.39374709129333,3_D,training,01,1_A,54,11110,kill,1,2600,1.2048280239105225
54,3_1_1,1,1,274.4272050857544,3_D,training,01,1_A,55,01001,ignore,1,2700,1.1569750308990479
55,3_1_1,1,1,277.4929931163788,3_D,training,01,1_A,56,10000,ignore,1,2800,1.2021358013153076
56,3_1_1,1,1,280.4264121055603,3_D,training,01,1_A,57,10010,kill,0,2700,1.0641059875488281
57,3_1_1,1,1,283.46060013771057,3_D,training,01,1_A,58,01101,ignore,1,2800,1.1700119972229004
58,3_1_1,1,1,287.2427411079407,3_D,training,01,1_A,59,10110,ignore,0,2700,1.945129156112671
59,3_1_1,1,1,292.89318799972534,3_D,training,01,1_A,60,11101,ignore,1,2800,3.7839579582214355
60,3_1_1,1,1,296.00973105430603,3_D,training,01,1_A,61,00100,ignore,1,2900,1.2449309825897217
61,3_1_1,1,1,299.0603210926056,3_D,training,01,1_A,62,11000,ignore,1,3000,1.209017038345337
62,3_1_1,1,1,301.89379119873047,3_D,training,01,1_A,63,01000,ignore,1,3100,0.9859740734100342
63,3_1_1,1,1,305.0925121307373,3_D,training,01,1_A,64,10111,kill,1,3200,1.3438010215759277
64,3_1_1,1,1,308.7937591075897,3_D,training,01,1_A,65,00100,ignore,1,3300,1.8609240055084229
65,3_1_1,1,1,312.32662320137024,3_D,training,01,1_A,66,10100,ignore,1,3400,1.667733907699585
66,3_1_1,1,1,315.45969414711,3_D,training,01,1_A,67,10111,kill,1,3500,1.2908270359039307
67,3_1_1,1,1,318.42627716064453,3_D,training,01,1_A,68,01100,ignore,1,3600,1.0986108779907227
68,3_1_1,1,1,321.07606315612793,3_D,training,01,1_A,69,00101,ignore,1,3700,0.8194570541381836
69,3_1_1,1,1,323.7099950313568,3_D,training,01,1_A,70,01000,ignore,1,3800,0.789402961730957
70,3_1_1,1,1,326.22599601745605,3_D,training,01,1_A,71,01101,ignore,1,3900,0.6821918487548828
71,3_1_1,1,1,328.5925211906433,3_D,training,01,1_A,72,10000,ignore,1,4000,0.5279271602630615
72,3_1_1,1,1,331.4759440422058,3_D,training,01,1_A,73,01011,kill,1,4100,1.0290069580078125
73,3_1_1,1,1,334.2928111553192,3_D,training,01,1_A,74,11011,kill,0,4000,0.9790639877319336
74,3_1_1,1,1,338.7761800289154,3_D,training,01,1_A,75,10011,kill,0,3900,2.6344830989837646
75,3_1_1,1,1,341.76013016700745,3_D,training,01,1_A,76,11100,ignore,1,4000,1.147886037826538
76,3_1_1,1,1,345.442440032959,3_D,training,01,1_A,77,10101,ignore,1,4100,1.804107904434204
77,3_1_1,1,1,348.9592092037201,3_D,training,01,1_A,78,00000,ignore,1,4200,1.6538078784942627
78,3_1_1,1,1,352.00828313827515,3_D,training,01,1_A,79,11101,ignore,1,4300,1.1847929954528809
79,3_1_1,1,1,354.9928340911865,3_D,training,01,1_A,80,01111,kill,1,4400,1.1075870990753174
80,3_1_1,1,1,359.0086190700531,3_D,training,01,1_A,81,01001,ignore,1,4500,2.1780009269714355
81,3_1_1,1,1,364.9432752132416,3_D,training,01,1_A,82,10010,ignore,1,4600,4.086104154586792
82,3_1_1,1,1,369.52652502059937,3_D,training,01,1_A,83,11110,kill,1,4700,2.7463040351867676
83,3_1_1,1,1,372.6578211784363,3_D,training,01,1_A,84,11000,ignore,1,4800,1.291152000427246
84,3_1_1,1,1,375.49254417419434,3_D,training,01,1_A,85,10001,ignore,1,4900,0.9860601425170898
85,3_1_1,1,1,378.89317417144775,3_D,training,01,1_A,86,01010,ignore,0,4800,1.5744900703430176
86,3_1_1,1,1,382.44269919395447,3_D,training,01,1_A,87,11010,kill,0,4700,1.6826140880584717
87,3_1_1,1,1,386.37580609321594,3_D,training,01,1_A,88,00110,kill,1,4800,2.0885748863220215
88,3_1_1,1,1,389.74210810661316,3_D,training,01,1_A,89,11111,ignore,0,4700,1.510235071182251
89,3_1_1,1,1,393.05937004089355,3_D,training,01,1_A,90,00010,ignore,0,4600,1.47102689743042
90,3_1_1,1,1,395.9767961502075,3_D,training,01,1_A,91,00001,ignore,1,4700,1.033776044845581
91,3_1_1,1,1,399.1074631214142,3_D,training,01,1_A,92,11001,ignore,1,4800,1.276871919631958
92,3_1_1,1,1,402.19233417510986,3_D,training,01,1_A,93,10110,kill,1,4900,1.2396399974822998
93,3_1_1,1,1,407.45805406570435,3_D,training,01,1_A,94,00111,kill,1,5000,3.396817922592163
94,3_1_1,1,1,410.2588632106781,3_D,training,01,1_A,95,01110,kill,1,5100,0.9255838394165039
95,3_1_1,1,1,413.8929991722107,3_D,training,01,1_A,96,00011,kill,1,5200,1.7873120307922363
96,3_1_1,1,1,417.0921320915222,3_D,training,01,1_A,97,11000,ignore,1,5300,1.369947910308838
97,3_1_1,1,1,420.7256290912628,3_D,training,01,1_A,98,00000,ignore,1,5400,1.7768669128417969
98,3_1_1,1,1,424.09223914146423,3_D,training,01,1_A,99,00010,kill,1,5500,1.5061359405517578
99,3_1_1,1,1,427.0583600997925,3_D,training,01,1_A,100,01111,kill,1,5600,1.1130549907684326
100,3_1_1,1,1,430.04251313209534,3_D,training,01,1_A,101,01001,ignore,1,5700,1.1536319255828857
101,3_1_1,1,1,433.30853509902954,3_D,training,01,1_A,102,10101,kill,0,5600,1.422118902206421
102,3_1_1,1,1,436.22495102882385,3_D,training,01,1_A,103,01000,ignore,1,5700,1.0723378658294678
103,3_1_1,1,1,438.9574270248413,3_D,training,01,1_A,104,10001,ignore,1,5800,0.8660809993743896
104,3_1_1,1,1,442.6749441623688,3_D,training,01,1_A,105,10010,kill,0,5700,1.8687160015106201
105,3_1_1,1,1,446.1593060493469,3_D,training,01,1_A,106,00001,ignore,1,5800,1.6108050346374512
106,3_1_1,1,1,449.4421010017395,3_D,training,01,1_A,107,11111,kill,1,5900,1.425487995147705
107,3_1_1,1,1,452.72576999664307,3_D,training,01,1_A,108,10111,kill,1,6000,1.4408328533172607
108,3_1_1,1,1,455.908744096756,3_D,training,01,1_A,109,01011,kill,1,6100,1.3425071239471436
109,3_1_1,1,1,460.60864520072937,3_D,training,01,1_A,110,11010,kill,0,6000,2.8159360885620117
110,3_1_1,1,1,463.3571791648865,3_D,training,01,1_A,111,10110,kill,1,6100,0.903904914855957
111,3_1_1,1,1,467.2425091266632,3_D,training,01,1_A,112,00011,kill,1,6200,2.018907070159912
112,3_1_1,1,1,474.7746682167053,3_D,training,01,1_A,113,11001,ignore,1,6300,5.656661033630371
113,3_1_1,1,1,477.9907491207123,3_D,training,01,1_A,114,11110,kill,1,6400,1.388301134109497
114,3_1_1,1,1,481.20791816711426,3_D,training,01,1_A,115,00101,ignore,1,6500,1.3571059703826904
115,3_1_1,1,1,483.92533707618713,3_D,training,01,1_A,116,11101,ignore,1,6600,0.8764681816101074
116,3_1_1,1,1,487.2591140270233,3_D,training,01,1_A,117,00100,ignore,1,6700,1.445194959640503
117,3_1_1,1,1,489.95784616470337,3_D,training,01,1_A,118,10100,ignore,1,6800,0.841526985168457
118,3_1_1,1,1,493.0067241191864,3_D,training,01,1_A,119,01101,ignore,1,6900,1.2125749588012695
119,3_1_1,1,1,496.45785999298096,3_D,training,01,1_A,120,10000,ignore,1,7000,1.607050895690918
120,3_1_1,1,1,499.7248651981354,3_D,training,01,1_A,121,01110,kill,1,7100,1.419301986694336
121,3_1_1,1,1,503.40826320648193,3_D,training,01,1_A,122,01100,ignore,1,7200,1.8197088241577148
122,3_1_1,1,1,508.22507214546204,3_D,training,01,1_A,123,01010,ignore,0,7100,2.957327127456665
123,3_1_1,1,1,511.29184222221375,3_D,training,01,1_A,124,11100,ignore,1,7200,1.2040119171142578
124,3_1_1,1,1,514.2577891349792,3_D,training,01,1_A,125,00110,kill,1,7300,1.1205129623413086
125,3_1_1,1,1,517.7586271762848,3_D,training,01,1_A,126,11011,kill,0,7200,1.6377780437469482
126,3_1_1,1,1,521.0243241786957,3_D,training,01,1_A,127,10011,ignore,1,7300,1.4100160598754883
127,3_1_1,1,1,524.2413160800934,3_D,training,01,1_A,128,00111,kill,1,7400,1.3492488861083984
128,3_1_1,1,1,528.1577301025391,3_D,training,01,1_A,129,00100,ignore,1,7500,2.074068069458008
129,3_1_1,1,1,531.6074681282043,3_D,training,01,1_A,130,01110,kill,1,7600,1.5758850574493408
130,3_1_1,1,1,535.6746342182159,3_D,training,01,1_A,131,00010,ignore,0,7500,2.1983001232147217
131,3_1_1,1,1,539.7909281253815,3_D,training,01,1_A,132,10110,kill,1,7600,2.2614409923553467
132,3_1_1,1,1,542.6917591094971,3_D,training,01,1_A,133,10000,ignore,1,7700,1.0546011924743652
133,3_1_1,1,1,546.5410780906677,3_D,training,01,1_A,134,11010,ignore,1,7800,1.987502098083496
134,3_1_1,1,1,550.20712018013,3_D,training,01,1_A,135,00001,ignore,1,7900,1.8232519626617432
135,3_1_1,1,1,553.7748951911926,3_D,training,01,1_A,136,11100,ignore,1,8000,1.7071919441223145
136,3_1_1,1,1,556.9584360122681,3_D,training,01,1_A,137,10001,ignore,1,8100,1.3190529346466064
137,3_1_1,1,1,559.6411621570587,3_D,training,01,1_A,138,11000,ignore,1,8200,0.8424029350280762
138,3_1_1,1,1,563.3080592155457,3_D,training,01,1_A,139,10010,ignore,1,8300,1.814586877822876
139,3_1_1,1,1,567.1085011959076,3_D,training,01,1_A,140,11011,kill,0,8200,1.9566690921783447
140,3_1_1,1,1,570.1738991737366,3_D,training,01,1_A,141,10111,kill,1,8300,1.2123589515686035
141,3_1_1,1,1,573.5752651691437,3_D,training,01,1_A,142,10101,ignore,1,8400,1.5419609546661377
142,3_1_1,1,1,576.5739731788635,3_D,training,01,1_A,143,00000,ignore,1,8500,1.1141541004180908
143,3_1_1,1,1,580.6740012168884,3_D,training,01,1_A,144,10011,ignore,1,8600,2.247000217437744
144,3_1_1,1,1,584.9583370685577,3_D,training,01,1_A,145,01101,ignore,1,8700,2.426126003265381
145,3_1_1,1,1,588.7245202064514,3_D,training,01,1_A,146,01011,kill,1,8800,1.91143798828125
146,3_1_1,1,1,592.0744822025299,3_D,training,01,1_A,147,10100,ignore,1,8900,1.4907751083374023
147,3_1_1,1,1,595.658185005188,3_D,training,01,1_A,148,01111,kill,1,9000,1.7137861251831055
148,3_1_1,1,1,598.5414710044861,3_D,training,01,1_A,149,11110,kill,1,9100,1.039194107055664
149,3_1_1,1,1,601.390055179596,3_D,training,01,1_A,150,00111,kill,1,9200,0.9901220798492432
150,3_1_1,1,1,604.5906190872192,3_D,training,01,1_A,151,01100,ignore,1,9300,1.3576672077178955
151,3_1_1,1,1,608.4737222194672,3_D,training,01,1_A,152,11111,kill,1,9400,2.030435085296631
152,3_1_1,1,1,611.9249210357666,3_D,training,01,1_A,153,00101,ignore,1,9500,1.5996360778808594
153,3_1_1,1,1,616.4234302043915,3_D,training,01,1_A,154,00110,kill,1,9600,2.658712863922119
154,3_1_1,1,1,619.2574260234833,3_D,training,01,1_A,155,01000,ignore,1,9700,0.9875140190124512
155,3_1_1,1,1,622.2411541938782,3_D,training,01,1_A,156,01010,ignore,0,9600,1.160994052886963
156,3_1_1,1,1,625.273567199707,3_D,training,01,1_A,157,11001,ignore,1,9700,1.1669189929962158
157,3_1_1,1,1,628.5410311222076,3_D,training,01,1_A,158,11101,ignore,1,9800,1.3978009223937988
158,3_1_1,1,1,632.8579530715942,3_D,training,01,1_A,159,00011,kill,1,9900,2.451131820678711
159,3_1_1,1,1,635.6898601055145,3_D,training,01,1_A,160,01001,ignore,1,10000,0.9937648773193359
160,3_1_1,1,1,639.6238081455231,3_D,training,01,1_A,161,01011,kill,1,10100,2.072705030441284
161,3_1_1,1,1,642.4739651679993,3_D,training,01,1_A,162,00010,kill,1,10200,1.0048558712005615
162,3_1_1,1,1,645.4567050933838,3_D,training,01,1_A,163,10101,ignore,1,10300,1.0975229740142822
163,3_1_1,1,1,648.1231322288513,3_D,training,01,1_A,164,11100,ignore,1,10400,0.8207340240478516
164,3_1_1,1,1,651.5901181697845,3_D,training,01,1_A,165,01010,kill,1,10500,1.621138095855713
165,3_1_1,1,1,654.6243290901184,3_D,training,01,1_A,166,00100,ignore,1,10600,1.1666309833526611
166,3_1_1,1,1,658.8574321269989,3_D,training,01,1_A,167,11011,ignore,1,10700,2.387770175933838
167,3_1_1,1,1,661.9738330841064,3_D,training,01,1_A,168,01111,kill,1,10800,1.2673377990722656
168,3_1_1,1,1,665.056648015976,3_D,training,01,1_A,169,11000,ignore,1,10900,1.2216300964355469
169,3_1_1,1,1,667.8066711425781,3_D,training,01,1_A,170,00101,ignore,1,11000,0.8859097957611084
170,3_1_1,1,1,670.8735430240631,3_D,training,01,1_A,171,00000,ignore,1,11100,1.2072279453277588
171,3_1_1,1,1,673.7899491786957,3_D,training,01,1_A,172,01001,ignore,1,11200,1.0552608966827393
172,3_1_1,1,1,677.5739891529083,3_D,training,01,1_A,173,10011,ignore,1,11300,1.948261022567749
173,3_1_1,1,1,680.3732991218567,3_D,training,01,1_A,174,00001,ignore,1,11400,0.9553670883178711
174,3_1_1,1,1,683.4232540130615,3_D,training,01,1_A,175,00110,kill,1,11500,1.1933691501617432
175,3_1_1,1,1,686.224258184433,3_D,training,01,1_A,176,11111,kill,1,11600,0.958061933517456
176,3_1_1,1,1,690.4411191940308,3_D,training,01,1_A,177,10010,ignore,1,11700,2.355031967163086
177,3_1_1,1,1,694.4060750007629,3_D,training,01,1_A,178,01000,ignore,1,11800,2.110179901123047
178,3_1_1,1,1,697.2558701038361,3_D,training,01,1_A,179,11001,ignore,1,11900,0.9962489604949951
179,3_1_1,1,1,700.1907680034637,3_D,training,01,1_A,180,01100,ignore,1,12000,1.046151876449585
180,3_1_1,1,1,703.0229949951172,3_D,training,01,1_A,181,11101,ignore,1,12100,0.9931161403656006
181,3_1_1,1,1,706.2063930034637,3_D,training,01,1_A,182,01110,kill,1,12200,1.3434338569641113
182,3_1_1,1,1,710.1396360397339,3_D,training,01,1_A,183,00011,kill,1,12300,2.0716371536254883
183,3_1_1,1,1,713.7396290302277,3_D,training,01,1_A,184,10110,kill,1,12400,1.7559099197387695
184,3_1_1,1,1,716.6565761566162,3_D,training,01,1_A,185,11110,kill,1,12500,1.074173927307129
185,3_1_1,1,1,719.8905460834503,3_D,training,01,1_A,186,10000,ignore,1,12600,1.373744010925293
186,3_1_1,1,1,723.4397180080414,3_D,training,01,1_A,187,11010,ignore,1,12700,1.689743995666504
187,3_1_1,1,1,726.4891650676727,3_D,training,01,1_A,188,10001,ignore,1,12800,1.1712141036987305
188,3_1_1,1,1,730.4396231174469,3_D,training,01,1_A,189,00111,kill,1,12900,2.0838229656219482
189,3_1_1,1,1,733.5569751262665,3_D,training,01,1_A,190,10100,ignore,1,13000,1.2710740566253662
190,3_1_1,1,1,736.4398519992828,3_D,training,01,1_A,191,01101,ignore,1,13100,1.0149619579315186
191,3_1_1,1,1,740.0735540390015,3_D,training,01,1_A,192,10111,kill,1,13200,1.7694549560546875
192,3_1_1,1,1,744.6725661754608,3_D,training,01,1_A,193,01111,kill,1,13300,2.756364107131958
193,3_1_1,1,1,748.3736572265625,3_D,training,01,1_A,194,00010,kill,1,13400,1.8334059715270996
194,3_1_1,1,1,751.7401602268219,3_D,training,01,1_A,195,11110,kill,1,13500,1.5425989627838135
195,3_1_1,1,1,755.1736249923706,3_D,training,01,1_A,196,10001,ignore,1,13600,1.5941271781921387
196,3_1_1,1,1,759.3725960254669,3_D,training,01,1_A,197,01110,kill,1,13700,2.358502149581909
197,3_1_1,1,1,763.138922214508,3_D,training,01,1_A,198,10010,ignore,1,13800,1.9252309799194336
198,3_1_1,1,1,766.3574922084808,3_D,training,01,1_A,199,01100,ignore,1,13900,1.3673169612884521
199,3_1_1,1,1,769.0723822116852,3_D,training,01,1_A,200,00000,ignore,1,14000,0.8743710517883301
200,3_1_1,1,1,772.1055271625519,3_D,training,01,1_A,201,00110,kill,1,14100,1.2019250392913818
201,3_1_1,1,1,775.1556150913239,3_D,training,01,1_A,202,10011,ignore,1,14200,1.2009251117706299
202,3_1_1,1,1,778.0895001888275,3_D,training,01,1_A,203,11001,ignore,1,14300,1.091507911682129
203,3_1_1,1,1,782.4556791782379,3_D,training,01,1_A,204,00011,kill,1,14400,2.509700059890747
204,3_1_1,1,1,786.3900010585785,3_D,training,01,1_A,205,11111,kill,1,14500,2.105829954147339
205,3_1_1,1,1,789.2048962116241,3_D,training,01,1_A,206,00101,ignore,1,14600,0.9328980445861816
206,3_1_1,1,1,792.3723151683807,3_D,training,01,1_A,207,11011,ignore,1,14700,1.3354430198669434
207,3_1_1,1,1,795.1894011497498,3_D,training,01,1_A,208,01101,kill,0,14600,0.9701230525970459
208,3_1_1,1,1,799.4562501907349,3_D,training,01,1_A,209,00111,kill,1,14700,2.3992819786071777
209,3_1_1,1,1,802.5884971618652,3_D,training,01,1_A,210,01001,ignore,1,14800,1.2675158977508545
210,3_1_1,1,1,805.6052401065826,3_D,training,01,1_A,211,01010,kill,1,14900,1.1718361377716064
211,3_1_1,1,1,809.0237281322479,3_D,training,01,1_A,212,10101,ignore,1,15000,1.5548558235168457
212,3_1_1,1,1,812.2048242092133,3_D,training,01,1_A,213,10111,kill,1,15100,1.3335649967193604
213,3_1_1,1,1,815.8896050453186,3_D,training,01,1_A,214,11101,ignore,1,15200,1.7711830139160156
214,3_1_1,1,1,818.4381680488586,3_D,training,01,1_A,215,11100,ignore,1,15300,0.6897318363189697
215,3_1_1,1,1,821.1722600460052,3_D,training,01,1_A,216,00100,ignore,1,15400,0.8678429126739502
216,3_1_1,1,1,823.8731760978699,3_D,training,01,1_A,217,00001,ignore,1,15500,0.8413679599761963
217,3_1_1,1,1,827.4052531719208,3_D,training,01,1_A,218,11010,ignore,1,15600,1.6834359169006348
218,3_1_1,1,1,830.422404050827,3_D,training,01,1_A,219,01011,kill,1,15700,1.164093017578125
219,3_1_1,1,1,833.3059461116791,3_D,training,01,1_A,220,01000,ignore,1,15800,1.0317988395690918
220,3_1_1,1,1,836.9058971405029,3_D,training,01,1_A,221,10110,kill,1,15900,1.7541961669921875
221,3_1_1,1,1,839.7232601642609,3_D,training,01,1_A,222,11000,ignore,1,16000,0.9667007923126221
222,3_1_1,1,1,842.4055061340332,3_D,training,01,1_A,223,10000,ignore,1,16100,0.8408670425415039
223,3_1_1,1,1,845.3052711486816,3_D,training,01,1_A,224,10100,ignore,1,16200,1.0737237930297852
224,3_1_1,1,1,848.3727312088013,3_D,training,01,1_A,225,01000,ignore,1,16300,1.2071659564971924
225,3_1_1,1,1,851.5398271083832,3_D,training,01,1_A,226,01111,kill,1,16400,1.334507942199707
226,3_1_1,1,1,854.8052010536194,3_D,training,01,1_A,227,10101,ignore,1,16500,1.4094140529632568
227,3_1_1,1,1,857.7222611904144,3_D,training,01,1_A,228,00101,ignore,1,16600,1.0439691543579102
228,3_1_1,1,1,860.6892812252045,3_D,training,01,1_A,229,11111,kill,1,16700,1.1169459819793701
229,3_1_1,1,1,863.5714812278748,3_D,training,01,1_A,230,11101,ignore,1,16800,1.0266311168670654
230,3_1_1,1,1,866.4894800186157,3_D,training,01,1_A,231,11110,kill,1,16900,1.065774917602539
231,3_1_1,1,1,870.1042540073395,3_D,training,01,1_A,232,00000,ignore,1,17000,1.7576549053192139
232,3_1_1,1,1,873.2719171047211,3_D,training,01,1_A,233,01110,kill,1,17100,1.3024730682373047
233,3_1_1,1,1,876.23930311203,3_D,training,01,1_A,234,10001,ignore,1,17200,1.1028189659118652
234,3_1_1,1,1,879.1055200099945,3_D,training,01,1_A,235,01100,ignore,1,17300,1.0175468921661377
235,3_1_1,1,1,882.1891801357269,3_D,training,01,1_A,236,01011,kill,1,17400,1.2356488704681396
236,3_1_1,1,1,884.9388470649719,3_D,training,01,1_A,237,11000,ignore,1,17500,0.8771591186523438
237,3_1_1,1,1,887.7894840240479,3_D,training,01,1_A,238,00010,kill,1,17600,1.0126559734344482
238,3_1_1,1,1,890.7894730567932,3_D,training,01,1_A,239,10110,kill,1,17700,1.1271839141845703
239,3_1_1,1,1,894.7888941764832,3_D,training,01,1_A,240,11010,ignore,1,17800,2.1297171115875244
240,3_1_1,1,1,897.6878402233124,3_D,training,01,1_A,241,00011,kill,1,17900,1.0186870098114014
241,3_1_1,1,1,901.0386180877686,3_D,training,01,1_A,242,01010,ignore,0,17800,1.4994869232177734
242,3_1_1,1,1,904.2555401325226,3_D,training,01,1_A,243,11100,ignore,1,17900,1.3658030033111572
243,3_1_1,1,1,908.8049809932709,3_D,training,01,1_A,244,00001,ignore,1,18000,2.680640935897827
244,3_1_1,1,1,912.2550981044769,3_D,training,01,1_A,245,11011,ignore,1,18100,1.6063270568847656
245,3_1_1,1,1,915.2217071056366,3_D,training,01,1_A,246,00100,kill,0,18000,1.0978989601135254
246,3_1_1,1,1,918.7044751644135,3_D,training,01,1_A,247,00111,kill,1,18100,1.6417529582977295
247,3_1_1,1,1,922.1553440093994,3_D,training,01,1_A,248,11001,ignore,1,18200,1.5859110355377197
248,3_1_1,1,1,925.855211019516,3_D,training,01,1_A,249,10010,ignore,1,18300,1.8531951904296875
249,3_1_1,1,1,928.7214441299438,3_D,training,01,1_A,250,01101,kill,0,18200,1.0175981521606445
250,3_1_1,1,1,931.5371980667114,3_D,training,01,1_A,251,10000,ignore,1,18300,0.9946649074554443
251,3_1_1,1,1,935.1885101795197,3_D,training,01,1_A,252,10011,ignore,1,18400,1.801548957824707
252,3_1_1,1,1,937.7553420066833,3_D,training,01,1_A,253,10100,ignore,1,18500,0.7284939289093018
253,3_1_1,1,1,940.1382250785828,3_D,training,01,1_A,254,01001,ignore,1,18600,0.5281639099121094
254,3_1_1,1,1,943.438127040863,3_D,training,01,1_A,255,10111,kill,1,18700,1.4673168659210205
255,3_1_1,1,1,947.1049361228943,3_D,training,01,1_A,256,00110,kill,1,18800,1.7956619262695312
256,3_1_1,1,1,950.1712942123413,3_D,training,01,1_A,257,10111,kill,1,18900,1.195605993270874
257,3_1_1,1,1,953.8382580280304,3_D,training,01,1_A,258,01010,kill,1,19000,1.8167240619659424
258,3_1_1,1,1,956.9715940952301,3_D,training,01,1_A,259,01000,ignore,1,19100,1.2753617763519287
259,3_1_1,1,1,959.489018201828,3_D,training,01,1_A,260,01001,ignore,1,19200,0.6569218635559082
260,3_1_1,1,1,961.8547720909119,3_D,training,01,1_A,261,00000,ignore,1,19300,0.5137338638305664
261,3_1_1,1,1,964.8718650341034,3_D,training,01,1_A,262,01110,kill,1,19400,1.18831205368042
262,3_1_1,1,1,968.4381999969482,3_D,training,01,1_A,263,11110,kill,1,19500,1.7367727756500244
263,3_1_1,1,1,971.6544082164764,3_D,training,01,1_A,264,11101,ignore,1,19600,1.3780360221862793
264,3_1_1,1,1,974.6386280059814,3_D,training,01,1_A,265,00010,kill,1,19700,1.1327199935913086
265,3_1_1,1,1,977.7214751243591,3_D,training,01,1_A,266,10001,ignore,1,19800,1.2236599922180176
266,3_1_1,1,1,981.054868221283,3_D,training,01,1_A,267,11100,ignore,1,19900,1.5018668174743652
267,3_1_1,1,1,983.8044481277466,3_D,training,01,1_A,268,01100,ignore,1,20000,0.8940799236297607
268,3_1_1,1,1,986.4712221622467,3_D,training,01,1_A,269,10100,ignore,1,20100,0.8021440505981445
269,3_1_1,1,1,989.4372611045837,3_D,training,01,1_A,270,11000,ignore,1,20200,1.1159019470214844
270,3_1_1,1,1,992.0035090446472,3_D,training,01,1_A,271,10000,ignore,1,20300,0.7046771049499512
271,3_1_1,1,1,995.0371770858765,3_D,training,01,1_A,272,00110,kill,1,20400,1.1829450130462646
272,3_1_1,1,1,997.9546990394592,3_D,training,01,1_A,273,00001,ignore,1,20500,1.0351340770721436
273,3_1_1,1,1,1001.0208802223206,3_D,training,01,1_A,274,11001,ignore,1,20600,1.2209820747375488
274,3_1_1,1,1,1003.9876320362091,3_D,training,01,1_A,275,00100,ignore,1,20700,1.115699052810669
275,3_1_1,1,1,1007.0048470497131,3_D,training,01,1_A,276,10010,kill,0,20600,1.150676965713501
276,3_1_1,1,1,1015.6375250816345,3_D,training,01,1_A,277,11011,ignore,1,20700,6.789397954940796
277,3_1_1,1,1,1020.0537261962891,3_D,training,01,1_A,278,01011,kill,1,20800,2.572783946990967
278,3_1_1,1,1,1029.1540570259094,3_D,training,01,1_A,279,10011,ignore,1,20900,7.244549989700317
279,3_1_1,1,1,1035.053791999817,3_D,training,01,1_A,280,01111,kill,1,21000,4.058829069137573
280,3_1_1,1,1,1038.2536470890045,3_D,training,01,1_A,281,01101,ignore,1,21100,1.366934061050415
281,3_1_1,1,1,1045.7212190628052,3_D,training,01,1_A,282,00101,ignore,1,21200,5.622135877609253
282,3_1_1,1,1,1049.070513010025,3_D,training,01,1_A,283,11111,kill,1,21300,1.48819899559021
283,3_1_1,1,1,1051.9197142124176,3_D,training,01,1_A,284,00111,kill,1,21400,0.9921650886535645
284,3_1_1,1,1,1057.3195300102234,3_D,training,01,1_A,285,10110,kill,1,21500,3.5559499263763428
285,3_1_1,1,1,1060.9873690605164,3_D,training,01,1_A,286,11010,ignore,1,21600,1.8315680027008057
286,3_1_1,1,1,1064.9373490810394,3_D,training,01,1_A,287,00011,kill,1,21700,2.063560962677002
287,3_1_1,1,1,1076.5551822185516,3_D,training,01,1_A,288,10101,ignore,1,21800,9.746870994567871
288,3_1_1,1,1,1079.9699862003326,3_D,training,01,1_A,289,10000,ignore,1,21900,1.5891451835632324
289,3_1_1,1,1,1083.103529214859,3_D,training,01,1_A,290,00101,ignore,1,22000,1.289754867553711
290,3_1_1,1,1,1086.654934167862,3_D,training,01,1_A,291,00011,kill,1,22100,1.6915109157562256
291,3_1_1,1,1,1089.5692210197449,3_D,training,01,1_A,292,01001,ignore,1,22200,1.0596330165863037
292,3_1_1,1,1,1092.8362350463867,3_D,training,01,1_A,293,11111,kill,1,22300,1.4151830673217773
293,3_1_1,1,1,1097.2187621593475,3_D,training,01,1_A,294,00100,ignore,1,22400,2.5289878845214844
294,3_1_1,1,1,1103.4543421268463,3_D,training,01,1_A,295,10011,ignore,1,22500,4.354315996170044
295,3_1_1,1,1,1107.0369591712952,3_D,training,01,1_A,296,10110,kill,1,22600,1.7415649890899658
296,3_1_1,1,1,1138.8194670677185,3_D,training,01,1_A,297,11100,ignore,1,22700,29.1160831451416
297,3_1_1,1,1,1142.0523450374603,3_D,training,01,1_A,298,11110,kill,1,22800,1.3979978561401367
298,3_1_1,1,1,1144.9529011249542,3_D,training,01,1_A,299,00010,kill,1,22900,1.0349619388580322
299,3_1_1,1,1,1148.068578004837,3_D,training,01,1_A,300,01100,ignore,1,23000,1.2639081478118896
300,3_1_1,1,1,1151.2531070709229,3_D,training,01,1_A,301,01111,kill,1,23100,1.3430750370025635
301,3_1_1,1,1,1158.686142206192,3_D,training,01,1_A,302,01010,kill,1,23200,5.56912088394165
302,3_1_1,1,1,1163.7043800354004,3_D,training,01,1_A,303,00110,kill,1,23300,3.1505818367004395
303,3_1_1,1,1,1168.9038631916046,3_D,training,01,1_A,304,01000,ignore,1,23400,3.3563458919525146
304,3_1_1,1,1,1172.136812210083,3_D,training,01,1_A,305,00000,ignore,1,23500,1.3489470481872559
305,3_1_1,1,1,1180.9366822242737,3_D,training,01,1_A,306,10010,kill,0,23400,6.938576936721802
306,3_1_1,1,1,1184.470613002777,3_D,training,01,1_A,307,10101,ignore,1,23500,1.6887240409851074
307,3_1_1,1,1,1190.8200001716614,3_D,training,01,1_A,308,11011,ignore,1,23600,4.480233192443848
308,3_1_1,1,1,1193.9694001674652,3_D,training,01,1_A,309,11001,ignore,1,23700,1.2916769981384277
309,3_1_1,1,1,1197.053248167038,3_D,training,01,1_A,310,00111,kill,1,23800,1.200057029724121
310,3_1_1,1,1,1203.736605167389,3_D,training,01,1_A,311,10100,ignore,1,23900,4.843813896179199
311,3_1_1,1,1,1209.0528571605682,3_D,training,01,1_A,312,01011,kill,1,24000,3.44620418548584
312,3_1_1,1,1,1213.7534260749817,3_D,training,01,1_A,313,10111,kill,1,24100,2.8326361179351807
313,3_1_1,1,1,1217.4521420001984,3_D,training,01,1_A,314,11000,ignore,1,24200,1.836035966873169
314,3_1_1,1,1,1220.4023730754852,3_D,training,01,1_A,315,00001,ignore,1,24300,1.0806329250335693
315,3_1_1,1,1,1223.5694420337677,3_D,training,01,1_A,316,10001,ignore,1,24400,1.3072021007537842
316,3_1_1,1,1,1226.9691860675812,3_D,training,01,1_A,317,01110,kill,1,24500,1.570113182067871
317,3_1_1,1,1,1230.5690920352936,3_D,training,01,1_A,318,11010,ignore,1,24600,1.7767620086669922
318,3_1_1,1,1,1233.7858731746674,3_D,training,01,1_A,319,01101,ignore,1,24700,1.3515019416809082
319,3_1_1,1,1,1236.735876083374,3_D,training,01,1_A,320,11101,ignore,1,24800,1.1100878715515137
320,3_1_1,1,1,1239.3525161743164,3_D,training,01,1_A,321,01001,ignore,1,24900,0.7699170112609863
321,3_1_1,1,1,1241.985894203186,3_D,training,01,1_A,322,11000,ignore,1,25000,0.7888619899749756
322,3_1_1,1,1,1245.1703400611877,3_D,training,01,1_A,323,10111,kill,1,25100,1.3329310417175293
323,3_1_1,1,1,1248.118161201477,3_D,training,01,1_A,324,10010,ignore,1,25200,1.0998380184173584
324,3_1_1,1,1,1251.4026432037354,3_D,training,01,1_A,325,11111,kill,1,25300,1.4389817714691162
325,3_1_1,1,1,1254.602506160736,3_D,training,01,1_A,326,11010,ignore,1,25400,1.3517417907714844
326,3_1_1,1,1,1257.7031300067902,3_D,training,01,1_A,327,01011,kill,1,25500,1.249500036239624
327,3_1_1,1,1,1260.8521702289581,3_D,training,01,1_A,328,11110,kill,1,25600,1.2942728996276855
328,3_1_1,1,1,1468.4011671543121,3_D,test,01,2,0,00010,ignore,1,100,14.581460952758789
329,3_1_1,1,1,1487.5678951740265,3_D,test,01,2,1,11011,kill,1,200,17.344249963760376
330,3_1_1,1,1,1492.5345242023468,3_D,test,01,2,2,00000,kill,0,100,3.1240041255950928
331,3_1_1,1,1,1523.3845880031586,3_D,test,01,2,3,01110,kill,0,0,28.170235872268677
332,3_1_1,1,1,1549.3336520195007,3_D,test,01,2,4,00100,ignore,1,100,23.267331838607788
333,3_1_1,1,1,1563.9672360420227,3_D,test,01,2,5,11001,ignore,0,0,12.791232109069824
334,3_1_1,1,1,1591.5153291225433,3_D,test,01,2,6,01101,ignore,1,100,24.886038064956665
335,3_1_1,1,1,1598.2166011333466,3_D,test,01,2,7,10101,kill,1,200,4.86124587059021
336,3_1_1,1,1,1602.3671090602875,3_D,test,01,2,8,10001,kill,1,300,2.298646926879883
337,3_1_1,1,1,1605.849811077118,3_D,test,01,2,9,00110,ignore,1,400,1.638758897781372
338,3_1_1,1,1,1609.099650144577,3_D,test,01,2,10,01100,ignore,1,500,1.3979229927062988
339,3_1_1,1,1,1611.8984241485596,3_D,test,01,2,11,01111,ignore,1,600,0.9746110439300537
340,3_1_1,1,1,1615.3669641017914,3_D,test,01,2,12,10110,kill,1,700,1.6161558628082275
341,3_1_1,1,1,1618.6171071529388,3_D,test,01,2,13,01000,ignore,1,800,1.407433032989502
342,3_1_1,1,1,1622.0501642227173,3_D,test,01,2,14,11100,kill,0,700,1.599010944366455
343,3_1_1,1,1,1634.6664900779724,3_D,test,01,2,15,00111,ignore,1,800,10.768316984176636
344,3_1_1,1,1,1647.532989025116,3_D,test,01,2,16,10100,kill,1,900,11.015592813491821
345,3_1_1,1,1,1656.6988031864166,3_D,test,01,2,17,10000,kill,1,1000,7.3105409145355225
346,3_1_1,1,1,1664.5500030517578,3_D,test,01,2,18,11101,ignore,0,900,6.002259016036987
347,3_1_1,1,1,1668.1990802288055,3_D,test,01,2,19,01010,ignore,1,1000,1.8130600452423096
348,3_1_1,1,1,1671.5157351493835,3_D,test,01,2,20,00101,kill,0,900,1.460763931274414
349,3_1_1,1,1,1678.9660501480103,3_D,test,01,2,21,10011,ignore,0,800,5.593506097793579
350,3_1_1,1,1,1685.1156899929047,3_D,test,01,2,22,00011,kill,0,700,4.294532775878906
351,3_1_1,1,1,1716.782721042633,3_D,test,01,2,23,00001,kill,0,600,28.98501205444336
352,3_1_1,1,1,1732.0329542160034,3_D,test,01,2,24,10010,ignore,0,500,13.41916012763977
353,3_1_1,1,1,1740.5988190174103,3_D,test,01,2,25,01000,kill,0,400,6.719321966171265
354,3_1_1,1,1,1768.1813790798187,3_D,test,01,2,26,10100,ignore,0,300,24.903076887130737
355,3_1_1,1,1,1779.698734998703,3_D,test,01,2,27,00011,ignore,1,400,9.689842224121094
356,3_1_1,1,1,1786.7313752174377,3_D,test,01,2,28,01010,ignore,1,500,5.195068120956421
357,3_1_1,1,1,1790.1162691116333,3_D,test,01,2,29,00100,kill,0,400,1.5354788303375244
358,3_1_1,1,1,1800.0989701747894,3_D,test,01,2,30,01011,ignore,1,500,8.137537002563477
359,3_1_1,1,1,1807.5655090808868,3_D,test,01,2,31,11000,kill,0,400,5.6168200969696045
360,3_1_1,1,1,1816.7985670566559,3_D,test,01,2,32,00010,ignore,1,500,7.3904640674591064
361,3_1_1,1,1,1828.0141410827637,3_D,test,01,2,33,00001,kill,0,400,9.37746000289917
362,3_1_1,1,1,1840.798471212387,3_D,test,01,2,34,00110,ignore,1,500,10.942193984985352
363,3_1_1,1,1,1853.2146360874176,3_D,test,01,2,35,10111,ignore,0,400,10.583662033081055
364,3_1_1,1,1,1857.9142360687256,3_D,test,01,2,36,00111,ignore,1,500,2.8639321327209473
365,3_1_1,1,1,1871.329910993576,3_D,test,01,2,37,10101,ignore,0,400,11.577821969985962
366,3_1_1,1,1,1886.4641571044922,3_D,test,01,2,38,10001,kill,1,500,13.292718887329102
367,3_1_1,1,1,1893.9142010211945,3_D,test,01,3,0,11111,kill,0,400,5.608810901641846
368,3_1_1,1,1,1906.3651921749115,3_D,test,01,3,1,00101,kill,0,300,10.609473943710327
369,3_1_1,1,1,1908.9969022274017,3_D,test,01,3,2,10110,kill,0,200,0.7853140830993652
370,3_1_1,1,1,1929.2984402179718,3_D,test,01,3,3,11011,ignore,0,100,18.443842887878418
371,3_1_1,1,1,1941.3308460712433,3_D,test,01,3,4,01100,kill,0,0,10.199789047241211
372,3_1_1,1,1,1951.5478751659393,3_D,test,01,3,5,10000,kill,0,0,8.37795901298523
373,3_1_1,1,1,1970.6301681995392,3_D,test,01,3,6,10011,ignore,0,0,17.244191884994507
374,3_1_1,1,1,1977.7975051403046,3_D,test,01,3,7,01101,kill,0,0,5.343142986297607
375,3_1_1,1,1,1991.2474381923676,3_D,test,01,3,8,00000,ignore,0,0,11.599231958389282
376,3_1_1,1,1,2010.079885005951,3_D,test,01,3,9,01110,kill,0,0,17.011132955551147
377,3_1_1,1,1,2017.7464802265167,3_D,test,01,3,10,11101,ignore,1,100,5.8308680057525635
378,3_1_1,1,1,2021.8636181354523,3_D,test,01,3,11,11010,kill,1,200,2.287808895111084
379,3_1_1,1,1,2025.480348110199,3_D,test,01,3,12,01001,kill,1,300,1.7595388889312744
380,3_1_1,1,1,2028.2631900310516,3_D,test,01,3,13,11001,kill,0,200,0.940025806427002
381,3_1_1,1,1,2031.6969170570374,3_D,test,01,3,14,11110,kill,0,100,1.5979139804840088
382,3_1_1,1,1,2044.7454800605774,3_D,test,01,3,15,11100,ignore,1,200,11.227922916412354
383,3_1_1,1,1,2062.1973600387573,3_D,test,01,3,16,01111,ignore,1,300,15.609626054763794
384,3_1_1,1,1,2074.5801100730896,3_D,test,01,3,17,10101,kill,0,200,10.546147108078003
385,3_1_1,1,1,2090.3794021606445,3_D,test,01,3,18,00110,ignore,1,300,13.960959911346436
386,3_1_1,1,1,2095.3123412132263,3_D,test,01,3,19,11110,kill,0,200,3.107969045639038
387,3_1_1,1,1,2112.246775150299,3_D,test,01,3,20,00100,kill,0,100,15.069391012191772
388,3_1_1,1,1,2120.044373035431,3_D,test,01,3,21,00010,ignore,0,0,5.955801963806152
389,3_1_1,1,1,2130.2460401058197,3_D,test,01,3,22,10001,kill,0,0,8.358469009399414
390,3_1_1,1,1,2144.979803085327,3_D,test,01,3,23,11100,ignore,1,100,12.892015933990479
391,3_1_1,1,1,2151.961564064026,3_D,test,01,3,24,01000,ignore,0,0,5.164361000061035
392,3_1_1,1,1,2165.2956721782684,3_D,test,01,3,25,00011,kill,1,100,11.491373062133789
393,3_1_1,1,1,2169.728098154068,3_D,test,01,3,26,00000,kill,1,200,2.5679309368133545
394,3_1_1,1,1,2172.745658159256,3_D,test,01,3,27,01001,kill,1,300,1.182785987854004
395,3_1_1,1,1,2175.762267112732,3_D,test,01,3,28,01010,kill,1,400,1.1962709426879883
396,3_1_1,1,1,2179.212152004242,3_D,test,01,3,29,11010,ignore,0,300,1.6207399368286133
397,3_1_1,1,1,2195.7796161174774,3_D,test,01,3,30,10011,ignore,0,200,14.741641998291016
398,3_1_1,1,1,2203.9779381752014,3_D,test,01,3,31,01111,ignore,1,300,6.360089063644409
399,3_1_1,1,1,2211.6122200489044,3_D,test,01,3,32,10111,kill,0,200,5.782049894332886
400,3_1_1,1,1,2218.6792051792145,3_D,test,01,3,33,00001,ignore,0,100,5.219191074371338
401,3_1_1,1,1,2226.27800321579,3_D,test,01,3,34,10100,ignore,1,200,5.741132974624634
402,3_1_1,1,1,2229.1111760139465,3_D,test,01,3,35,01110,ignore,1,300,1.0101730823516846
403,3_1_1,1,1,2231.8120682239532,3_D,test,01,3,36,10000,ignore,1,400,0.859760046005249
404,3_1_1,1,1,2235.1956491470337,3_D,test,01,3,37,11000,kill,0,300,1.5563430786132812
405,3_1_1,1,1,2245.6120171546936,3_D,test,01,3,38,10110,ignore,1,400,8.558802127838135
406,3_1_1,1,1,2251.8785831928253,3_D,test,01,3,39,11101,ignore,1,500,4.433773040771484
407,3_1_1,1,1,2256.2943720817566,3_D,test,01,3,40,01011,kill,1,600,2.5918710231781006
408,3_1_1,1,1,2259.6617200374603,3_D,test,01,3,41,10010,ignore,0,500,1.4971568584442139
409,3_1_1,1,1,2265.7772500514984,3_D,test,01,3,42,11001,kill,0,400,4.27463698387146
410,3_1_1,1,1,2280.245104074478,3_D,test,01,3,43,01101,ignore,1,500,12.605011940002441
411,3_1_1,1,1,2296.1782732009888,3_D,test,01,3,44,00101,ignore,1,600,14.08185887336731
412,3_1_1,1,1,2300.911716222763,3_D,test,01,3,45,01100,ignore,1,700,2.8833138942718506
413,3_1_1,1,1,2304.1114630699158,3_D,test,01,3,46,00111,ignore,1,800,1.3501620292663574
414,3_1_1,1,1,2306.81152009964,3_D,test,01,3,47,11111,ignore,1,900,0.8627800941467285
415,3_1_1,1,1,2310.1115272045135,3_D,test,01,4,0,11011,kill,0,800,1.461669921875
416,3_1_1,1,1,2319.8952310085297,3_D,test,01,4,1,00010,ignore,1,900,7.936103105545044
417,3_1_1,1,1,2322.8937401771545,3_D,test,01,4,2,11011,ignore,1,1000,1.1420838832855225
418,3_1_1,1,1,2326.04447221756,3_D,test,01,4,3,10011,ignore,0,900,1.295133113861084
419,3_1_1,1,1,2339.878530025482,3_D,test,01,4,4,00000,ignore,1,1000,11.978873014450073
420,3_1_1,1,1,2347.859976053238,3_D,test,01,4,5,01010,kill,0,900,6.163258075714111
421,3_1_1,1,1,2357.7273190021515,3_D,test,01,4,6,11001,ignore,1,1000,8.026569843292236
422,3_1_1,1,1,2369.2597210407257,3_D,test,01,4,7,01101,kill,0,900,9.702017784118652
423,3_1_1,1,1,2372.7775790691376,3_D,test,01,4,8,11100,ignore,1,1000,1.655912160873413
424,3_1_1,1,1,2375.443908214569,3_D,test,01,4,9,01100,ignore,1,1100,0.8355648517608643
425,3_1_1,1,1,2378.760473012924,3_D,test,01,4,10,11010,kill,0,1000,1.4630799293518066
426,3_1_1,1,1,2396.276834011078,3_D,test,01,4,11,11111,ignore,1,1100,15.66593599319458
427,3_1_1,1,1,2399.444073200226,3_D,test,01,4,12,10100,ignore,0,1000,1.2966930866241455
428,3_1_1,1,1,2414.7942039966583,3_D,test,01,4,13,01111,kill,0,900,13.50799298286438
429,3_1_1,1,1,2417.643182039261,3_D,test,01,4,14,01011,ignore,1,1000,1.01133394241333
430,3_1_1,1,1,2421.3423759937286,3_D,test,01,4,15,11101,kill,0,900,1.8595449924468994
431,3_1_1,1,1,2436.076724052429,3_D,test,01,4,16,10000,ignore,1,1000,12.870657205581665
432,3_1_1,1,1,2439.5104310512543,3_D,test,01,4,17,11110,kill,0,900,1.605767011642456
433,3_1_1,1,1,2457.5609591007233,3_D,test,01,4,18,10001,ignore,0,800,16.201695919036865
434,3_1_1,1,1,2467.6435821056366,3_D,test,01,4,19,00111,ignore,0,700,8.21646499633789
435,3_1_1,1,1,2485.125901222229,3_D,test,01,4,20,01001,kill,0,600,15.634101867675781
436,3_1_1,1,1,2492.04332613945,3_D,test,01,4,21,11000,ignore,1,700,5.08850622177124
437,3_1_1,1,1,2495.376897096634,3_D,test,01,4,22,01000,ignore,1,800,1.5099360942840576
438,3_1_1,1,1,2501.575791120529,3_D,test,01,4,23,10110,ignore,0,700,4.339457988739014
439,3_1_1,1,1,2509.6597061157227,3_D,test,01,4,24,00101,kill,1,800,6.24561619758606
440,3_1_1,1,1,2515.426092147827,3_D,test,01,4,25,10101,kill,1,900,3.899005889892578
441,3_1_1,1,1,2518.642692089081,3_D,test,01,4,26,00001,kill,1,1000,1.3696141242980957
442,3_1_1,1,1,2524.176330089569,3_D,test,01,4,27,00110,ignore,0,900,3.6709160804748535
443,3_1_1,1,1,2527.241672039032,3_D,test,01,4,28,00011,kill,1,1000,1.1947619915008545
444,3_1_1,1,1,2530.4759130477905,3_D,test,01,4,29,10111,kill,1,1100,1.2589130401611328
445,3_1_1,1,1,2533.6596682071686,3_D,test,01,4,30,01110,kill,0,1000,1.3285250663757324
446,3_1_1,1,1,2537.5265831947327,3_D,test,01,4,31,10010,ignore,1,1100,2.0050950050354004
447,3_1_1,1,1,2540.8096899986267,3_D,test,01,4,32,00100,kill,1,1200,1.4132230281829834
448,3_1_1,1,1,2543.8263840675354,3_D,test,01,4,33,11101,kill,0,1100,1.141422986984253
449,3_1_1,1,1,2550.126787185669,3_D,test,01,4,34,10100,ignore,0,1000,4.432593107223511
450,3_1_1,1,1,2553.6762640476227,3_D,test,01,4,35,00010,ignore,1,1100,1.6713509559631348
451,3_1_1,1,1,2556.6924600601196,3_D,test,01,4,36,10110,ignore,0,1000,1.1600749492645264
452,3_1_1,1,1,2561.6595981121063,3_D,test,01,4,37,10101,kill,1,1100,3.0964159965515137
453,3_1_1,1,1,2567.5925199985504,3_D,test,01,4,38,00101,ignore,0,1000,4.094563961029053
454,3_1_1,1,1,2582.3756890296936,3_D,test,01,4,39,11001,ignore,1,1100,12.929611921310425
455,3_1_1,1,1,2588.9257650375366,3_D,test,01,4,40,01100,kill,0,1000,4.7094199657440186
456,3_1_1,1,1,2601.276442050934,3_D,test,01,4,41,11000,kill,0,900,10.485388040542603
457,3_1_1,1,1,2607.3595271110535,3_D,test,01,4,42,11100,kill,0,800,4.216123819351196
458,3_1_1,1,1,2618.2255840301514,3_D,test,01,4,43,00100,ignore,0,700,8.993080854415894
459,3_1_1,1,1,2623.9264290332794,3_D,test,01,4,44,10111,ignore,0,600,3.8488800525665283
460,3_1_1,1,1,2629.1918981075287,3_D,test,01,4,45,11011,ignore,1,700,3.4102659225463867
461,3_1_1,1,1,2632.474636077881,3_D,test,01,4,46,01011,ignore,1,800,1.4179039001464844
462,3_1_1,1,1,2635.440724134445,3_D,test,01,4,47,00110,kill,1,900,1.1093130111694336
463,3_1_1,1,1,2639.4755091667175,3_D,test,01,4,48,11111,kill,0,800,2.1970410346984863
464,3_1_1,1,1,2647.5915570259094,3_D,test,01,4,49,11010,ignore,1,900,6.272006988525391
465,3_1_1,1,1,2650.3919501304626,3_D,test,01,4,50,00000,kill,0,800,0.9361429214477539
466,3_1_1,1,1,2655.907883167267,3_D,test,01,4,51,01001,ignore,1,900,3.6569759845733643
