,unique_id,pair_id,sbj_id,wall_time,condition,block,rule_id,rule_num,trial,stimulus,choice,correct,points,reaction_time
0,1_39_1,39,1.0,19.431019663,1_I,training,05,1_A,1.0,10111,kill,0.0,0.0,2.38089862127
1,1_39_1,39,1.0,23.3844307701,1_I,training,05,1_A,2.0,01100,ignore,0.0,0.0,1.86125611463
2,1_39_1,39,1.0,27.2595701253,1_I,training,05,1_A,3.0,11100,kill,0.0,0.0,1.78907557959
3,1_39_1,39,1.0,31.9785777881,1_I,training,05,1_A,4.0,10011,ignore,1.0,100.0,2.62213159235
4,1_39_1,39,1.0,35.4787301327,1_I,training,05,1_A,5.0,01010,ignore,0.0,0.0,1.40588120588
5,1_39_1,39,1.0,41.1665212711,1_I,training,05,1_A,6.0,01101,ignore,1.0,100.0,3.59071685977
6,1_39_1,39,1.0,45.1198358399,1_I,training,05,1_A,7.0,11110,ignore,1.0,200.0,1.86358810904
7,1_39_1,39,1.0,48.4012303668,1_I,training,05,1_A,8.0,10010,ignore,0.0,100.0,1.18142922937
8,1_39_1,39,1.0,54.1202123715,1_I,training,05,1_A,9.0,11101,ignore,1.0,200.0,3.62410533649
9,1_39_1,39,1.0,57.3235404108,1_I,training,05,1_A,10.0,10001,ignore,1.0,300.0,1.11059028869
10,1_39_1,39,1.0,60.7611836948,1_I,training,05,1_A,11.0,00111,kill,0.0,200.0,1.3480675653
11,1_39_1,39,1.0,64.6207290602,1_I,training,05,1_A,12.0,11001,ignore,1.0,300.0,1.76773034178
12,1_39_1,39,1.0,68.0115368135,1_I,training,05,1_A,13.0,01001,ignore,1.0,400.0,1.29858284273
13,1_39_1,39,1.0,71.5117112881,1_I,training,05,1_A,14.0,01011,kill,0.0,300.0,1.45792435499
14,1_39_1,39,1.0,74.8712220151,1_I,training,05,1_A,15.0,00101,ignore,1.0,400.0,1.26561740282
15,1_39_1,39,1.0,78.5276391531,1_I,training,05,1_A,16.0,01110,kill,1.0,500.0,1.60938820988
16,1_39_1,39,1.0,81.6371649542,1_I,training,05,1_A,17.0,00001,ignore,1.0,600.0,1.05253674551
17,1_39_1,39,1.0,88.9844066516,1_I,training,05,1_A,18.0,11111,ignore,1.0,700.0,5.33542200407
18,1_39_1,39,1.0,92.3127489631,1_I,training,05,1_A,19.0,00011,ignore,1.0,800.0,1.26589258522
19,1_39_1,39,1.0,96.953543246,1_I,training,05,1_A,20.0,11011,kill,0.0,700.0,2.61127150945
20,1_39_1,39,1.0,100.359987004,1_I,training,05,1_A,21.0,10110,kill,0.0,600.0,1.38987700822
21,1_39_1,39,1.0,105.828985366,1_I,training,05,1_A,22.0,01111,kill,0.0,500.0,3.42625592861
22,1_39_1,39,1.0,108.92288767,1_I,training,05,1_A,23.0,00010,ignore,0.0,400.0,1.08480428694
23,1_39_1,39,1.0,112.188665115,1_I,training,05,1_A,24.0,11000,ignore,0.0,300.0,1.23731082012
24,1_39_1,39,1.0,115.188827723,1_I,training,05,1_A,25.0,01000,ignore,0.0,200.0,0.975845849109
25,1_39_1,39,1.0,119.61088728,1_I,training,05,1_A,26.0,10000,kill,1.0,300.0,2.39811516095
26,1_39_1,39,1.0,123.532979552,1_I,training,05,1_A,27.0,11010,kill,1.0,400.0,1.88905466829
27,1_39_1,39,1.0,126.876869027,1_I,training,05,1_A,28.0,00000,ignore,0.0,300.0,1.30511569848
28,1_39_1,39,1.0,130.064504614,1_I,training,05,1_A,29.0,00110,kill,1.0,400.0,1.14437903072
29,1_39_1,39,1.0,134.408502174,1_I,training,05,1_A,30.0,10101,kill,0.0,300.0,2.3105738034
30,1_39_1,39,1.0,139.47123927,1_I,training,05,1_A,31.0,10100,kill,0.0,200.0,3.02937652265
31,1_39_1,39,1.0,143.799550471,1_I,training,05,1_A,32.0,00100,ignore,0.0,100.0,2.29458339694
32,1_39_1,39,1.0,148.737296387,1_I,training,05,1_A,33.0,10001,kill,0.0,0.0,2.89360063016
33,1_39_1,39,1.0,152.221849931,1_I,training,05,1_A,34.0,00110,ignore,0.0,0.0,1.46086380332
34,1_39_1,39,1.0,155.518859616,1_I,training,05,1_A,35.0,11011,ignore,1.0,100.0,1.2628232431
35,1_39_1,39,1.0,158.518987906,1_I,training,05,1_A,36.0,01011,ignore,1.0,200.0,0.968631451873
36,1_39_1,39,1.0,163.753629329,1_I,training,05,1_A,37.0,00100,ignore,0.0,100.0,3.18069573037
37,1_39_1,39,1.0,167.444051378,1_I,training,05,1_A,38.0,10100,kill,0.0,0.0,1.65648545254
38,1_39_1,39,1.0,170.553579103,1_I,training,05,1_A,39.0,11110,kill,0.0,0.0,1.10688655173
39,1_39_1,39,1.0,173.897489426,1_I,training,05,1_A,40.0,01101,ignore,1.0,100.0,1.26559206551
40,1_39_1,39,1.0,177.741405521,1_I,training,05,1_A,41.0,10101,ignore,1.0,200.0,1.82702829953
41,1_39_1,39,1.0,181.851024012,1_I,training,05,1_A,42.0,01111,ignore,1.0,300.0,2.06979177224
42,1_39_1,39,1.0,184.929326233,1_I,training,05,1_A,43.0,11101,ignore,1.0,400.0,1.04564114933
43,1_39_1,39,1.0,189.043370093,1_I,training,05,1_A,44.0,11100,kill,0.0,300.0,2.10490318583
44,1_39_1,39,1.0,191.99663078,1_I,training,05,1_A,45.0,10111,ignore,1.0,400.0,0.904277258131
45,1_39_1,39,1.0,195.278063473,1_I,training,05,1_A,46.0,10000,ignore,0.0,300.0,1.26512091989
46,1_39_1,39,1.0,198.465728566,1_I,training,05,1_A,47.0,10011,ignore,1.0,400.0,1.16240091189
47,1_39_1,39,1.0,201.981493182,1_I,training,05,1_A,48.0,01100,ignore,0.0,300.0,1.48848275074
48,1_39_1,39,1.0,206.684894026,1_I,training,05,1_A,49.0,00101,ignore,1.0,400.0,2.69770379855
49,1_39_1,39,1.0,209.810082773,1_I,training,05,1_A,50.0,01010,ignore,0.0,300.0,1.12230061464
50,1_39_1,39,1.0,212.638324377,1_I,training,05,1_A,51.0,01001,ignore,1.0,400.0,0.809579875382
51,1_39_1,39,1.0,215.638536697,1_I,training,05,1_A,52.0,00000,ignore,0.0,300.0,0.982717070161
52,1_39_1,39,1.0,218.607389449,1_I,training,05,1_A,53.0,11010,kill,1.0,400.0,0.956324255952
53,1_39_1,39,1.0,221.470311732,1_I,training,05,1_A,54.0,10010,kill,1.0,500.0,0.884469898636
54,1_39_1,39,1.0,224.095455578,1_I,training,05,1_A,55.0,01110,kill,1.0,600.0,0.622898126065
55,1_39_1,39,1.0,226.939279946,1_I,training,05,1_A,56.0,00010,kill,1.0,700.0,0.827206622853
56,1_39_1,39,1.0,229.773168241,1_I,training,05,1_A,57.0,11000,kill,1.0,800.0,0.856339394191
57,1_39_1,39,1.0,232.632703664,1_I,training,05,1_A,58.0,10110,kill,0.0,700.0,0.844032198263
58,1_39_1,39,1.0,235.523430274,1_I,training,05,1_A,59.0,11001,ignore,1.0,800.0,0.912203665765
59,1_39_1,39,1.0,238.32044509,1_I,training,05,1_A,60.0,00001,ignore,1.0,900.0,0.760313566811
60,1_39_1,39,1.0,241.601887726,1_I,training,05,1_A,61.0,11111,kill,0.0,800.0,1.25464538675
61,1_39_1,39,1.0,244.64888394,1_I,training,05,1_A,62.0,01000,ignore,0.0,700.0,1.0502073169
62,1_39_1,39,1.0,247.680264675,1_I,training,05,1_A,63.0,00111,ignore,1.0,800.0,1.00427077948
63,1_39_1,39,1.0,250.274163773,1_I,training,05,1_A,64.0,00011,ignore,1.0,900.0,0.610385024433
64,1_39_1,39,1.0,253.149311467,1_I,training,05,1_A,65.0,01001,ignore,1.0,1000.0,0.838896101646
65,1_39_1,39,1.0,256.071323557,1_I,training,05,1_A,66.0,00010,ignore,0.0,900.0,0.897907330884
66,1_39_1,39,1.0,259.149600761,1_I,training,05,1_A,67.0,11000,ignore,0.0,800.0,1.08416540194
67,1_39_1,39,1.0,261.93098727,1_I,training,05,1_A,68.0,00000,ignore,0.0,700.0,0.756870900328
68,1_39_1,39,1.0,265.665516438,1_I,training,05,1_A,69.0,01111,ignore,1.0,800.0,1.74937554764
69,1_39_1,39,1.0,268.556294044,1_I,training,05,1_A,70.0,00011,ignore,1.0,900.0,0.858815394306
70,1_39_1,39,1.0,271.556411429,1_I,training,05,1_A,71.0,11010,kill,1.0,1000.0,1.0062935946
71,1_39_1,39,1.0,274.619086946,1_I,training,05,1_A,72.0,00101,ignore,1.0,1100.0,1.06792515039
72,1_39_1,39,1.0,280.103716823,1_I,training,05,1_A,73.0,10100,ignore,1.0,1200.0,3.46203894119
73,1_39_1,39,1.0,286.119648857,1_I,training,05,1_A,74.0,11111,ignore,1.0,1300.0,4.01488518672
74,1_39_1,39,1.0,289.886521258,1_I,training,05,1_A,75.0,01110,kill,1.0,1400.0,1.76970889679
75,1_39_1,39,1.0,293.292910173,1_I,training,05,1_A,76.0,00111,ignore,1.0,1500.0,1.37470701734
76,1_39_1,39,1.0,297.652503326,1_I,training,05,1_A,77.0,01010,kill,1.0,1600.0,2.36601856615
77,1_39_1,39,1.0,302.543354377,1_I,training,05,1_A,78.0,00110,kill,1.0,1700.0,2.84948902029
78,1_39_1,39,1.0,305.82478226,1_I,training,05,1_A,79.0,01000,ignore,0.0,1600.0,1.25900115846
79,1_39_1,39,1.0,308.559254018,1_I,training,05,1_A,80.0,01100,kill,1.0,1700.0,0.717582359077
80,1_39_1,39,1.0,311.450005324,1_I,training,05,1_A,81.0,10001,ignore,1.0,1800.0,0.877121438185
81,1_39_1,39,1.0,315.153331439,1_I,training,05,1_A,82.0,10010,kill,1.0,1900.0,1.70418181025
82,1_39_1,39,1.0,318.403504951,1_I,training,05,1_A,83.0,11011,ignore,1.0,2000.0,1.20780023426
83,1_39_1,39,1.0,321.296371441,1_I,training,05,1_A,84.0,10011,ignore,1.0,2100.0,0.867644964677
84,1_39_1,39,1.0,324.030855067,1_I,training,05,1_A,85.0,00001,ignore,1.0,2200.0,0.726066828909
85,1_39_1,39,1.0,327.140409092,1_I,training,05,1_A,86.0,10111,ignore,1.0,2300.0,1.0864197808
86,1_39_1,39,1.0,329.828046603,1_I,training,05,1_A,87.0,11101,ignore,1.0,2400.0,0.688410138515
87,1_39_1,39,1.0,332.875033837,1_I,training,05,1_A,88.0,11100,kill,0.0,2300.0,1.04212664035
88,1_39_1,39,1.0,335.609546328,1_I,training,05,1_A,89.0,10101,ignore,1.0,2400.0,0.70912803743
89,1_39_1,39,1.0,338.234690494,1_I,training,05,1_A,90.0,11001,ignore,1.0,2500.0,0.639484440326
90,1_39_1,39,1.0,340.98483482,1_I,training,05,1_A,91.0,01101,ignore,1.0,2600.0,0.756129062465
91,1_39_1,39,1.0,344.672493178,1_I,training,05,1_A,92.0,10110,kill,0.0,2500.0,1.61348451474
92,1_39_1,39,1.0,347.906995085,1_I,training,05,1_A,93.0,00100,ignore,0.0,2400.0,1.21185741062
93,1_39_1,39,1.0,351.188398272,1_I,training,05,1_A,94.0,11110,kill,0.0,2300.0,1.27259670833
94,1_39_1,39,1.0,354.141646771,1_I,training,05,1_A,95.0,01011,ignore,1.0,2400.0,0.930465128811
95,1_39_1,39,1.0,357.094920928,1_I,training,05,1_A,96.0,10000,ignore,0.0,2300.0,0.921381543922
96,1_39_1,39,1.0,360.141942159,1_I,training,05,1_A,97.0,00000,ignore,0.0,2200.0,1.04187166365
97,1_39_1,39,1.0,363.7827621,1_I,training,05,1_A,98.0,01110,kill,1.0,2300.0,1.65456174156
98,1_39_1,39,1.0,366.770052073,1_I,training,05,1_A,99.0,10101,ignore,1.0,2400.0,0.976739069356
99,1_39_1,39,1.0,369.520180042,1_I,training,05,1_A,100.0,11001,ignore,1.0,2500.0,0.768449728857
100,1_39_1,39,1.0,372.270321482,1_I,training,05,1_A,101.0,10010,kill,1.0,2600.0,0.73456284486
101,1_39_1,39,1.0,375.286084494,1_I,training,05,1_A,102.0,01101,ignore,1.0,2700.0,1.01517255668
102,1_39_1,39,1.0,378.754984073,1_I,training,05,1_A,103.0,11010,kill,1.0,2800.0,1.50131978503
103,1_39_1,39,1.0,381.630168009,1_I,training,05,1_A,104.0,01010,kill,1.0,2900.0,0.878396000939
104,1_39_1,39,1.0,384.42714081,1_I,training,05,1_A,105.0,01100,kill,1.0,3000.0,0.82602442901
105,1_39_1,39,1.0,390.271184875,1_I,training,05,1_A,106.0,10000,kill,1.0,3100.0,3.86394411424
106,1_39_1,39,1.0,395.443295428,1_I,training,05,1_A,107.0,00001,ignore,1.0,3200.0,3.15200908807
107,1_39_1,39,1.0,398.380930373,1_I,training,05,1_A,108.0,11011,ignore,1.0,3300.0,0.958622894919
108,1_39_1,39,1.0,401.196723662,1_I,training,05,1_A,109.0,10001,ignore,1.0,3400.0,0.830290718335
109,1_39_1,39,1.0,404.946853235,1_I,training,05,1_A,110.0,00111,ignore,1.0,3500.0,1.73840834245
110,1_39_1,39,1.0,408.275145834,1_I,training,05,1_A,111.0,01011,ignore,1.0,3600.0,1.33860520371
111,1_39_1,39,1.0,412.075471498,1_I,training,05,1_A,112.0,10110,kill,0.0,3500.0,1.80205822321
112,1_39_1,39,1.0,415.138113981,1_I,training,05,1_A,113.0,01000,ignore,0.0,3400.0,1.09677119321
113,1_39_1,39,1.0,418.466373545,1_I,training,05,1_A,114.0,00101,ignore,1.0,3500.0,1.31433046006
114,1_39_1,39,1.0,421.904149289,1_I,training,05,1_A,115.0,00010,kill,1.0,3600.0,1.43468266787
115,1_39_1,39,1.0,425.044890652,1_I,training,05,1_A,116.0,10011,ignore,1.0,3700.0,1.15866895108
116,1_39_1,39,1.0,428.07631661,1_I,training,05,1_A,117.0,00100,kill,1.0,3800.0,1.02190458291
117,1_39_1,39,1.0,430.888949791,1_I,training,05,1_A,118.0,01111,ignore,1.0,3900.0,0.835494488012
118,1_39_1,39,1.0,433.904699974,1_I,training,05,1_A,119.0,10100,kill,0.0,3800.0,0.982340217812
119,1_39_1,39,1.0,436.748597789,1_I,training,05,1_A,120.0,11111,ignore,1.0,3900.0,0.836704905687
120,1_39_1,39,1.0,439.545596248,1_I,training,05,1_A,121.0,11101,ignore,1.0,4000.0,0.809046509032
121,1_39_1,39,1.0,446.389697081,1_I,training,05,1_A,122.0,11110,ignore,1.0,4100.0,4.83861707055
122,1_39_1,39,1.0,449.374192895,1_I,training,05,1_A,123.0,01001,ignore,1.0,4200.0,1.00030885857
123,1_39_1,39,1.0,454.858844901,1_I,training,05,1_A,124.0,00110,ignore,0.0,4100.0,3.45249768116
124,1_39_1,39,1.0,457.593344242,1_I,training,05,1_A,125.0,10111,ignore,1.0,4200.0,0.725212095709
125,1_39_1,39,1.0,460.499696273,1_I,training,05,1_A,126.0,11000,kill,1.0,4300.0,0.927028876831
126,1_39_1,39,1.0,463.359244204,1_I,training,05,1_A,127.0,11100,kill,0.0,4200.0,0.871999453484
127,1_39_1,39,1.0,466.203143622,1_I,training,05,1_A,128.0,00011,ignore,1.0,4300.0,0.851736984641
128,1_39_1,39,1.0,469.500124762,1_I,training,05,1_A,129.0,01000,kill,1.0,4400.0,1.30309673207
129,1_39_1,39,1.0,473.56599278,1_I,training,05,1_A,130.0,00001,ignore,1.0,4500.0,2.04780572508
130,1_39_1,39,1.0,478.347426435,1_I,training,05,1_A,131.0,00010,kill,1.0,4600.0,2.81170307755
131,1_39_1,39,1.0,483.285173955,1_I,training,05,1_A,132.0,10010,ignore,0.0,4500.0,2.93576030523
132,1_39_1,39,1.0,486.910329347,1_I,training,05,1_A,133.0,10000,kill,1.0,4600.0,1.63845298743
133,1_39_1,39,1.0,490.029527584,1_I,training,05,1_A,134.0,11000,kill,1.0,4700.0,1.13887217553
134,1_39_1,39,1.0,493.389054668,1_I,training,05,1_A,135.0,01011,ignore,1.0,4800.0,1.34671121756
135,1_39_1,39,1.0,496.92048672,1_I,training,05,1_A,136.0,10011,ignore,1.0,4900.0,1.57134632827
136,1_39_1,39,1.0,500.264368498,1_I,training,05,1_A,137.0,00100,kill,1.0,5000.0,1.32093708266
137,1_39_1,39,1.0,503.358267595,1_I,training,05,1_A,138.0,11001,ignore,1.0,5100.0,1.09767692176
138,1_39_1,39,1.0,506.592777841,1_I,training,05,1_A,139.0,00111,ignore,1.0,5200.0,1.25161838039
139,1_39_1,39,1.0,509.342939487,1_I,training,05,1_A,140.0,10111,ignore,1.0,5300.0,0.735101022088
140,1_39_1,39,1.0,512.155579083,1_I,training,05,1_A,141.0,01111,ignore,1.0,5400.0,0.832150284226
141,1_39_1,39,1.0,515.218216433,1_I,training,05,1_A,142.0,10101,ignore,1.0,5500.0,1.05981625
142,1_39_1,39,1.0,518.374601178,1_I,training,05,1_A,143.0,00000,kill,1.0,5600.0,1.15110817042
143,1_39_1,39,1.0,521.334187532,1_I,training,05,1_A,144.0,01100,kill,1.0,5700.0,0.983168651532
144,1_39_1,39,1.0,524.693706919,1_I,training,05,1_A,145.0,10100,kill,0.0,5600.0,1.37409507328
145,1_39_1,39,1.0,528.412651398,1_I,training,05,1_A,146.0,10110,ignore,1.0,5700.0,1.75001026321
146,1_39_1,39,1.0,531.272158597,1_I,training,05,1_A,147.0,00101,ignore,1.0,5800.0,0.852850863972
147,1_39_1,39,1.0,534.366034923,1_I,training,05,1_A,148.0,11110,ignore,1.0,5900.0,1.11323755618
148,1_39_1,39,1.0,537.131807557,1_I,training,05,1_A,149.0,01101,ignore,1.0,6000.0,0.787458482097
149,1_39_1,39,1.0,540.131949638,1_I,training,05,1_A,150.0,10001,ignore,1.0,6100.0,1.01849366824
150,1_39_1,39,1.0,542.882046497,1_I,training,05,1_A,151.0,11111,ignore,1.0,6200.0,0.759160558988
151,1_39_1,39,1.0,545.554090019,1_I,training,05,1_A,152.0,00011,ignore,1.0,6300.0,0.670872231982
152,1_39_1,39,1.0,548.382336433,1_I,training,05,1_A,153.0,11010,ignore,0.0,6200.0,0.858769530572
153,1_39_1,39,1.0,551.538746836,1_I,training,05,1_A,154.0,00110,kill,1.0,6300.0,1.19196249309
154,1_39_1,39,1.0,554.570138156,1_I,training,05,1_A,155.0,01001,ignore,1.0,6400.0,1.01318534208
155,1_39_1,39,1.0,559.557562833,1_I,training,05,1_A,156.0,01010,ignore,0.0,6300.0,3.00249428146
156,1_39_1,39,1.0,564.760930642,1_I,training,05,1_A,157.0,11100,ignore,1.0,6400.0,3.24765164859
157,1_39_1,39,1.0,567.854836796,1_I,training,05,1_A,158.0,01110,kill,1.0,6500.0,1.09894282492
158,1_39_1,39,1.0,570.667460034,1_I,training,05,1_A,159.0,11101,ignore,1.0,6600.0,0.861623024492
159,1_39_1,39,1.0,573.480106045,1_I,training,05,1_A,160.0,11011,ignore,1.0,6700.0,0.817112432214
160,1_39_1,39,1.0,576.823997765,1_I,training,05,1_A,161.0,11101,ignore,1.0,6800.0,1.3587711342
161,1_39_1,39,1.0,580.277302071,1_I,training,05,1_A,162.0,10011,ignore,1.0,6900.0,1.47104523126
162,1_39_1,39,1.0,583.589952892,1_I,training,05,1_A,163.0,01100,kill,1.0,7000.0,1.32130206817
163,1_39_1,39,1.0,586.261975245,1_I,training,05,1_A,164.0,11001,ignore,1.0,7100.0,0.707247945113
164,1_39_1,39,1.0,589.340238979,1_I,training,05,1_A,165.0,00000,kill,1.0,7200.0,1.09366913711
165,1_39_1,39,1.0,592.012231184,1_I,training,05,1_A,166.0,01101,ignore,1.0,7300.0,0.687782478897
166,1_39_1,39,1.0,594.934243595,1_I,training,05,1_A,167.0,01111,ignore,1.0,7400.0,0.938747862365
167,1_39_1,39,1.0,598.840647262,1_I,training,05,1_A,168.0,10000,ignore,0.0,7300.0,1.91593274003
168,1_39_1,39,1.0,602.059572499,1_I,training,05,1_A,169.0,00010,ignore,0.0,7200.0,1.25310237683
169,1_39_1,39,1.0,604.731590362,1_I,training,05,1_A,170.0,00001,ignore,1.0,7300.0,0.664574788676
170,1_39_1,39,1.0,607.731743989,1_I,training,05,1_A,171.0,10100,kill,0.0,7200.0,1.01165900988
171,1_39_1,39,1.0,610.608931497,1_I,training,05,1_A,172.0,00110,kill,1.0,7300.0,0.898604267186
172,1_39_1,39,1.0,613.499723214,1_I,training,05,1_A,173.0,11110,kill,0.0,7200.0,0.941547153692
173,1_39_1,39,1.0,616.515464096,1_I,training,05,1_A,174.0,01000,kill,1.0,7300.0,1.03043106777
174,1_39_1,39,1.0,619.296866,1_I,training,05,1_A,175.0,00011,ignore,1.0,7400.0,0.787249048408
175,1_39_1,39,1.0,622.812674876,1_I,training,05,1_A,176.0,10010,ignore,0.0,7300.0,1.52159123419
176,1_39_1,39,1.0,625.640928346,1_I,training,05,1_A,177.0,11010,kill,1.0,7400.0,0.892195852892
177,1_39_1,39,1.0,628.562908684,1_I,training,05,1_A,178.0,01011,ignore,1.0,7500.0,0.926333544157
178,1_39_1,39,1.0,631.672454691,1_I,training,05,1_A,179.0,00101,ignore,1.0,7600.0,1.11107618768
179,1_39_1,39,1.0,638.391498917,1_I,training,05,1_A,180.0,01010,kill,1.0,7700.0,4.76205670938
180,1_39_1,39,1.0,641.422930648,1_I,training,05,1_A,181.0,01001,ignore,1.0,7800.0,1.04711295821
181,1_39_1,39,1.0,644.751209776,1_I,training,05,1_A,182.0,00100,kill,1.0,7900.0,1.35592854494
182,1_39_1,39,1.0,647.595093479,1_I,training,05,1_A,183.0,10111,ignore,1.0,8000.0,0.85929872749
183,1_39_1,39,1.0,651.032731952,1_I,training,05,1_A,184.0,00111,ignore,1.0,8100.0,1.43876582299
184,1_39_1,39,1.0,654.689171541,1_I,training,05,1_A,185.0,10110,ignore,1.0,8200.0,1.68379971083
185,1_39_1,39,1.0,657.939314263,1_I,training,05,1_A,186.0,01110,kill,1.0,8300.0,1.28704987793
186,1_39_1,39,1.0,660.736357624,1_I,training,05,1_A,187.0,11111,ignore,1.0,8400.0,0.858758305185
187,1_39_1,39,1.0,664.017728738,1_I,training,05,1_A,188.0,11000,ignore,0.0,8300.0,1.30377314194
188,1_39_1,39,1.0,667.158529115,1_I,training,05,1_A,189.0,10101,ignore,1.0,8400.0,1.16100126622
189,1_39_1,39,1.0,669.861774407,1_I,training,05,1_A,190.0,10001,ignore,1.0,8500.0,0.746610573933
190,1_39_1,39,1.0,675.440128906,1_I,training,05,1_A,191.0,11100,ignore,1.0,8600.0,3.62827316311
191,1_39_1,39,1.0,678.0809017,1_I,training,05,1_A,192.0,11011,ignore,1.0,8700.0,0.655699675299
192,1_39_1,39,1.0,681.081059818,1_I,training,05,1_A,193.0,01111,ignore,1.0,8800.0,1.02018260822
193,1_39_1,39,1.0,684.474967382,1_I,training,05,1_A,194.0,11010,ignore,0.0,8700.0,1.45034433079
194,1_39_1,39,1.0,687.209475383,1_I,training,05,1_A,195.0,11111,ignore,1.0,8800.0,0.792346657978
195,1_39_1,39,1.0,690.662748257,1_I,training,05,1_A,196.0,01100,kill,1.0,8900.0,1.4465568845
196,1_39_1,39,1.0,695.037985113,1_I,training,05,1_A,197.0,10010,kill,1.0,9000.0,2.38638270495
197,1_39_1,39,1.0,698.663163597,1_I,training,05,1_A,198.0,11000,ignore,0.0,8900.0,1.67347299428
198,1_39_1,39,1.0,701.397652354,1_I,training,05,1_A,199.0,00111,ignore,1.0,9000.0,0.73972267516
199,1_39_1,39,1.0,704.444651455,1_I,training,05,1_A,200.0,10001,ignore,1.0,9100.0,1.11008867416
200,1_39_1,39,1.0,707.163565145,1_I,training,05,1_A,201.0,11011,ignore,1.0,9200.0,0.719607419276
201,1_39_1,39,1.0,710.038676597,1_I,training,05,1_A,202.0,01101,ignore,1.0,9300.0,0.881352447712
202,1_39_1,39,1.0,713.588757228,1_I,training,05,1_A,203.0,11100,kill,0.0,9200.0,1.58098284376
203,1_39_1,39,1.0,716.526409492,1_I,training,05,1_A,204.0,10011,ignore,1.0,9300.0,0.955373625853
204,1_39_1,39,1.0,719.26093385,1_I,training,05,1_A,205.0,01001,ignore,1.0,9400.0,0.781090479202
205,1_39_1,39,1.0,723.573645288,1_I,training,05,1_A,206.0,10110,ignore,1.0,9500.0,2.35666172322
206,1_39_1,39,1.0,726.917526425,1_I,training,05,1_A,207.0,11110,ignore,1.0,9600.0,1.36440884535
207,1_39_1,39,1.0,729.792689513,1_I,training,05,1_A,208.0,01000,kill,1.0,9700.0,0.933032535668
208,1_39_1,39,1.0,732.574077305,1_I,training,05,1_A,209.0,00011,ignore,1.0,9800.0,0.823190820069
209,1_39_1,39,1.0,735.855485302,1_I,training,05,1_A,210.0,10000,ignore,0.0,9700.0,1.30907024271
210,1_39_1,39,1.0,738.496200045,1_I,training,05,1_A,211.0,11101,ignore,1.0,9800.0,0.671569168284
211,1_39_1,39,1.0,741.371328496,1_I,training,05,1_A,212.0,00100,kill,1.0,9900.0,0.890566247115
212,1_39_1,39,1.0,744.496518205,1_I,training,05,1_A,213.0,10100,kill,0.0,9800.0,1.17522864514
213,1_39_1,39,1.0,747.199761893,1_I,training,05,1_A,214.0,11001,ignore,1.0,9900.0,0.759606688025
214,1_39_1,39,1.0,750.04366933,1_I,training,05,1_A,215.0,01011,ignore,1.0,10000.0,0.872023828615
215,1_39_1,39,1.0,752.996906603,1_I,training,05,1_A,216.0,00101,ignore,1.0,10100.0,0.963637115885
216,1_39_1,39,1.0,757.575236086,1_I,training,05,1_A,217.0,00010,kill,1.0,10200.0,2.5951929035
217,1_39_1,39,1.0,760.434772792,1_I,training,05,1_A,218.0,01110,kill,1.0,10300.0,0.922254879195
218,1_39_1,39,1.0,764.188785387,1_I,training,05,1_A,219.0,01010,kill,1.0,10400.0,1.77182728808
219,1_39_1,39,1.0,766.938943505,1_I,training,05,1_A,220.0,10101,ignore,1.0,10500.0,0.762717724439
220,1_39_1,39,1.0,769.579693207,1_I,training,05,1_A,221.0,00001,ignore,1.0,10600.0,0.6669763805
221,1_39_1,39,1.0,773.18924627,1_I,training,05,1_A,222.0,00000,kill,1.0,10700.0,1.59823819121
222,1_39_1,39,1.0,778.720736052,1_I,training,05,1_A,223.0,00110,kill,1.0,10800.0,3.56379484864
223,1_39_1,39,1.0,781.939637234,1_I,training,05,1_A,224.0,10111,ignore,1.0,10900.0,1.20075550076
224,1_39_1,39,1.0,785.67421836,1_I,training,05,1_A,225.0,01110,kill,1.0,11000.0,1.76734001896
225,1_39_1,39,1.0,788.58056109,1_I,training,05,1_A,226.0,00110,kill,1.0,11100.0,0.942730630431
226,1_39_1,39,1.0,791.299481195,1_I,training,05,1_A,227.0,01011,ignore,1.0,11200.0,0.74379973649
227,1_39_1,39,1.0,794.487123516,1_I,training,05,1_A,228.0,01100,kill,1.0,11300.0,1.24209957113
228,1_39_1,39,1.0,797.502902565,1_I,training,05,1_A,229.0,11010,ignore,0.0,11200.0,1.04745421003
229,1_39_1,39,1.0,800.28428747,1_I,training,05,1_A,230.0,10111,ignore,1.0,11300.0,0.811742847502
230,1_39_1,39,1.0,805.096976137,1_I,training,05,1_A,231.0,00101,ignore,1.0,11400.0,2.85936607983
231,1_39_1,39,1.0,808.119172259,1_I,training,05,1_A,232.0,00100,kill,1.0,11500.0,1.06287180092
232,1_39_1,39,1.0,811.151312472,1_I,training,05,1_A,233.0,00011,ignore,1.0,11600.0,1.05081445009
233,1_39_1,39,1.0,814.229573961,1_I,training,05,1_A,234.0,01101,ignore,1.0,11700.0,1.1196892684
234,1_39_1,39,1.0,817.339108422,1_I,training,05,1_A,235.0,00000,kill,1.0,11800.0,1.11314230073
235,1_39_1,39,1.0,820.717430656,1_I,training,05,1_A,236.0,11011,ignore,1.0,11900.0,1.46047989501
236,1_39_1,39,1.0,823.68630618,1_I,training,05,1_A,237.0,00001,ignore,1.0,12000.0,0.975785232004
237,1_39_1,39,1.0,826.967694934,1_I,training,05,1_A,238.0,00111,ignore,1.0,12100.0,1.28730742043
238,1_39_1,39,1.0,830.452258099,1_I,training,05,1_A,239.0,11000,ignore,0.0,12000.0,1.53929688011
239,1_39_1,39,1.0,833.046131538,1_I,training,05,1_A,240.0,10011,ignore,1.0,12100.0,0.619577655958
240,1_39_1,39,1.0,836.057361418,1_I,training,05,1_A,241.0,11110,kill,0.0,12000.0,1.09155138726
241,1_39_1,39,1.0,838.745013682,1_I,training,05,1_A,242.0,11001,ignore,1.0,12100.0,0.686572702674
242,1_39_1,39,1.0,843.276452469,1_I,training,05,1_A,243.0,11101,ignore,1.0,12200.0,2.56139165318
243,1_39_1,39,1.0,930.889968415,1_I,test,05,2,0.0,01010,ignore,1.0,100.0,3.71382570242
244,1_39_1,39,1.0,933.796384591,1_I,test,05,2,1.0,01000,ignore,1.0,200.0,0.946461949781
245,1_39_1,39,1.0,936.65593156,1_I,test,05,2,2.0,01001,kill,0.0,100.0,0.917285880514
246,1_39_1,39,1.0,939.546706278,1_I,test,05,2,3.0,10101,kill,1.0,200.0,0.918859038618
247,1_39_1,39,1.0,942.62496456,1_I,test,05,2,4.0,10110,ignore,0.0,100.0,1.09717562795
248,1_39_1,39,1.0,945.546967349,1_I,test,05,2,5.0,10100,kill,1.0,200.0,0.972477590916
249,1_39_1,39,1.0,949.578409343,1_I,test,05,2,6.0,10000,ignore,1.0,300.0,2.09362583918
250,1_39_1,39,1.0,952.922311648,1_I,test,05,2,7.0,01111,ignore,0.0,200.0,1.37616150705
251,1_39_1,39,1.0,955.719372328,1_I,test,05,2,8.0,10001,ignore,1.0,300.0,0.840062259213
252,1_39_1,39,1.0,958.563197658,1_I,test,05,2,9.0,11100,kill,0.0,200.0,0.893705507366
253,1_39_1,39,1.0,963.094662744,1_I,test,05,2,10.0,11111,kill,1.0,300.0,2.60354587592
254,1_39_1,39,1.0,967.620113588,1_I,test,05,2,11.0,10010,ignore,1.0,400.0,2.58549416729
255,1_39_1,39,1.0,970.870239312,1_I,test,05,2,12.0,00010,ignore,1.0,500.0,1.29634706594
256,1_39_1,39,1.0,976.307960854,1_I,test,05,2,13.0,01111,kill,1.0,600.0,3.4844736832
257,1_39_1,39,1.0,979.151865724,1_I,test,05,2,14.0,11101,ignore,1.0,700.0,0.877325098816
258,1_39_1,39,1.0,983.058289918,1_I,test,05,2,15.0,01101,kill,0.0,600.0,1.97896811091
259,1_39_1,39,1.0,991.527448001,1_I,test,05,2,16.0,10010,ignore,1.0,700.0,6.48091042396
260,1_39_1,39,1.0,1003.01236076,1_I,test,05,2,17.0,11000,ignore,1.0,800.0,9.51260162185
261,1_39_1,39,1.0,1007.65321085,1_I,test,05,2,18.0,11001,ignore,1.0,900.0,2.70963189704
262,1_39_1,39,1.0,1011.09087818,1_I,test,05,2,19.0,10101,ignore,0.0,800.0,1.47847291089
263,1_39_1,39,1.0,1020.62261172,1_I,test,05,2,20.0,00000,ignore,1.0,900.0,7.60423126611
264,1_39_1,39,1.0,1023.54459109,1_I,test,05,2,21.0,11010,ignore,1.0,1000.0,0.933429593719
265,1_39_1,39,1.0,1026.66973654,1_I,test,05,2,22.0,11110,ignore,0.0,900.0,1.19127132984
266,1_39_1,39,1.0,1031.60750716,1_I,test,05,2,23.0,01100,ignore,1.0,1000.0,3.00004105285
267,1_39_1,39,1.0,1036.79774415,1_I,test,05,2,24.0,00011,ignore,1.0,1100.0,3.22922501196
268,1_39_1,39,1.0,1039.73543746,1_I,test,05,2,25.0,01011,ignore,1.0,1200.0,1.01981601908
269,1_39_1,39,1.0,1043.40755058,1_I,test,05,2,26.0,11111,kill,1.0,1300.0,1.68931907431
270,1_39_1,39,1.0,1046.75153563,1_I,test,05,2,27.0,10011,ignore,1.0,1400.0,1.38012727667
271,1_39_1,39,1.0,1051.73606352,1_I,test,05,2,28.0,00110,kill,1.0,1500.0,3.06148819153
272,1_39_1,39,1.0,1055.12686646,1_I,test,05,2,29.0,11100,ignore,1.0,1600.0,1.47408506664
273,1_39_1,39,1.0,1059.17392425,1_I,test,05,2,30.0,00111,kill,1.0,1700.0,2.07799368299
274,1_39_1,39,1.0,1061.98968034,1_I,test,05,2,31.0,00010,ignore,1.0,1800.0,0.857275270915
275,1_39_1,39,1.0,1067.13055384,1_I,test,05,2,32.0,10111,ignore,0.0,1700.0,3.17406601555
276,1_39_1,39,1.0,1072.25581251,1_I,test,05,2,33.0,00100,ignore,0.0,1600.0,3.20598396629
277,1_39_1,39,1.0,1083.6157174,1_I,test,05,2,34.0,01110,ignore,0.0,1500.0,9.38694108787
278,1_39_1,39,1.0,1086.53774874,1_I,test,05,2,35.0,11011,ignore,1.0,1600.0,0.972256931836
279,1_39_1,39,1.0,1089.46655828,1_I,test,05,2,36.0,01010,ignore,1.0,1700.0,1.0145731209
280,1_39_1,39,1.0,1092.18548801,1_I,test,05,2,37.0,00001,ignore,1.0,1800.0,0.757377005018
281,1_39_1,39,1.0,1094.84180316,1_I,test,05,2,38.0,10001,ignore,1.0,1900.0,0.760337941942
282,1_39_1,39,1.0,1099.77957762,1_I,test,05,2,39.0,00101,ignore,0.0,1800.0,2.94423002169
283,1_39_1,39,1.0,1106.59241446,1_I,test,05,2,40.0,01001,ignore,1.0,1900.0,4.85680316312
284,1_39_1,39,1.0,1113.29582717,1_I,test,05,2,41.0,10110,kill,1.0,2000.0,4.77194210778
285,1_39_1,39,1.0,1116.95225393,1_I,test,05,2,42.0,10100,ignore,0.0,1900.0,1.68891592248
286,1_39_1,39,1.0,1119.8273997,1_I,test,05,2,43.0,01000,ignore,1.0,2000.0,0.982615400208
287,1_39_1,39,1.0,1122.65564227,1_I,test,05,2,44.0,10000,ignore,1.0,2100.0,0.895494192944
288,1_39_1,39,1.0,1126.23394,1_I,test,05,2,45.0,01110,kill,1.0,2200.0,1.63588333549
289,1_39_1,39,1.0,1129.13098233,1_I,test,05,2,46.0,00000,ignore,1.0,2300.0,0.994845942761
290,1_39_1,39,1.0,1132.17795641,1_I,test,05,2,47.0,10000,ignore,1.0,2400.0,1.1165936268
291,1_39_1,39,1.0,1134.81881965,1_I,test,05,2,48.0,11000,ignore,1.0,2500.0,0.69527141708
292,1_39_1,39,1.0,1138.25642092,1_I,test,05,2,49.0,10111,kill,1.0,2600.0,1.47507642886
293,1_39_1,39,1.0,1141.80346974,1_I,test,05,2,50.0,00011,ignore,1.0,2700.0,1.5827609454
294,1_39_1,39,1.0,1144.52233243,1_I,test,05,2,51.0,00001,ignore,1.0,2800.0,0.824608105631
295,1_39_1,39,1.0,1148.0850025,1_I,test,05,2,52.0,11100,kill,0.0,2700.0,1.64888875062
296,1_39_1,39,1.0,1153.02274296,1_I,test,05,2,53.0,00110,kill,1.0,2800.0,2.98203264215
297,1_39_1,39,1.0,1156.75729586,1_I,test,05,2,54.0,10101,kill,1.0,2900.0,1.8131517942
298,1_39_1,39,1.0,1166.9452913,1_I,test,05,2,55.0,10100,ignore,0.0,2800.0,8.21131281888
299,1_39_1,39,1.0,1175.85196983,1_I,test,05,2,56.0,00101,ignore,0.0,2700.0,6.91756683597
300,1_39_1,39,1.0,1179.19586893,1_I,test,05,2,57.0,11011,kill,0.0,2600.0,1.37633181224
301,1_39_1,39,1.0,1182.13351157,1_I,test,05,2,58.0,01011,kill,0.0,2500.0,0.984772599273
302,1_39_1,39,1.0,1186.47749438,1_I,test,05,2,59.0,10010,kill,0.0,2400.0,2.42657697474
303,1_39_1,39,1.0,1188.91515209,1_I,test,05,2,60.0,10011,ignore,1.0,2500.0,0.471660382587
304,1_39_1,39,1.0,1192.68099304,1_I,test,05,2,61.0,11111,kill,1.0,2600.0,1.86218429395
305,1_39_1,39,1.0,1195.74363585,1_I,test,05,2,62.0,01010,ignore,1.0,2700.0,1.08968219961
306,1_39_1,39,1.0,1199.13439036,1_I,test,05,2,63.0,01111,kill,1.0,2800.0,1.43769395869
307,1_39_1,39,1.0,1202.4314164,1_I,test,05,2,64.0,10110,kill,1.0,2900.0,1.38105481454
308,1_39_1,39,1.0,1205.35344068,1_I,test,05,2,65.0,10001,ignore,1.0,3000.0,0.97326240598
309,1_39_1,39,1.0,1208.22859831,1_I,test,05,2,66.0,01100,ignore,1.0,3100.0,0.96781937515
310,1_39_1,39,1.0,1210.82244866,1_I,test,05,2,67.0,00100,ignore,0.0,3000.0,0.648815304503
311,1_39_1,39,1.0,1214.38511039,1_I,test,05,2,68.0,11010,ignore,1.0,3100.0,1.62330159862
312,1_39_1,39,1.0,1217.86964822,1_I,test,05,2,69.0,00010,ignore,1.0,3200.0,1.5751632813
313,1_39_1,39,1.0,1220.93570386,1_I,test,05,2,70.0,01101,ignore,1.0,3300.0,1.16883690857
314,1_39_1,39,1.0,1226.12346196,1_I,test,05,2,71.0,11101,kill,0.0,3200.0,3.23408656763
315,1_39_1,39,1.0,1230.21740692,1_I,test,05,2,72.0,00111,kill,1.0,3300.0,2.1671922287
316,1_39_1,39,1.0,1233.74882294,1_I,test,05,2,73.0,11110,kill,1.0,3400.0,1.59195229402
317,1_39_1,39,1.0,1236.49896021,1_I,test,05,2,74.0,01001,ignore,1.0,3500.0,0.857511645539
318,1_39_1,39,1.0,1239.35844784,1_I,test,05,2,75.0,11001,ignore,1.0,3600.0,0.893951503753
319,1_39_1,39,1.0,1242.20232096,1_I,test,05,2,76.0,01000,ignore,1.0,3700.0,0.89881754958
320,1_39_1,39,1.0,1246.01501316,1_I,test,05,2,77.0,11111,kill,1.0,3800.0,1.92046330709
321,1_39_1,39,1.0,1248.76824382,1_I,test,05,2,78.0,11001,ignore,1.0,3900.0,0.819690102286
322,1_39_1,39,1.0,1252.0028397,1_I,test,05,2,79.0,01111,kill,1.0,4000.0,1.34924462753
323,1_39_1,39,1.0,1257.01862549,1_I,test,05,2,80.0,10101,kill,1.0,4100.0,3.03760697796
324,1_39_1,39,1.0,1259.76875346,1_I,test,05,2,81.0,00001,ignore,1.0,4200.0,0.793612240421
325,1_39_1,39,1.0,1262.73763892,1_I,test,05,3,0.0,11101,kill,0.0,4100.0,1.0760369373
326,1_39_1,39,1.0,1265.58155534,1_I,test,05,3,1.0,10111,kill,0.0,4000.0,0.912744729521
327,1_39_1,39,1.0,1268.40981843,1_I,test,05,3,2.0,01001,ignore,1.0,4100.0,0.943243470352
328,1_39_1,39,1.0,1271.19120077,1_I,test,05,3,3.0,00000,ignore,1.0,4200.0,0.858054954373
329,1_39_1,39,1.0,1273.84755986,1_I,test,05,3,4.0,01010,ignore,1.0,4300.0,0.703651330434
330,1_39_1,39,1.0,1277.84774908,1_I,test,05,3,5.0,10100,kill,1.0,4400.0,2.05964883134
331,1_39_1,39,1.0,1281.42602372,1_I,test,05,3,6.0,00110,kill,0.0,4300.0,1.68238210455
332,1_39_1,39,1.0,1284.08238249,1_I,test,05,3,7.0,11000,ignore,0.0,4200.0,0.718545497464
333,1_39_1,39,1.0,1286.89504967,1_I,test,05,3,8.0,10110,kill,1.0,4300.0,0.8830099566
334,1_39_1,39,1.0,1289.67642623,1_I,test,05,3,9.0,00011,ignore,1.0,4400.0,0.82296278431
335,1_39_1,39,1.0,1292.69221875,1_I,test,05,3,10.0,01100,ignore,1.0,4500.0,1.13657802672
336,1_39_1,39,1.0,1295.4423371,1_I,test,05,3,11.0,00100,ignore,1.0,4600.0,0.77731008887
337,1_39_1,39,1.0,1298.17682939,1_I,test,05,3,12.0,10010,ignore,0.0,4500.0,0.802885053297
338,1_39_1,39,1.0,1301.08323049,1_I,test,05,3,13.0,01110,kill,0.0,4400.0,1.01280656538
339,1_39_1,39,1.0,1305.77093984,1_I,test,05,3,14.0,10011,ignore,0.0,4300.0,2.73234663232
340,1_39_1,39,1.0,1321.44356003,1_I,test,05,3,15.0,01011,ignore,1.0,4400.0,13.7997451516
341,1_39_1,39,1.0,1323.97496514,1_I,test,05,3,16.0,00010,ignore,1.0,4500.0,0.556872632245
342,1_39_1,39,1.0,1327.67823288,1_I,test,05,3,17.0,10001,ignore,0.0,4400.0,1.75067640988
343,1_39_1,39,1.0,1337.33497203,1_I,test,05,3,18.0,00111,ignore,1.0,4500.0,7.73707412477
344,1_39_1,39,1.0,1342.49144369,1_I,test,05,3,19.0,01000,kill,0.0,4400.0,3.20562667819
345,1_39_1,39,1.0,1346.89788648,1_I,test,05,3,20.0,00101,ignore,1.0,4500.0,2.51721878476
346,1_39_1,39,1.0,1349.60113562,1_I,test,05,3,21.0,01101,ignore,1.0,4600.0,0.809014115766
347,1_39_1,39,1.0,1352.89821747,1_I,test,05,3,22.0,10000,ignore,0.0,4500.0,1.35325145
348,1_39_1,39,1.0,1369.71149146,1_I,test,05,3,23.0,11100,ignore,0.0,4400.0,14.9166425054
349,1_39_1,39,1.0,1377.05559839,1_I,test,05,3,24.0,11010,ignore,0.0,4300.0,5.41268988547
350,1_39_1,39,1.0,1384.71221181,1_I,test,05,3,25.0,11011,ignore,0.0,4200.0,5.78809576347
351,1_39_1,39,1.0,1390.82182036,1_I,test,05,3,26.0,11110,kill,1.0,4300.0,4.21049432765
352,1_39_1,39,1.0,1393.50948449,1_I,test,05,3,27.0,00111,kill,0.0,4200.0,0.735136943331
353,1_39_1,39,1.0,1404.44990526,1_I,test,05,3,28.0,00101,kill,0.0,4100.0,9.06026526557
354,1_39_1,39,1.0,1407.65319673,1_I,test,05,3,29.0,01111,kill,0.0,4000.0,1.3092241909
355,1_39_1,39,1.0,1410.59081532,1_I,test,05,3,30.0,10100,kill,1.0,4100.0,0.992568150941
356,1_39_1,39,1.0,1413.48159421,1_I,test,05,3,31.0,11010,kill,1.0,4200.0,0.986835825799
357,1_39_1,39,1.0,1417.49738031,1_I,test,05,3,32.0,10000,ignore,0.0,4100.0,2.06690748868
358,1_39_1,39,1.0,1422.74764299,1_I,test,05,3,33.0,01001,ignore,1.0,4200.0,3.37753934339
359,1_39_1,39,1.0,1431.04497051,1_I,test,05,3,34.0,10011,ignore,0.0,4100.0,6.32783235811
360,1_39_1,39,1.0,1436.56269444,1_I,test,05,3,35.0,11000,kill,1.0,4200.0,3.59112353958
361,1_39_1,39,1.0,1439.39091103,1_I,test,05,3,36.0,01010,ignore,1.0,4300.0,0.951892151592
362,1_39_1,39,1.0,1442.60980836,1_I,test,05,3,37.0,00011,ignore,1.0,4400.0,1.29021607912
363,1_39_1,39,1.0,1445.42244539,1_I,test,05,3,38.0,11110,kill,1.0,4500.0,0.96207903187
364,1_39_1,39,1.0,1448.53198883,1_I,test,05,3,39.0,00010,ignore,1.0,4600.0,1.15500466335
365,1_39_1,39,1.0,1451.34463869,1_I,test,05,3,40.0,11100,kill,1.0,4700.0,0.877149020569
366,1_39_1,39,1.0,1453.92284052,1_I,test,05,3,41.0,10111,kill,0.0,4600.0,0.684267328474
367,1_39_1,39,1.0,1457.68866351,1_I,test,05,3,42.0,01000,ignore,1.0,4700.0,1.83346846564
368,1_39_1,39,1.0,1460.3918809,1_I,test,05,3,43.0,00000,ignore,1.0,4800.0,0.817836950904
369,1_39_1,39,1.0,1464.59522401,1_I,test,05,3,44.0,10001,kill,1.0,4900.0,2.28216907874
370,1_39_1,39,1.0,1468.47040699,1_I,test,05,3,45.0,01101,ignore,1.0,5000.0,1.93397129892
371,1_39_1,39,1.0,1471.72057858,1_I,test,05,3,46.0,00100,ignore,1.0,5100.0,1.37007157308
372,1_39_1,39,1.0,1474.75196605,1_I,test,05,3,47.0,10010,kill,1.0,5200.0,1.13271392705
373,1_39_1,39,1.0,1477.6143989,1_I,test,05,3,48.0,11011,kill,1.0,5300.0,0.944048811842
374,1_39_1,39,1.0,1480.73958637,1_I,test,05,3,49.0,01110,ignore,1.0,5400.0,1.21994674675
375,1_39_1,39,1.0,1484.23975667,1_I,test,05,3,50.0,11111,ignore,1.0,5500.0,1.55513269693
376,1_39_1,39,1.0,1488.56806274,1_I,test,05,3,51.0,10101,ignore,1.0,5600.0,2.45482967556
377,1_39_1,39,1.0,1491.97450361,1_I,test,05,4,0.0,01100,ignore,1.0,5700.0,1.43462076787
378,1_39_1,39,1.0,1496.88099067,1_I,test,05,4,1.0,10110,ignore,0.0,5600.0,2.95252365991
379,1_39_1,39,1.0,1500.0217346,1_I,test,05,4,2.0,11101,ignore,1.0,5700.0,1.25054555391
380,1_39_1,39,1.0,1506.05328724,1_I,test,05,4,3.0,11001,kill,0.0,5600.0,4.09644309113
381,1_39_1,39,1.0,1509.06903807,1_I,test,05,4,4.0,00110,ignore,0.0,5500.0,1.14954014392
382,1_39_1,39,1.0,1512.55519909,1_I,test,05,4,5.0,00001,ignore,1.0,5600.0,1.52624271472
383,1_39_1,39,1.0,1515.78969939,1_I,test,05,4,6.0,01011,ignore,0.0,5500.0,1.29753888154
384,1_39_1,39,1.0,1518.36797499,1_I,test,05,4,7.0,11000,ignore,1.0,5600.0,0.679325591449
385,1_39_1,39,1.0,1521.13375693,1_I,test,05,4,8.0,10110,kill,1.0,5700.0,0.819880933901
386,1_39_1,39,1.0,1523.96200398,1_I,test,05,4,9.0,10001,ignore,1.0,5800.0,0.95765911508
387,1_39_1,39,1.0,1526.43083011,1_I,test,05,4,10.0,01011,kill,1.0,5900.0,0.610796194404
388,1_39_1,39,1.0,1530.41543048,1_I,test,05,4,11.0,01100,ignore,1.0,6000.0,2.05110214078
389,1_39_1,39,1.0,1533.11864627,1_I,test,05,4,12.0,10011,kill,1.0,6100.0,0.81866281882
390,1_39_1,39,1.0,1536.38853381,1_I,test,05,4,13.0,00110,kill,1.0,6200.0,1.34622467713
391,1_39_1,39,1.0,1538.82613893,1_I,test,05,4,14.0,10010,kill,1.0,6300.0,0.575594977698
392,1_39_1,39,1.0,1541.51379055,1_I,test,05,4,15.0,00000,ignore,1.0,6400.0,0.761949907825
393,1_39_1,39,1.0,1544.96708876,1_I,test,05,4,16.0,11101,ignore,1.0,6500.0,1.51578963236
394,1_39_1,39,1.0,1548.29536982,1_I,test,05,5,0.0,10111,kill,1.0,6600.0,1.45725211455
395,1_39_1,39,1.0,1551.90490524,1_I,test,05,5,1.0,11111,kill,1.0,6700.0,1.72924810419
396,1_39_1,39,1.0,1554.71752014,1_I,test,05,5,2.0,00011,kill,0.0,6600.0,0.867475942385
397,1_39_1,39,1.0,1557.81145355,1_I,test,05,5,3.0,00111,kill,1.0,6700.0,1.16196600824
398,1_39_1,39,1.0,1561.92097775,1_I,test,05,5,4.0,01010,ignore,1.0,6800.0,2.17122021904
399,1_39_1,39,1.0,1565.04612865,1_I,test,05,5,5.0,10101,ignore,0.0,6700.0,1.27040038076
400,1_39_1,39,1.0,1568.23377546,1_I,test,05,5,6.0,10000,ignore,1.0,6800.0,1.23569468481
401,1_39_1,39,1.0,1571.10895234,1_I,test,05,5,7.0,00001,ignore,1.0,6900.0,0.929896803395
402,1_39_1,39,1.0,1574.17158905,1_I,test,05,5,8.0,11100,kill,0.0,6800.0,1.18273907192
403,1_39_1,39,1.0,1577.18733507,1_I,test,05,5,9.0,01000,ignore,1.0,6900.0,1.09551876051
404,1_39_1,39,1.0,1579.87499792,1_I,test,05,5,10.0,10100,ignore,0.0,6800.0,0.815181344558
405,1_39_1,39,1.0,1583.48452757,1_I,test,05,5,11.0,01110,kill,1.0,6900.0,1.66209750565
406,1_39_1,39,1.0,1586.60032419,1_I,test,05,5,12.0,00100,ignore,0.0,6800.0,1.18734789598
407,1_39_1,39,1.0,1589.55356595,1_I,test,05,5,13.0,01001,ignore,1.0,6900.0,1.07062309248
408,1_39_1,39,1.0,1594.06940369,1_I,test,05,5,14.0,11011,kill,0.0,6800.0,2.59617817194
409,1_39_1,39,1.0,1597.64772131,1_I,test,05,5,15.0,11010,kill,0.0,6700.0,1.74387446551
410,1_39_1,39,1.0,1600.77286227,1_I,test,05,5,16.0,00010,ignore,1.0,6800.0,1.22677787713
411,1_39_1,39,1.0,1603.05420099,1_I,test,05,5,17.0,01101,ignore,1.0,6900.0,0.33821423944
412,1_39_1,39,1.0,1606.4449911,1_I,test,05,5,18.0,00101,ignore,0.0,6800.0,1.53650432402
413,1_39_1,39,1.0,1609.49203318,1_I,test,05,5,19.0,11110,ignore,0.0,6700.0,1.19011575621
414,1_39_1,39,1.0,1613.05468689,1_I,test,05,5,20.0,01111,kill,1.0,6800.0,1.6388465175
415,1_39_1,39,1.0,1616.1173252,1_I,test,05,5,21.0,11001,ignore,1.0,6900.0,1.15037274706
416,1_39_1,39,1.0,1619.55498741,1_I,test,05,5,22.0,11100,ignore,1.0,7000.0,1.49546782931
417,1_39_1,39,1.0,1622.24263871,1_I,test,05,5,23.0,10000,ignore,1.0,7100.0,0.8313962588
418,1_39_1,39,1.0,1625.55528344,1_I,test,05,5,24.0,11010,ignore,1.0,7200.0,1.36638643819
419,1_39_1,39,1.0,1628.33662729,1_I,test,05,5,25.0,11011,ignore,1.0,7300.0,0.855659135606
420,1_39_1,39,1.0,1631.38369086,1_I,test,05,5,26.0,01000,kill,0.0,7200.0,1.1758947918
421,1_39_1,39,1.0,1634.38381851,1_I,test,05,5,27.0,10110,ignore,0.0,7100.0,1.0733162237
422,1_39_1,39,1.0,1637.29022185,1_I,test,05,5,28.0,01011,kill,0.0,7000.0,1.05035196406
423,1_39_1,39,1.0,1641.02476481,1_I,test,05,5,29.0,10111,ignore,0.0,6900.0,1.76724732932
424,1_39_1,39,1.0,1644.36869983,1_I,test,05,5,30.0,01001,ignore,1.0,7000.0,1.400226817
425,1_39_1,39,1.0,1647.61880118,1_I,test,05,5,31.0,00110,kill,1.0,7100.0,1.35325626088
426,1_39_1,39,1.0,1650.55645473,1_I,test,05,5,32.0,00011,kill,0.0,7000.0,0.986625109206
427,1_39_1,39,1.0,1653.58784861,1_I,test,05,5,33.0,11110,ignore,0.0,6900.0,1.19090249563
428,1_39_1,39,1.0,1656.35357634,1_I,test,05,5,34.0,00100,kill,1.0,7000.0,0.865068256782
429,1_39_1,39,1.0,1659.16628105,1_I,test,05,5,35.0,01010,kill,0.0,6900.0,0.878571117009
430,1_39_1,39,1.0,1662.29143387,1_I,test,05,5,36.0,10101,ignore,0.0,6800.0,1.24322275149
431,1_39_1,39,1.0,1665.18217909,1_I,test,05,5,37.0,11001,ignore,1.0,6900.0,0.948586114129
432,1_39_1,39,1.0,1668.38544073,1_I,test,05,5,38.0,11101,kill,0.0,6800.0,1.33752115184
433,1_39_1,39,1.0,1675.65146931,1_I,test,05,5,39.0,01100,ignore,1.0,6900.0,5.35665562944
434,1_39_1,39,1.0,1682.55800319,1_I,test,05,5,40.0,00111,kill,1.0,7000.0,4.97933341715
435,1_39_1,39,1.0,1688.40206522,1_I,test,05,5,41.0,00001,ignore,1.0,7100.0,3.97233069868
436,1_39_1,39,1.0,1692.21474715,1_I,test,05,5,42.0,00101,ignore,0.0,7000.0,1.92479406222
437,1_39_1,39,1.0,1695.57426557,1_I,test,05,5,43.0,01101,kill,0.0,6900.0,1.41563606904
438,1_39_1,39,1.0,1699.10564374,1_I,test,05,5,44.0,01110,kill,1.0,7000.0,1.61557821017
439,1_39_1,39,1.0,1704.34032718,1_I,test,05,5,45.0,10010,ignore,1.0,7100.0,3.3023484797
440,1_39_1,39,1.0,1707.74671898,1_I,test,05,5,46.0,10001,ignore,1.0,7200.0,1.55629981667
441,1_39_1,39,1.0,1711.68444533,1_I,test,05,5,47.0,01111,kill,1.0,7300.0,1.98138702191
442,1_39_1,39,1.0,1714.91895012,1_I,test,05,5,48.0,10100,ignore,0.0,7200.0,1.30141388587
443,1_39_1,39,1.0,1717.73167215,1_I,test,05,5,49.0,00000,ignore,1.0,7300.0,0.923315197382
444,1_39_1,39,1.0,1721.26932306,1_I,test,05,5,50.0,11111,kill,1.0,7400.0,1.61497492569
445,1_39_1,39,1.0,1724.33196138,1_I,test,05,5,51.0,11000,ignore,1.0,7500.0,1.21835498657
446,1_39_1,39,1.0,1727.33210506,1_I,test,05,5,52.0,00010,kill,0.0,7400.0,1.05706282241
447,1_39_1,39,1.0,1730.2384959,1_I,test,05,5,53.0,10011,kill,0.0,7300.0,0.9751261413
448,1_39_1,39,1.0,1733.41054712,1_I,test,05,5,54.0,10010,kill,0.0,7200.0,1.28271591555
449,1_39_1,39,1.0,1736.36379883,1_I,test,05,5,55.0,01001,ignore,1.0,7300.0,1.00677179618
450,1_39_1,39,1.0,1739.22336087,1_I,test,05,5,56.0,00110,kill,1.0,7400.0,1.00170401407
451,1_39_1,39,1.0,1742.0203667,1_I,test,05,5,57.0,10000,ignore,1.0,7500.0,0.882703663836
452,1_39_1,39,1.0,1745.14551921,1_I,test,05,5,58.0,01101,ignore,1.0,7600.0,1.18345525175
453,1_39_1,39,1.0,1748.4425212,1_I,test,05,5,59.0,00100,ignore,0.0,7500.0,1.43507299069
454,1_39_1,39,1.0,1751.39578477,1_I,test,05,5,60.0,11111,kill,1.0,7600.0,1.09234197539
455,1_39_1,39,1.0,1754.23966174,1_I,test,05,5,61.0,10001,ignore,1.0,7700.0,0.897126364525
456,1_39_1,39,1.0,1757.0523379,1_I,test,05,5,62.0,11001,ignore,1.0,7800.0,0.926943563874
457,1_39_1,39,1.0,1760.19310652,1_I,test,05,5,63.0,11110,kill,1.0,7900.0,1.21913563221
458,1_39_1,39,1.0,1763.70887114,1_I,test,05,5,64.0,01000,ignore,1.0,8000.0,1.66979010447
459,1_39_1,39,1.0,1767.24028362,1_I,test,05,5,65.0,10100,ignore,0.0,7900.0,1.58607403882
460,1_39_1,39,1.0,1770.17793525,1_I,test,05,5,66.0,11000,ignore,1.0,8000.0,1.01928136983
461,1_39_1,39,1.0,1773.39685311,1_I,test,05,5,67.0,01111,kill,1.0,8100.0,1.33293189203
462,1_39_1,39,1.0,1778.11584121,1_I,test,05,5,68.0,01010,kill,0.0,8000.0,2.80024099307
463,1_39_1,39,1.0,1782.19415625,1_I,test,05,5,69.0,01100,ignore,1.0,8100.0,2.21818981299
464,1_39_1,39,1.0,1795.41352313,1_I,test,05,5,70.0,00010,ignore,1.0,8200.0,11.2801016828
465,1_39_1,39,1.0,1799.4918292,1_I,test,05,5,71.0,10011,ignore,1.0,8300.0,2.13316326334
466,1_39_1,39,1.0,1802.53884819,1_I,test,05,5,72.0,00001,ignore,1.0,8400.0,1.16057534288
467,1_39_1,39,1.0,1806.02337639,1_I,test,05,5,73.0,00111,kill,1.0,8500.0,1.55468753007
468,1_39_1,39,1.0,1810.11733707,1_I,test,05,5,74.0,01110,ignore,0.0,8400.0,2.23188574991
469,1_39_1,39,1.0,1813.68002862,1_I,test,05,5,75.0,00000,ignore,1.0,8500.0,1.61306179865
470,1_39_1,39,1.0,1818.7114998,1_I,test,05,5,76.0,11101,ignore,1.0,8600.0,3.08407495738
471,1_39_1,39,1.0,1823.00858133,1_I,test,05,5,77.0,11010,kill,0.0,8500.0,2.43377309063
472,1_39_1,39,1.0,1829.08387386,1_I,test,05,5,78.0,10101,ignore,0.0,8400.0,4.14366445451
473,1_39_1,39,1.0,1834.77159348,1_I,test,05,5,79.0,00011,kill,0.0,8300.0,3.84335899564
474,1_39_1,39,1.0,1839.55310122,1_I,test,05,5,80.0,11100,ignore,1.0,8400.0,2.89709910287
475,1_39_1,39,1.0,1844.20954177,1_I,test,05,5,81.0,11011,ignore,1.0,8500.0,2.7410892861
476,1_39_1,39,1.0,1847.47537085,1_I,test,05,5,82.0,00101,ignore,0.0,8400.0,1.40134518649
477,1_39_1,39,1.0,1850.14739353,1_I,test,05,5,83.0,01011,kill,0.0,8300.0,0.812099494149
478,1_39_1,39,1.0,1854.72571756,1_I,test,05,5,84.0,10111,kill,1.0,8400.0,2.63660849563
479,1_39_1,39,1.0,1857.507072,1_I,test,05,5,85.0,10110,kill,1.0,8500.0,0.866770667224
480,1_39_1,39,1.0,1860.92914599,1_I,test,05,5,86.0,11000,ignore,1.0,8600.0,1.47166840072
481,1_39_1,39,1.0,1863.7573847,1_I,test,05,5,87.0,00000,ignore,1.0,8700.0,0.975437244942
482,1_39_1,39,1.0,1866.83563946,1_I,test,05,5,88.0,00110,ignore,0.0,8600.0,1.12029511869
483,1_39_1,39,1.0,1869.85144865,1_I,test,05,5,89.0,11111,kill,1.0,8700.0,1.09195293547
484,1_39_1,39,1.0,1872.91406387,1_I,test,05,5,90.0,10101,ignore,0.0,8600.0,1.17798848724
485,1_39_1,39,1.0,1876.57050539,1_I,test,05,5,91.0,00010,ignore,1.0,8700.0,1.72342244796
486,1_39_1,39,1.0,1880.89881338,1_I,test,05,5,92.0,01110,kill,1.0,8800.0,2.46602042636
487,1_39_1,39,1.0,1884.21149018,1_I,test,05,5,93.0,00100,ignore,0.0,8700.0,1.34006001414
488,1_39_1,39,1.0,1887.00846843,1_I,test,05,5,94.0,01111,kill,1.0,8800.0,0.862877702271
489,1_39_1,39,1.0,1889.88361677,1_I,test,05,5,95.0,11110,kill,1.0,8900.0,1.0071483278
490,1_39_1,39,1.0,1892.71187601,1_I,test,05,5,96.0,10111,kill,1.0,9000.0,0.903622978309
491,1_39_1,39,1.0,1895.69637632,1_I,test,05,5,97.0,00101,ignore,0.0,8900.0,1.11838231238
492,1_39_1,39,1.0,1898.27460734,1_I,test,05,5,98.0,01100,kill,0.0,8800.0,0.658837652649
493,1_39_1,39,1.0,1901.80920431,1_I,test,05,5,99.0,10100,ignore,0.0,8700.0,1.60040372914
494,1_39_1,39,1.0,1907.73134501,1_I,test,05,5,100.0,01101,kill,0.0,8600.0,4.05165603355
495,1_39_1,39,1.0,1911.25390387,1_I,test,05,5,101.0,10001,ignore,1.0,8700.0,1.64945098225
496,1_39_1,39,1.0,1915.33224105,1_I,test,05,5,102.0,10010,kill,0.0,8600.0,2.1517480176
497,1_39_1,39,1.0,1918.95740606,1_I,test,05,5,103.0,11001,ignore,1.0,8700.0,1.714522318
498,1_39_1,39,1.0,1921.25439298,1_I,test,05,5,104.0,11100,ignore,1.0,8800.0,0.373292618311
499,1_39_1,39,1.0,1923.83260539,1_I,test,05,5,105.0,01010,ignore,1.0,8900.0,0.739631909866
500,1_39_1,39,1.0,1925.95773064,1_I,test,05,5,106.0,10110,ignore,0.0,8800.0,0.248882592692
501,1_39_1,39,1.0,1928.39536302,1_I,test,05,5,107.0,11101,ignore,1.0,8900.0,0.511469781894
502,1_39_1,39,1.0,1931.14549259,1_I,test,05,5,108.0,00011,ignore,1.0,9000.0,0.862490586711
503,1_39_1,39,1.0,1935.13009841,1_I,test,05,5,109.0,11011,kill,0.0,8900.0,2.05172338589
504,1_39_1,39,1.0,1937.63025813,1_I,test,05,5,110.0,10011,ignore,1.0,9000.0,0.660755269841
505,1_39_1,39,1.0,1940.50539075,1_I,test,05,5,111.0,00111,ignore,0.0,8900.0,0.922584264183
506,1_39_1,39,1.0,1943.59927895,1_I,test,05,5,112.0,11010,ignore,1.0,9000.0,1.1668994064
507,1_39_1,39,1.0,1946.20878294,1_I,test,05,5,113.0,01011,kill,0.0,8900.0,0.730289820302
508,1_39_1,39,1.0,1948.84017227,1_I,test,05,5,114.0,00001,ignore,1.0,9000.0,0.692550062027
509,1_39_1,39,1.0,1951.49655573,1_I,test,05,5,115.0,10000,ignore,1.0,9100.0,0.797385254071
510,1_39_1,39,1.0,1954.54360935,1_I,test,05,5,116.0,01001,ignore,1.0,9200.0,1.10100701362
511,1_39_1,39,1.0,1957.06028547,1_I,test,05,5,117.0,01000,ignore,1.0,9300.0,0.577230035804
512,1_39_1,39,1.0,1959.6854322,1_I,test,05,5,118.0,11010,ignore,1.0,9400.0,0.74920652535
513,1_39_1,39,1.0,1962.32617966,1_I,test,05,5,119.0,00011,ignore,1.0,9500.0,0.711379529766
514,1_39_1,39,1.0,1965.21693995,1_I,test,05,5,120.0,11001,ignore,1.0,9600.0,1.03924780912
515,1_39_1,39,1.0,1968.70147777,1_I,test,05,6,0.0,10101,ignore,1.0,9700.0,1.55010596767
516,1_39_1,39,1.0,1971.5922217,1_I,test,05,6,1.0,01001,ignore,1.0,9800.0,0.959374995989
517,1_39_1,39,1.0,1974.57673484,1_I,test,05,6,2.0,11110,ignore,0.0,9700.0,1.15758906865
518,1_39_1,39,1.0,1977.29563698,1_I,test,05,6,3.0,11100,kill,1.0,9800.0,0.850538113085
519,1_39_1,39,1.0,1980.48329726,1_I,test,05,6,4.0,11011,ignore,0.0,9700.0,1.27341199231
520,1_39_1,39,1.0,1984.92098769,1_I,test,05,6,5.0,01011,ignore,1.0,9800.0,2.53622497219
521,1_39_1,39,1.0,1988.49928671,1_I,test,05,6,6.0,10011,kill,1.0,9900.0,1.64189757827
522,1_39_1,39,1.0,1991.31191668,1_I,test,05,6,7.0,00001,ignore,1.0,10000.0,0.971512848901
523,1_39_1,39,1.0,1995.18713237,1_I,test,05,6,8.0,01101,kill,0.0,9900.0,1.9164070929
524,1_39_1,39,1.0,1998.23413019,1_I,test,05,6,9.0,00110,kill,0.0,9800.0,1.11073301149
525,1_39_1,39,1.0,2000.84362776,1_I,test,05,6,10.0,00010,ignore,1.0,9900.0,0.741575826542
526,1_39_1,39,1.0,2003.0624648,1_I,test,05,6,11.0,10010,ignore,0.0,9800.0,0.288604433965
527,1_39_1,39,1.0,2006.2970161,1_I,test,05,6,12.0,11101,kill,0.0,9700.0,1.36890733986
528,1_39_1,39,1.0,2010.29716748,1_I,test,05,6,13.0,01100,kill,0.0,9600.0,2.0407927434
529,1_39_1,39,1.0,2012.8442009,1_I,test,05,6,14.0,10100,ignore,0.0,9500.0,0.606177107133
530,1_39_1,39,1.0,2015.79745646,1_I,test,05,6,15.0,01110,ignore,1.0,9600.0,1.08925306902
531,1_39_1,39,1.0,2018.43821097,1_I,test,05,6,16.0,01010,ignore,1.0,9700.0,0.702393445397
532,1_39_1,39,1.0,2021.65711632,1_I,test,05,6,17.0,10111,ignore,1.0,9800.0,1.36601311382
533,1_39_1,39,1.0,2025.46982038,1_I,test,05,6,18.0,11000,ignore,0.0,9700.0,1.91217672483
534,1_39_1,39,1.0,2028.0637044,1_I,test,05,6,19.0,00000,ignore,1.0,9800.0,0.642960141529
535,1_39_1,39,1.0,2031.09506622,1_I,test,05,6,20.0,10000,kill,1.0,9900.0,1.16479833428
536,1_39_1,39,1.0,2034.01709819,1_I,test,05,6,21.0,01111,ignore,1.0,10000.0,1.05708848044
537,1_39_1,39,1.0,2036.76720916,1_I,test,05,6,22.0,00111,ignore,1.0,10100.0,0.798403877958
538,1_39_1,39,1.0,2040.04860048,1_I,test,05,6,23.0,10110,ignore,0.0,10000.0,1.36743617244
539,1_39_1,39,1.0,2043.00505944,1_I,test,05,6,24.0,11111,kill,0.0,9900.0,1.05760452762
540,1_39_1,39,1.0,2045.58330169,1_I,test,05,6,25.0,10001,ignore,0.0,9800.0,0.699048920887
541,1_39_1,39,1.0,2050.84918882,1_I,test,05,6,26.0,00100,kill,0.0,9700.0,3.36896474971
542,1_39_1,39,1.0,2053.80243572,1_I,test,05,6,27.0,00101,ignore,1.0,9800.0,0.999825846106
543,1_39_1,39,1.0,2057.24011588,1_I,test,05,6,28.0,01000,ignore,1.0,9900.0,1.52063002015
544,1_39_1,39,1.0,2060.53713583,1_I,test,05,6,29.0,11111,kill,0.0,9800.0,1.36370196656
545,1_39_1,39,1.0,2066.50614831,1_I,test,05,6,30.0,00101,ignore,1.0,9900.0,4.10366037489
546,1_39_1,39,1.0,2071.10015453,1_I,test,05,6,31.0,00000,ignore,1.0,10000.0,2.61624307394
547,1_39_1,39,1.0,2074.25654408,1_I,test,05,6,32.0,01010,ignore,1.0,10100.0,1.22241986034
548,1_39_1,39,1.0,2077.01294384,1_I,test,05,6,33.0,01001,ignore,1.0,10200.0,0.8796554896
549,1_39_1,39,1.0,2081.81003595,1_I,test,05,6,34.0,11010,ignore,0.0,10100.0,2.86943589533
550,1_39_1,39,1.0,2094.54498302,1_I,test,05,6,35.0,00001,ignore,1.0,10200.0,10.8840202416
551,1_39_1,39,1.0,2099.18582156,1_I,test,05,6,36.0,00010,ignore,1.0,10300.0,2.69669543787
552,1_39_1,39,1.0,2101.87349468,1_I,test,05,6,37.0,00111,ignore,1.0,10400.0,0.731633980471
553,1_39_1,39,1.0,2104.17049057,1_I,test,05,6,38.0,00011,ignore,1.0,10500.0,0.424766479835
554,1_39_1,39,1.0,2107.10810595,1_I,test,05,6,39.0,01000,ignore,1.0,10600.0,1.00892707089
555,1_39_1,39,1.0,2110.43640368,1_I,test,05,6,40.0,10001,ignore,0.0,10500.0,1.46009823178
556,1_39_1,39,1.0,2121.4681648,1_I,test,05,6,41.0,11001,kill,1.0,10600.0,9.11371415413
557,1_39_1,39,1.0,2124.28083133,1_I,test,05,6,42.0,01011,ignore,1.0,10700.0,0.871055558622
558,1_39_1,39,1.0,2129.21851567,1_I,test,05,6,43.0,10100,ignore,0.0,10600.0,3.07959185768
559,1_39_1,39,1.0,2135.78136374,1_I,test,05,6,44.0,01100,ignore,1.0,10700.0,4.68549185806
560,1_39_1,39,1.0,2139.87526572,1_I,test,05,6,45.0,11011,ignore,0.0,10600.0,2.15947621693
