,unique_id,pair_id,sbj_id,wall_time,condition,block,rule_id,rule_num,trial,stimulus,choice,correct,points,reaction_time
0,1_38_2,38,2.0,44.687855925,1_I,training,03,1_B,1.0,11111,kill,0.0,0.0,10.5212031565
1,1_38_2,38,2.0,58.454103874,1_I,training,03,1_B,2.0,01100,kill,1.0,100.0,11.6358628091
2,1_38_2,38,2.0,62.8136934994,1_I,training,03,1_B,3.0,11100,kill,1.0,200.0,2.25162511562
3,1_38_2,38,2.0,66.2669945977,1_I,training,03,1_B,4.0,01101,kill,1.0,300.0,1.34541420403
4,1_38_2,38,2.0,69.4702735659,1_I,training,03,1_B,5.0,10100,kill,1.0,400.0,1.08432351956
5,1_38_2,38,2.0,72.517290948,1_I,training,03,1_B,6.0,01111,kill,0.0,300.0,0.938347276333
6,1_38_2,38,2.0,82.7708782616,1_I,training,03,1_B,7.0,00000,ignore,0.0,200.0,8.16580220479
7,1_38_2,38,2.0,87.286749679,1_I,training,03,1_B,8.0,10000,kill,1.0,300.0,2.40339141457
8,1_38_2,38,2.0,90.3556604185,1_I,training,03,1_B,9.0,10010,kill,0.0,200.0,0.97175307223
9,1_38_2,38,2.0,99.1529244384,1_I,training,03,1_B,10.0,01000,ignore,1.0,300.0,6.69431437247
10,1_38_2,38,2.0,103.621871163,1_I,training,03,1_B,11.0,01010,ignore,1.0,400.0,2.36770558178
11,1_38_2,38,2.0,107.887722696,1_I,training,03,1_B,12.0,10001,kill,1.0,500.0,2.15267266893
12,1_38_2,38,2.0,111.981689787,1_I,training,03,1_B,13.0,00101,kill,1.0,600.0,1.97863551867
13,1_38_2,38,2.0,116.18500179,1_I,training,03,1_B,14.0,10111,kill,0.0,500.0,2.08412466981
14,1_38_2,38,2.0,122.341538879,1_I,training,03,1_B,15.0,01110,kill,0.0,400.0,4.07356959677
15,1_38_2,38,2.0,126.638628745,1_I,training,03,1_B,16.0,00111,ignore,1.0,500.0,2.22250036242
16,1_38_2,38,2.0,130.357551415,1_I,training,03,1_B,17.0,10110,ignore,1.0,600.0,1.64780534021
17,1_38_2,38,2.0,134.388970959,1_I,training,03,1_B,18.0,11010,kill,0.0,500.0,2.00936870978
18,1_38_2,38,2.0,138.061057778,1_I,training,03,1_B,19.0,00001,kill,1.0,600.0,1.62002699225
19,1_38_2,38,2.0,141.186194567,1_I,training,03,1_B,20.0,11011,ignore,1.0,700.0,1.06218544856
20,1_38_2,38,2.0,149.561600125,1_I,training,03,1_B,21.0,11101,ignore,0.0,600.0,6.32695100471
21,1_38_2,38,2.0,153.030481422,1_I,training,03,1_B,22.0,00011,ignore,1.0,700.0,1.4173525914
22,1_38_2,38,2.0,156.608794547,1_I,training,03,1_B,23.0,00010,ignore,1.0,800.0,1.55677032084
23,1_38_2,38,2.0,160.046426927,1_I,training,03,1_B,24.0,10101,kill,1.0,900.0,1.38555170543
24,1_38_2,38,2.0,164.937289203,1_I,training,03,1_B,25.0,11000,ignore,1.0,1000.0,2.85424088787
25,1_38_2,38,2.0,168.281239937,1_I,training,03,1_B,26.0,00110,ignore,1.0,1100.0,1.27728924171
26,1_38_2,38,2.0,172.35952965,1_I,training,03,1_B,27.0,01011,kill,0.0,1000.0,2.03811083757
27,1_38_2,38,2.0,175.484701398,1_I,training,03,1_B,28.0,01001,ignore,1.0,1100.0,1.07912616439
28,1_38_2,38,2.0,179.453594562,1_I,training,03,1_B,29.0,00100,ignore,0.0,1000.0,1.90317717
29,1_38_2,38,2.0,182.938175688,1_I,training,03,1_B,30.0,11001,ignore,1.0,1100.0,1.43795887787
30,1_38_2,38,2.0,186.40708553,1_I,training,03,1_B,31.0,11110,ignore,1.0,1200.0,1.45752890057
31,1_38_2,38,2.0,194.782464467,1_I,training,03,1_B,32.0,10011,ignore,1.0,1300.0,6.33014318465
32,1_38_2,38,2.0,199.11079876,1_I,training,03,1_B,33.0,01010,ignore,1.0,1400.0,2.30947467744
33,1_38_2,38,2.0,203.720390631,1_I,training,03,1_B,34.0,10111,ignore,1.0,1500.0,2.55590404152
34,1_38_2,38,2.0,211.017639897,1_I,training,03,1_B,35.0,11110,ignore,1.0,1600.0,5.27245975858
35,1_38_2,38,2.0,215.799095683,1_I,training,03,1_B,36.0,10100,kill,1.0,1700.0,2.74243472917
36,1_38_2,38,2.0,220.064965817,1_I,training,03,1_B,37.0,01110,ignore,1.0,1800.0,2.24413104583
37,1_38_2,38,2.0,224.424507013,1_I,training,03,1_B,38.0,11000,ignore,1.0,1900.0,2.32586823574
38,1_38_2,38,2.0,230.221842555,1_I,training,03,1_B,39.0,10001,kill,1.0,2000.0,3.79682398462
39,1_38_2,38,2.0,235.393944448,1_I,training,03,1_B,40.0,10000,kill,1.0,2100.0,3.12662463454
40,1_38_2,38,2.0,238.550330475,1_I,training,03,1_B,41.0,10011,ignore,1.0,2200.0,1.12424677639
41,1_38_2,38,2.0,241.456766536,1_I,training,03,1_B,42.0,11011,ignore,1.0,2300.0,0.87563327231
42,1_38_2,38,2.0,244.503752808,1_I,training,03,1_B,43.0,00000,kill,1.0,2400.0,1.00470343805
43,1_38_2,38,2.0,248.378931933,1_I,training,03,1_B,44.0,01011,ignore,1.0,2500.0,1.85744750046
44,1_38_2,38,2.0,251.379095503,1_I,training,03,1_B,45.0,00100,kill,1.0,2600.0,0.962167552083
45,1_38_2,38,2.0,254.426109036,1_I,training,03,1_B,46.0,01101,ignore,0.0,2500.0,0.99964912641
46,1_38_2,38,2.0,258.004388165,1_I,training,03,1_B,47.0,01100,ignore,0.0,2400.0,1.53994538688
47,1_38_2,38,2.0,261.34833954,1_I,training,03,1_B,48.0,00010,ignore,1.0,2500.0,1.29748499967
48,1_38_2,38,2.0,265.379728294,1_I,training,03,1_B,49.0,11001,ignore,1.0,2600.0,2.01837628274
49,1_38_2,38,2.0,269.723705648,1_I,training,03,1_B,50.0,11101,ignore,0.0,2500.0,2.3176387426
50,1_38_2,38,2.0,274.145795033,1_I,training,03,1_B,51.0,00110,ignore,1.0,2600.0,2.3880524014
51,1_38_2,38,2.0,277.208450986,1_I,training,03,1_B,52.0,00011,ignore,1.0,2700.0,1.03974846148
52,1_38_2,38,2.0,280.567953695,1_I,training,03,1_B,53.0,11111,kill,0.0,2600.0,1.32244417133
53,1_38_2,38,2.0,283.896240842,1_I,training,03,1_B,54.0,01001,ignore,1.0,2700.0,1.3055236612
54,1_38_2,38,2.0,294.021751597,1_I,training,03,1_B,55.0,11010,ignore,1.0,2800.0,8.10637018383
55,1_38_2,38,2.0,297.600012123,1_I,training,03,1_B,56.0,10110,kill,0.0,2700.0,1.54037323457
56,1_38_2,38,2.0,301.225202795,1_I,training,03,1_B,57.0,00001,kill,1.0,2800.0,1.60276009868
57,1_38_2,38,2.0,304.475371496,1_I,training,03,1_B,58.0,01000,ignore,1.0,2900.0,1.22313507799
58,1_38_2,38,2.0,309.788126553,1_I,training,03,1_B,59.0,00111,ignore,1.0,3000.0,3.30714396594
59,1_38_2,38,2.0,313.74145812,1_I,training,03,1_B,60.0,10010,kill,0.0,2900.0,1.921305532
60,1_38_2,38,2.0,317.272846874,1_I,training,03,1_B,61.0,00101,kill,1.0,3000.0,1.48754591184
61,1_38_2,38,2.0,320.413610047,1_I,training,03,1_B,62.0,01111,ignore,1.0,3100.0,1.12865193981
62,1_38_2,38,2.0,327.476466773,1_I,training,03,1_B,63.0,11100,ignore,0.0,3000.0,5.04060415686
63,1_38_2,38,2.0,330.820349514,1_I,training,03,1_B,64.0,10101,kill,1.0,3100.0,1.32800426693
64,1_38_2,38,2.0,334.758015249,1_I,training,03,1_B,65.0,00111,kill,0.0,3000.0,1.91123058489
65,1_38_2,38,2.0,337.898825247,1_I,training,03,1_B,66.0,11001,ignore,1.0,3100.0,1.11076893274
66,1_38_2,38,2.0,340.89895482,1_I,training,03,1_B,67.0,10110,kill,0.0,3000.0,0.983357238067
67,1_38_2,38,2.0,344.039738519,1_I,training,03,1_B,68.0,00001,kill,1.0,3100.0,1.12504025104
68,1_38_2,38,2.0,347.228239423,1_I,training,03,1_B,69.0,11111,ignore,1.0,3200.0,1.15637736808
69,1_38_2,38,2.0,350.306532663,1_I,training,03,1_B,70.0,00110,ignore,1.0,3300.0,1.04189796314
70,1_38_2,38,2.0,353.400415724,1_I,training,03,1_B,71.0,10100,kill,1.0,3400.0,1.05984992617
71,1_38_2,38,2.0,356.244319312,1_I,training,03,1_B,72.0,00100,kill,1.0,3500.0,0.822570857865
72,1_38_2,38,2.0,360.025719612,1_I,training,03,1_B,73.0,01101,kill,1.0,3600.0,1.74562434332
73,1_38_2,38,2.0,362.885213019,1_I,training,03,1_B,74.0,10001,kill,1.0,3700.0,0.832578131914
74,1_38_2,38,2.0,365.932251249,1_I,training,03,1_B,75.0,10111,ignore,1.0,3800.0,1.03601521778
75,1_38_2,38,2.0,372.416941421,1_I,training,03,1_B,76.0,01000,ignore,1.0,3900.0,4.4629542915
76,1_38_2,38,2.0,376.104612929,1_I,training,03,1_B,77.0,00010,ignore,1.0,4000.0,1.69564955233
77,1_38_2,38,2.0,379.386005853,1_I,training,03,1_B,78.0,11010,ignore,1.0,4100.0,1.24842780407
78,1_38_2,38,2.0,383.87066716,1_I,training,03,1_B,79.0,11110,ignore,1.0,4200.0,2.46721160051
79,1_38_2,38,2.0,386.917699937,1_I,training,03,1_B,80.0,01110,ignore,1.0,4300.0,1.04413021195
80,1_38_2,38,2.0,393.777392836,1_I,training,03,1_B,81.0,01100,ignore,0.0,4200.0,4.83947148302
81,1_38_2,38,2.0,396.949407492,1_I,training,03,1_B,82.0,10010,ignore,1.0,4300.0,1.16855627384
82,1_38_2,38,2.0,399.918312523,1_I,training,03,1_B,83.0,00011,ignore,1.0,4400.0,0.94203625993
83,1_38_2,38,2.0,403.371559739,1_I,training,03,1_B,84.0,10011,ignore,1.0,4500.0,1.42875822821
84,1_38_2,38,2.0,406.387316337,1_I,training,03,1_B,85.0,10000,kill,1.0,4600.0,1.00866792477
85,1_38_2,38,2.0,409.67502723,1_I,training,03,1_B,86.0,00101,kill,1.0,4700.0,1.27687678884
86,1_38_2,38,2.0,415.440924626,1_I,training,03,1_B,87.0,11101,kill,1.0,4800.0,3.73454841222
87,1_38_2,38,2.0,418.612932546,1_I,training,03,1_B,88.0,00000,kill,1.0,4900.0,1.13928559058
88,1_38_2,38,2.0,421.566207987,1_I,training,03,1_B,89.0,10101,kill,1.0,5000.0,0.913954826468
89,1_38_2,38,2.0,425.988306993,1_I,training,03,1_B,90.0,11000,ignore,1.0,5100.0,2.42703561207
90,1_38_2,38,2.0,429.082209939,1_I,training,03,1_B,91.0,01010,ignore,1.0,5200.0,1.0860169497
91,1_38_2,38,2.0,431.847926767,1_I,training,03,1_B,92.0,01011,ignore,1.0,5300.0,0.75928500044
92,1_38_2,38,2.0,434.426183765,1_I,training,03,1_B,93.0,01001,ignore,1.0,5400.0,0.566962332727
93,1_38_2,38,2.0,438.332587112,1_I,training,03,1_B,94.0,11100,kill,1.0,5500.0,1.88546863755
94,1_38_2,38,2.0,441.848443135,1_I,training,03,1_B,95.0,01111,ignore,1.0,5600.0,1.51886635116
95,1_38_2,38,2.0,444.864164132,1_I,training,03,1_B,96.0,11011,ignore,1.0,5700.0,0.982024303288
96,1_38_2,38,2.0,448.004915758,1_I,training,03,1_B,97.0,00010,ignore,1.0,5800.0,1.11564876976
97,1_38_2,38,2.0,451.848888302,1_I,training,03,1_B,98.0,11001,ignore,1.0,5900.0,1.83560577973
98,1_38_2,38,2.0,455.302211851,1_I,training,03,1_B,99.0,00001,kill,1.0,6000.0,1.43062356716
99,1_38_2,38,2.0,458.333587775,1_I,training,03,1_B,100.0,11011,ignore,1.0,6100.0,1.03488850944
100,1_38_2,38,2.0,461.318119189,1_I,training,03,1_B,101.0,01011,ignore,1.0,6200.0,0.966458537259
101,1_38_2,38,2.0,464.255715647,1_I,training,03,1_B,102.0,10000,kill,1.0,6300.0,0.899979216996
102,1_38_2,38,2.0,467.95902765,1_I,training,03,1_B,103.0,10111,ignore,1.0,6400.0,1.70943914107
103,1_38_2,38,2.0,471.552988006,1_I,training,03,1_B,104.0,00000,kill,1.0,6500.0,1.58977360635
104,1_38_2,38,2.0,477.287629429,1_I,training,03,1_B,105.0,11000,ignore,1.0,6600.0,3.71488377553
105,1_38_2,38,2.0,480.225238716,1_I,training,03,1_B,106.0,01001,ignore,1.0,6700.0,0.912743767341
106,1_38_2,38,2.0,484.928589527,1_I,training,03,1_B,107.0,10101,ignore,0.0,6600.0,2.66431339747
107,1_38_2,38,2.0,487.85058526,1_I,training,03,1_B,108.0,00011,ignore,1.0,6700.0,0.921693930464
108,1_38_2,38,2.0,490.60074915,1_I,training,03,1_B,109.0,10010,ignore,1.0,6800.0,0.746688510208
109,1_38_2,38,2.0,493.819639428,1_I,training,03,1_B,110.0,10100,kill,1.0,6900.0,1.20971656855
110,1_38_2,38,2.0,497.08544253,1_I,training,03,1_B,111.0,01101,kill,1.0,7000.0,1.27137089584
111,1_38_2,38,2.0,499.866791835,1_I,training,03,1_B,112.0,01000,ignore,1.0,7100.0,0.753034383048
112,1_38_2,38,2.0,503.054456929,1_I,training,03,1_B,113.0,00111,ignore,1.0,7200.0,1.17593776901
113,1_38_2,38,2.0,506.242157622,1_I,training,03,1_B,114.0,11100,kill,1.0,7300.0,1.16539456281
114,1_38_2,38,2.0,509.257901712,1_I,training,03,1_B,115.0,11010,ignore,1.0,7400.0,1.02880498998
115,1_38_2,38,2.0,512.086131128,1_I,training,03,1_B,116.0,01010,ignore,1.0,7500.0,0.833473276518
116,1_38_2,38,2.0,515.914481137,1_I,training,03,1_B,117.0,10110,ignore,1.0,7600.0,1.80527445755
117,1_38_2,38,2.0,518.883369811,1_I,training,03,1_B,118.0,10001,kill,1.0,7700.0,0.969922692351
118,1_38_2,38,2.0,522.196018707,1_I,training,03,1_B,119.0,11111,ignore,1.0,7800.0,1.29624635816
119,1_38_2,38,2.0,525.086759108,1_I,training,03,1_B,120.0,11110,ignore,1.0,7900.0,0.864837655216
120,1_38_2,38,2.0,528.762010525,1_I,training,03,1_B,121.0,01100,kill,1.0,8000.0,1.6918893677
121,1_38_2,38,2.0,531.605841308,1_I,training,03,1_B,122.0,11101,kill,1.0,8100.0,0.82878940272
122,1_38_2,38,2.0,534.840338725,1_I,training,03,1_B,123.0,00100,kill,1.0,8200.0,1.23357661424
123,1_38_2,38,2.0,538.106153053,1_I,training,03,1_B,124.0,01111,ignore,1.0,8300.0,1.25310943279
124,1_38_2,38,2.0,541.481334102,1_I,training,03,1_B,125.0,00110,ignore,1.0,8400.0,1.35183063646
125,1_38_2,38,2.0,544.997115075,1_I,training,03,1_B,126.0,00101,kill,1.0,8500.0,1.51906808744
126,1_38_2,38,2.0,547.840963818,1_I,training,03,1_B,127.0,10011,ignore,1.0,8600.0,0.839222920833
127,1_38_2,38,2.0,550.60675313,1_I,training,03,1_B,128.0,01110,ignore,1.0,8700.0,0.755059122519
128,1_38_2,38,2.0,554.231919105,1_I,training,03,1_B,129.0,01100,kill,1.0,8800.0,1.64277380007
129,1_38_2,38,2.0,560.607178412,1_I,training,03,1_B,130.0,01000,ignore,1.0,8900.0,4.3743189396
130,1_38_2,38,2.0,563.576094026,1_I,training,03,1_B,131.0,00010,ignore,1.0,9000.0,0.979145792789
131,1_38_2,38,2.0,566.826262087,1_I,training,03,1_B,132.0,01101,kill,1.0,9100.0,1.22391572363
132,1_38_2,38,2.0,570.420163429,1_I,training,03,1_B,133.0,10000,kill,1.0,9200.0,1.58045781627
133,1_38_2,38,2.0,573.373445604,1_I,training,03,1_B,134.0,00111,ignore,1.0,9300.0,0.954291498339
134,1_38_2,38,2.0,577.29551318,1_I,training,03,1_B,135.0,00100,kill,1.0,9400.0,1.88060195027
135,1_38_2,38,2.0,580.005707629,1_I,training,03,1_B,136.0,00011,ignore,1.0,9500.0,0.71405405891
136,1_38_2,38,2.0,583.365221243,1_I,training,03,1_B,137.0,11101,kill,1.0,9600.0,1.31351068593
137,1_38_2,38,2.0,586.818499249,1_I,training,03,1_B,138.0,11011,ignore,1.0,9700.0,1.45824123169
138,1_38_2,38,2.0,589.480302008,1_I,training,03,1_B,139.0,11010,ignore,1.0,9800.0,0.66921568527
139,1_38_2,38,2.0,592.371048503,1_I,training,03,1_B,140.0,10001,kill,1.0,9900.0,0.871811508398
140,1_38_2,38,2.0,595.386795799,1_I,training,03,1_B,141.0,11100,kill,1.0,10000.0,1.04360871244
141,1_38_2,38,2.0,599.887018383,1_I,training,03,1_B,142.0,10110,ignore,1.0,10100.0,2.49497711945
142,1_38_2,38,2.0,602.840294464,1_I,training,03,1_B,143.0,00110,ignore,1.0,10200.0,0.951710621015
143,1_38_2,38,2.0,605.840452582,1_I,training,03,1_B,144.0,00001,kill,1.0,10300.0,1.01614499611
144,1_38_2,38,2.0,608.543659387,1_I,training,03,1_B,145.0,11110,ignore,1.0,10400.0,0.73414205313
145,1_38_2,38,2.0,611.7313418,1_I,training,03,1_B,146.0,10101,kill,1.0,10500.0,1.16607417994
146,1_38_2,38,2.0,614.653355814,1_I,training,03,1_B,147.0,01001,ignore,1.0,10600.0,0.916633845765
147,1_38_2,38,2.0,617.887856438,1_I,training,03,1_B,148.0,10011,ignore,1.0,10700.0,1.22108852919
148,1_38_2,38,2.0,621.903700273,1_I,training,03,1_B,149.0,11000,ignore,1.0,10800.0,2.0343830462
149,1_38_2,38,2.0,625.169456871,1_I,training,03,1_B,150.0,10111,ignore,1.0,10900.0,1.24480585208
150,1_38_2,38,2.0,628.185229825,1_I,training,03,1_B,151.0,00000,kill,1.0,11000.0,0.991599880945
151,1_38_2,38,2.0,631.107235501,1_I,training,03,1_B,152.0,11111,ignore,1.0,11100.0,0.925815893355
152,1_38_2,38,2.0,633.951113751,1_I,training,03,1_B,153.0,11001,ignore,1.0,11200.0,0.829940486194
153,1_38_2,38,2.0,636.529389352,1_I,training,03,1_B,154.0,01011,ignore,1.0,11300.0,0.587002538861
154,1_38_2,38,2.0,639.279532716,1_I,training,03,1_B,155.0,10010,ignore,1.0,11400.0,0.728275344041
155,1_38_2,38,2.0,642.123444963,1_I,training,03,1_B,156.0,01111,ignore,1.0,11500.0,0.857413182839
156,1_38_2,38,2.0,644.701691698,1_I,training,03,1_B,157.0,01010,ignore,1.0,11600.0,0.58148157176
157,1_38_2,38,2.0,647.842458719,1_I,training,03,1_B,158.0,10100,kill,1.0,11700.0,1.13926955431
158,1_38_2,38,2.0,650.68929085,1_I,training,03,1_B,159.0,00101,kill,1.0,11800.0,0.852140136474
159,1_38_2,38,2.0,653.73633806,1_I,training,03,1_B,160.0,01110,ignore,1.0,11900.0,1.06442924348
160,1_38_2,38,2.0,657.283385269,1_I,training,03,1_B,161.0,11100,kill,1.0,12000.0,1.55512628242
161,1_38_2,38,2.0,660.002239305,1_I,training,03,1_B,162.0,00110,ignore,1.0,12100.0,0.731024602203
162,1_38_2,38,2.0,662.642995742,1_I,training,03,1_B,163.0,01010,ignore,1.0,12200.0,0.652167847151
163,1_38_2,38,2.0,665.658771262,1_I,training,03,1_B,164.0,00101,kill,1.0,12300.0,1.02415318871
164,1_38_2,38,2.0,668.533904203,1_I,training,03,1_B,165.0,00100,kill,1.0,12400.0,0.851886121956
165,1_38_2,38,2.0,671.830920623,1_I,training,03,1_B,166.0,10110,ignore,1.0,12500.0,1.31179384284
166,1_38_2,38,2.0,674.877929987,1_I,training,03,1_B,167.0,11111,ignore,1.0,12600.0,1.06627277311
167,1_38_2,38,2.0,677.815598608,1_I,training,03,1_B,168.0,00000,kill,1.0,12700.0,0.948951741091
168,1_38_2,38,2.0,680.865757496,1_I,training,03,1_B,169.0,01100,kill,1.0,12800.0,1.05266888437
169,1_38_2,38,2.0,684.756573267,1_I,training,03,1_B,170.0,10010,ignore,1.0,12900.0,1.8968457298
170,1_38_2,38,2.0,687.412947749,1_I,training,03,1_B,171.0,11010,ignore,1.0,13000.0,0.674124066849
171,1_38_2,38,2.0,690.100577883,1_I,training,03,1_B,172.0,00010,ignore,1.0,13100.0,0.701959824655
172,1_38_2,38,2.0,692.850697193,1_I,training,03,1_B,173.0,01011,ignore,1.0,13200.0,0.735058044884
173,1_38_2,38,2.0,695.850858518,1_I,training,03,1_B,174.0,01001,ignore,1.0,13300.0,0.999442899974
174,1_38_2,38,2.0,698.491548886,1_I,training,03,1_B,175.0,00011,ignore,1.0,13400.0,0.662487187019
175,1_38_2,38,2.0,701.210460651,1_I,training,03,1_B,176.0,10011,ignore,1.0,13500.0,0.713464565615
176,1_38_2,38,2.0,703.554320941,1_I,training,03,1_B,177.0,11011,ignore,1.0,13600.0,0.380036511378
177,1_38_2,38,2.0,706.913866306,1_I,training,03,1_B,178.0,10001,kill,1.0,13700.0,1.32989173594
178,1_38_2,38,2.0,712.19534326,1_I,training,03,1_B,179.0,11101,kill,1.0,13800.0,3.27300723685
179,1_38_2,38,2.0,715.539244281,1_I,training,03,1_B,180.0,01111,ignore,1.0,13900.0,1.34679139891
180,1_38_2,38,2.0,718.461297103,1_I,training,03,1_B,181.0,01000,ignore,1.0,14000.0,0.922077838775
181,1_38_2,38,2.0,723.274014635,1_I,training,03,1_B,182.0,01101,kill,1.0,14100.0,2.84350717078
182,1_38_2,38,2.0,726.367899621,1_I,training,03,1_B,183.0,00111,ignore,1.0,14200.0,1.09463131332
183,1_38_2,38,2.0,729.571169288,1_I,training,03,1_B,184.0,00001,kill,1.0,14300.0,1.18371407715
184,1_38_2,38,2.0,732.836982333,1_I,training,03,1_B,185.0,01110,ignore,1.0,14400.0,1.30327152741
185,1_38_2,38,2.0,735.915232276,1_I,training,03,1_B,186.0,11001,ignore,1.0,14500.0,1.10497150034
186,1_38_2,38,2.0,738.946635462,1_I,training,03,1_B,187.0,10100,kill,1.0,14600.0,1.02643033908
187,1_38_2,38,2.0,741.868626384,1_I,training,03,1_B,188.0,10111,ignore,1.0,14700.0,0.926660684068
188,1_38_2,38,2.0,744.540623721,1_I,training,03,1_B,189.0,11000,ignore,1.0,14800.0,0.68014344123
189,1_38_2,38,2.0,747.806430993,1_I,training,03,1_B,190.0,10000,kill,1.0,14900.0,1.30787971001
190,1_38_2,38,2.0,750.7752722,1_I,training,03,1_B,191.0,11110,ignore,1.0,15000.0,0.981738536953
191,1_38_2,38,2.0,753.791089414,1_I,training,03,1_B,192.0,10101,kill,1.0,15100.0,1.01229564981
192,1_38_2,38,2.0,757.322489073,1_I,training,03,1_B,193.0,01100,kill,1.0,15200.0,1.54649203382
193,1_38_2,38,2.0,760.260130433,1_I,training,03,1_B,194.0,01011,ignore,1.0,15300.0,0.937405626551
194,1_38_2,38,2.0,762.994668261,1_I,training,03,1_B,195.0,10010,ignore,1.0,15400.0,0.770866715502
195,1_38_2,38,2.0,765.96354154,1_I,training,03,1_B,196.0,11111,ignore,1.0,15500.0,0.961332703857
196,1_38_2,38,2.0,769.291835422,1_I,training,03,1_B,197.0,00100,kill,1.0,15600.0,1.32040692357
197,1_38_2,38,2.0,775.526510841,1_I,training,03,1_B,198.0,00010,ignore,1.0,15700.0,4.25003014819
198,1_38_2,38,2.0,778.761038406,1_I,training,03,1_B,199.0,11001,ignore,1.0,15800.0,1.23517927909
199,1_38_2,38,2.0,783.183085135,1_I,training,03,1_B,200.0,01101,kill,1.0,15900.0,2.43958623857
200,1_38_2,38,2.0,788.480221185,1_I,training,03,1_B,201.0,00101,kill,1.0,16000.0,3.28182622328
201,1_38_2,38,2.0,791.19908837,1_I,training,03,1_B,202.0,00110,ignore,1.0,16100.0,0.722377203863
202,1_38_2,38,2.0,793.933607917,1_I,training,03,1_B,203.0,10011,ignore,1.0,16200.0,0.772739751861
203,1_38_2,38,2.0,796.589950326,1_I,training,03,1_B,204.0,10111,ignore,1.0,16300.0,0.676493265408
204,1_38_2,38,2.0,800.121436901,1_I,training,03,1_B,205.0,00001,kill,1.0,16400.0,1.54374149276
205,1_38_2,38,2.0,802.980906896,1_I,training,03,1_B,206.0,01111,ignore,1.0,16500.0,0.863807805945
206,1_38_2,38,2.0,806.206130538,1_I,training,03,1_B,207.0,11101,kill,1.0,16600.0,1.24272626857
207,1_38_2,38,2.0,809.581280798,1_I,training,03,1_B,208.0,01000,ignore,1.0,16700.0,1.41672878048
208,1_38_2,38,2.0,812.300180376,1_I,training,03,1_B,209.0,11000,ignore,1.0,16800.0,0.775356229708
209,1_38_2,38,2.0,814.831544434,1_I,training,03,1_B,210.0,00011,ignore,1.0,16900.0,0.542572769387
210,1_38_2,38,2.0,817.33165765,1_I,training,03,1_B,211.0,11011,ignore,1.0,17000.0,0.552993779213
211,1_38_2,38,2.0,820.253689625,1_I,training,03,1_B,212.0,01001,ignore,1.0,17100.0,0.937766121904
212,1_38_2,38,2.0,824.457004835,1_I,training,03,1_B,213.0,10001,kill,1.0,17200.0,2.25997456006
213,1_38_2,38,2.0,827.300892066,1_I,training,03,1_B,214.0,00000,kill,1.0,17300.0,0.813557191112
214,1_38_2,38,2.0,830.099335072,1_I,training,03,1_B,215.0,11110,ignore,1.0,17400.0,0.810793821034
215,1_38_2,38,2.0,832.708836177,1_I,training,03,1_B,216.0,01110,ignore,1.0,17500.0,0.633136963857
216,1_38_2,38,2.0,835.709055233,1_I,training,03,1_B,217.0,10101,kill,1.0,17600.0,0.981497351448
217,1_38_2,38,2.0,838.490416404,1_I,training,03,1_B,218.0,11010,ignore,1.0,17700.0,0.829112052477
218,1_38_2,38,2.0,841.072537182,1_I,training,03,1_B,219.0,10110,ignore,1.0,17800.0,0.585674735688
219,1_38_2,38,2.0,913.779129243,1_I,test,03,2,0.0,01010,ignore,1.0,100.0,3.78174058959
220,1_38_2,38,2.0,918.607503948,1_I,test,03,2,1.0,11100,kill,0.0,0.0,2.85957807932
221,1_38_2,38,2.0,922.388895588,1_I,test,03,2,2.0,10000,kill,0.0,0.0,1.79761072403
222,1_38_2,38,2.0,927.311450025,1_I,test,03,2,3.0,10100,ignore,1.0,100.0,2.96434303249
223,1_38_2,38,2.0,931.046026982,1_I,test,03,2,4.0,00111,kill,1.0,200.0,1.75502897433
224,1_38_2,38,2.0,935.014976593,1_I,test,03,2,5.0,00111,kill,1.0,300.0,1.97785968392
225,1_38_2,38,2.0,937.733841213,1_I,test,03,2,6.0,11001,ignore,0.0,200.0,0.778037494081
226,1_38_2,38,2.0,940.812112323,1_I,test,03,2,7.0,01000,kill,0.0,100.0,1.13182423478
227,1_38_2,38,2.0,944.765419195,1_I,test,03,2,8.0,00011,kill,1.0,200.0,1.98053549596
228,1_38_2,38,2.0,948.234337054,1_I,test,03,2,9.0,11011,kill,1.0,300.0,1.49987203056
229,1_38_2,38,2.0,951.873701222,1_I,test,03,2,10.0,10100,ignore,1.0,400.0,1.63611714431
230,1_38_2,38,2.0,955.280091099,1_I,test,03,2,11.0,01110,kill,0.0,300.0,1.46668593157
231,1_38_2,38,2.0,958.139584186,1_I,test,03,2,12.0,00101,ignore,1.0,400.0,0.84444080243
232,1_38_2,38,2.0,961.342890737,1_I,test,03,2,13.0,01100,kill,0.0,300.0,1.22542890608
233,1_38_2,38,2.0,964.577390719,1_I,test,03,2,14.0,10010,kill,0.0,200.0,1.27947530607
234,1_38_2,38,2.0,967.765065434,1_I,test,03,2,15.0,00110,ignore,1.0,300.0,1.21081665668
235,1_38_2,38,2.0,971.146568302,1_I,test,03,2,16.0,01010,ignore,1.0,400.0,1.46667438546
236,1_38_2,38,2.0,974.068592901,1_I,test,03,2,17.0,11111,ignore,0.0,300.0,0.926035910979
237,1_38_2,38,2.0,977.521855512,1_I,test,03,2,18.0,11000,ignore,1.0,400.0,1.48807350513
238,1_38_2,38,2.0,980.725133197,1_I,test,03,2,19.0,10000,ignore,1.0,500.0,1.26013556421
239,1_38_2,38,2.0,983.569005674,1_I,test,03,2,20.0,00010,ignore,1.0,600.0,0.880630815554
240,1_38_2,38,2.0,986.944170367,1_I,test,03,2,21.0,01001,ignore,0.0,500.0,1.44565179741
241,1_38_2,38,2.0,989.756808359,1_I,test,03,2,22.0,11100,ignore,1.0,600.0,0.867812062614
242,1_38_2,38,2.0,993.069471047,1_I,test,03,2,23.0,11010,ignore,1.0,700.0,1.3525192339
243,1_38_2,38,2.0,996.319644239,1_I,test,03,2,24.0,10001,kill,1.0,800.0,1.29779000953
244,1_38_2,38,2.0,999.60103203,1_I,test,03,2,25.0,10011,ignore,0.0,700.0,1.33301239411
245,1_38_2,38,2.0,1003.11683064,1_I,test,03,2,26.0,00100,ignore,1.0,800.0,1.53365596171
246,1_38_2,38,2.0,1006.75766694,1_I,test,03,2,27.0,10111,ignore,0.0,700.0,1.69546802175
247,1_38_2,38,2.0,1009.46091352,1_I,test,03,2,28.0,01011,ignore,0.0,600.0,0.755258934445
248,1_38_2,38,2.0,1012.69544942,1_I,test,03,2,29.0,01111,ignore,0.0,500.0,1.30172178226
249,1_38_2,38,2.0,1016.42680373,1_I,test,03,2,30.0,11110,kill,0.0,400.0,1.80958981787
250,1_38_2,38,2.0,1019.48946609,1_I,test,03,2,31.0,00001,ignore,0.0,300.0,1.09565859679
251,1_38_2,38,2.0,1023.78654538,1_I,test,03,2,32.0,11101,ignore,1.0,400.0,2.3311576391
252,1_38_2,38,2.0,1026.59915579,1_I,test,03,2,33.0,01101,ignore,1.0,500.0,0.827085067922
253,1_38_2,38,2.0,1032.4588118,1_I,test,03,2,34.0,10101,kill,0.0,400.0,3.92187481959
254,1_38_2,38,2.0,1035.30270513,1_I,test,03,2,35.0,00000,ignore,1.0,500.0,0.815736840959
255,1_38_2,38,2.0,1038.99040101,1_I,test,03,2,36.0,10110,ignore,1.0,600.0,1.70932496283
256,1_38_2,38,2.0,1042.31867212,1_I,test,03,2,37.0,01000,ignore,1.0,700.0,1.3848570142
257,1_38_2,38,2.0,1044.91261708,1_I,test,03,2,38.0,11001,ignore,0.0,600.0,0.615595850068
258,1_38_2,38,2.0,1047.93154629,1_I,test,03,2,39.0,00111,ignore,0.0,500.0,1.08696308964
259,1_38_2,38,2.0,1050.96292927,1_I,test,03,2,40.0,10110,kill,0.0,400.0,1.02479945041
260,1_38_2,38,2.0,1054.04118563,1_I,test,03,2,41.0,10101,ignore,1.0,500.0,1.1024801054
261,1_38_2,38,2.0,1057.55699868,1_I,test,03,2,42.0,00010,ignore,1.0,600.0,1.55395050309
262,1_38_2,38,2.0,1060.91653506,1_I,test,03,2,43.0,01101,ignore,1.0,700.0,1.38571976554
263,1_38_2,38,2.0,1063.85424025,1_I,test,03,2,44.0,11101,ignore,1.0,800.0,1.01040625646
264,1_38_2,38,2.0,1067.47934015,1_I,test,03,2,45.0,11111,kill,1.0,900.0,1.64913250193
265,1_38_2,38,2.0,1071.07324406,1_I,test,03,2,46.0,00001,ignore,0.0,800.0,1.6286051139
266,1_38_2,38,2.0,1074.46405149,1_I,test,03,2,47.0,10011,kill,1.0,900.0,1.40201806839
267,1_38_2,38,2.0,1077.3391777,1_I,test,03,2,48.0,10010,kill,0.0,800.0,0.928972793507
268,1_38_2,38,2.0,1080.85500678,1_I,test,03,2,49.0,10111,ignore,0.0,700.0,1.51395155507
269,1_38_2,38,2.0,1083.6675941,1_I,test,03,2,50.0,11100,ignore,1.0,800.0,0.859829207307
270,1_38_2,38,2.0,1086.85524636,1_I,test,03,2,51.0,00011,ignore,0.0,700.0,1.19994951782
271,1_38_2,38,2.0,1088.79285661,1_I,test,03,2,52.0,00110,ignore,1.0,800.0,0.000248882912274
272,1_38_2,38,2.0,1091.73048418,1_I,test,03,2,53.0,00000,ignore,1.0,900.0,0.917837528206
273,1_38_2,38,2.0,1094.82441439,1_I,test,03,2,54.0,01010,ignore,1.0,1000.0,1.13609565571
274,1_38_2,38,2.0,1097.38698952,1_I,test,03,2,55.0,01111,ignore,0.0,900.0,0.626971659422
275,1_38_2,38,2.0,1100.4340239,1_I,test,03,2,56.0,01001,ignore,0.0,800.0,1.06474098858
276,1_38_2,38,2.0,1103.54350512,1_I,test,03,2,57.0,11110,ignore,1.0,900.0,1.18295363722
277,1_38_2,38,2.0,1107.24683604,1_I,test,03,2,58.0,00101,ignore,1.0,1000.0,1.69228995372
278,1_38_2,38,2.0,1111.70019936,1_I,test,03,2,59.0,10001,ignore,0.0,900.0,2.47047337787
279,1_38_2,38,2.0,1116.01289958,1_I,test,03,2,60.0,01100,ignore,1.0,1000.0,2.38674063449
280,1_38_2,38,2.0,1119.23181391,1_I,test,03,2,61.0,11000,kill,0.0,900.0,1.25748476875
281,1_38_2,38,2.0,1124.66953545,1_I,test,03,2,62.0,11010,ignore,1.0,1000.0,3.54458500057
282,1_38_2,38,2.0,1127.74779309,1_I,test,03,2,63.0,01110,ignore,1.0,1100.0,1.145359809
283,1_38_2,38,2.0,1131.24799707,1_I,test,03,2,64.0,10100,ignore,1.0,1200.0,1.52213710883
284,1_38_2,38,2.0,1134.84192343,1_I,test,03,2,65.0,10000,ignore,1.0,1300.0,1.66930869563
285,1_38_2,38,2.0,1140.70156982,1_I,test,03,2,66.0,00100,kill,0.0,1200.0,3.92241363827
286,1_38_2,38,2.0,1144.84237405,1_I,test,03,2,67.0,11011,kill,1.0,1300.0,2.1780914401
287,1_38_2,38,2.0,1148.12379969,1_I,test,03,2,68.0,01011,kill,1.0,1400.0,1.32999404734
288,1_38_2,38,2.0,1151.74894898,1_I,test,03,2,69.0,00000,ignore,1.0,1500.0,1.65913945526
289,1_38_2,38,2.0,1154.54598817,1_I,test,03,2,70.0,11100,ignore,1.0,1600.0,0.889702533605
290,1_38_2,38,2.0,1158.03049906,1_I,test,03,2,71.0,10000,ignore,1.0,1700.0,1.48398714276
291,1_38_2,38,2.0,1160.93689054,1_I,test,03,2,72.0,01011,kill,1.0,1800.0,0.942867900903
292,1_38_2,38,2.0,1164.60896902,1_I,test,03,2,73.0,10111,kill,1.0,1900.0,1.72932828554
293,1_38_2,38,2.0,1167.6559585,1_I,test,03,2,74.0,00110,kill,0.0,1800.0,1.09097344009
294,1_38_2,38,2.0,1170.53110844,1_I,test,03,2,75.0,11000,ignore,1.0,1900.0,0.960245765462
295,1_38_2,38,2.0,1173.92191267,1_I,test,03,2,76.0,00100,ignore,1.0,2000.0,1.39117562538
296,1_38_2,38,2.0,1176.71889445,1_I,test,03,2,77.0,10100,ignore,1.0,2100.0,0.822593629367
297,1_38_2,38,2.0,1179.35966981,1_I,test,03,2,78.0,10101,ignore,1.0,2200.0,0.709644405328
298,1_38_2,38,2.0,1182.40667853,1_I,test,03,2,79.0,01100,ignore,1.0,2300.0,1.0726609817
299,1_38_2,38,2.0,1184.85995429,1_I,test,03,2,80.0,11101,ignore,1.0,2400.0,0.534819874199
300,1_38_2,38,2.0,1188.07882981,1_I,test,03,2,81.0,10011,kill,1.0,2500.0,1.29013557704
301,1_38_2,38,2.0,1191.37589787,1_I,test,03,2,82.0,11011,ignore,0.0,2400.0,1.34145228312
302,1_38_2,38,2.0,1194.71980242,1_I,test,03,2,83.0,10110,kill,0.0,2300.0,1.39993720196
303,1_38_2,38,2.0,1198.26682942,1_I,test,03,2,84.0,00001,ignore,0.0,2200.0,1.57389705741
304,1_38_2,38,2.0,1200.8763068,1_I,test,03,2,85.0,11001,ignore,0.0,2100.0,0.70379661904
305,1_38_2,38,2.0,1204.53278038,1_I,test,03,2,86.0,10010,ignore,1.0,2200.0,1.72430861225
306,1_38_2,38,2.0,1208.03292567,1_I,test,03,2,87.0,01111,kill,1.0,2300.0,1.5339689897
307,1_38_2,38,2.0,1211.42371963,1_I,test,03,2,88.0,01001,kill,1.0,2400.0,1.4728233329
308,1_38_2,38,2.0,1214.59578721,1_I,test,03,2,89.0,00011,ignore,0.0,2300.0,1.2460711138
309,1_38_2,38,2.0,1217.45526586,1_I,test,03,2,90.0,00010,kill,0.0,2200.0,0.88332458822
310,1_38_2,38,2.0,1221.23669374,1_I,test,03,2,91.0,10001,ignore,0.0,2100.0,1.83983069548
311,1_38_2,38,2.0,1225.34622404,1_I,test,03,2,92.0,11010,ignore,1.0,2200.0,2.16530379752
312,1_38_2,38,2.0,1228.75265913,1_I,test,03,2,93.0,01000,ignore,1.0,2300.0,1.51139312852
313,1_38_2,38,2.0,1233.12788027,1_I,test,03,2,94.0,01110,ignore,1.0,2400.0,2.40960097911
314,1_38_2,38,2.0,1236.78427304,1_I,test,03,2,95.0,11110,ignore,1.0,2500.0,1.70401791957
315,1_38_2,38,2.0,1240.01882402,1_I,test,03,2,96.0,00101,kill,0.0,2400.0,1.30756090896
316,1_38_2,38,2.0,1242.8627244,1_I,test,03,2,97.0,01010,ignore,1.0,2500.0,0.894655496017
317,1_38_2,38,2.0,1245.50343721,1_I,test,03,2,98.0,11111,ignore,0.0,2400.0,0.732739200215
318,1_38_2,38,2.0,1248.37860223,1_I,test,03,2,99.0,01101,ignore,1.0,2500.0,0.894019818264
319,1_38_2,38,2.0,1251.42562378,1_I,test,03,2,100.0,00111,ignore,0.0,2400.0,1.07284668171
320,1_38_2,38,2.0,1254.73825536,1_I,test,03,2,101.0,00001,ignore,0.0,2300.0,1.39026284088
321,1_38_2,38,2.0,1257.70714307,1_I,test,03,2,102.0,11110,ignore,1.0,2400.0,1.0140554701
322,1_38_2,38,2.0,1261.1760837,1_I,test,03,2,103.0,10010,ignore,1.0,2500.0,1.57510619218
323,1_38_2,38,2.0,1264.31683084,1_I,test,03,2,104.0,10101,ignore,1.0,2600.0,1.20825085345
324,1_38_2,38,2.0,1267.94265718,1_I,test,03,2,105.0,11101,ignore,1.0,2700.0,1.6627684632
325,1_38_2,38,2.0,1270.5365534,1_I,test,03,2,106.0,01001,ignore,0.0,2600.0,0.685310648212
326,1_38_2,38,2.0,1273.23981569,1_I,test,03,2,107.0,11011,ignore,0.0,2500.0,0.787277272244
327,1_38_2,38,2.0,1276.55244758,1_I,test,03,2,108.0,00101,ignore,1.0,2600.0,1.33862316433
328,1_38_2,38,2.0,1279.833862,1_I,test,03,2,109.0,01010,kill,0.0,2500.0,1.35748887404
329,1_38_2,38,2.0,1283.4121376,1_I,test,03,2,110.0,10001,ignore,0.0,2400.0,1.62198886955
330,1_38_2,38,2.0,1286.03727406,1_I,test,03,2,111.0,01000,ignore,1.0,2500.0,0.726406797839
331,1_38_2,38,2.0,1288.84990949,1_I,test,03,2,112.0,01011,ignore,0.0,2400.0,0.840234809482
332,1_38_2,38,2.0,1291.94381468,1_I,test,03,2,113.0,00011,ignore,0.0,2300.0,1.13441858257
333,1_38_2,38,2.0,1296.44401097,1_I,test,03,2,114.0,01111,ignore,0.0,2200.0,2.56923210641
334,1_38_2,38,2.0,1299.16288585,1_I,test,03,2,115.0,00111,kill,1.0,2300.0,0.752158802694
335,1_38_2,38,2.0,1301.6317572,1_I,test,03,2,116.0,11100,kill,0.0,2200.0,0.564044052277
336,1_38_2,38,2.0,1305.17883071,1_I,test,03,2,117.0,10100,ignore,1.0,2300.0,1.55504385599
337,1_38_2,38,2.0,1310.17905362,1_I,test,03,2,118.0,00010,ignore,1.0,2400.0,3.02831909099
338,1_38_2,38,2.0,1313.19480508,1_I,test,03,2,119.0,10011,ignore,0.0,2300.0,1.08958213329
339,1_38_2,38,2.0,1316.42934965,1_I,test,03,2,120.0,00000,ignore,1.0,2400.0,1.26903120401
340,1_38_2,38,2.0,1319.47635324,1_I,test,03,2,121.0,00110,ignore,1.0,2500.0,1.13909058953
341,1_38_2,38,2.0,1323.19526564,1_I,test,03,2,122.0,01100,ignore,1.0,2600.0,1.7985167733
342,1_38_2,38,2.0,1326.46106009,1_I,test,03,2,123.0,10000,ignore,1.0,2700.0,1.30935600905
343,1_38_2,38,2.0,1330.2893947,1_I,test,03,2,124.0,11000,ignore,1.0,2800.0,1.91396829694
344,1_38_2,38,2.0,1333.2738748,1_I,test,03,3,0.0,11001,ignore,0.0,2700.0,1.04408402749
345,1_38_2,38,2.0,1337.14905104,1_I,test,03,3,1.0,00100,ignore,1.0,2800.0,1.95561641498
346,1_38_2,38,2.0,1340.14922968,1_I,test,03,3,2.0,11111,kill,1.0,2900.0,1.06909098723
347,1_38_2,38,2.0,1342.5555939,1_I,test,03,3,3.0,11010,ignore,0.0,2800.0,0.44976670434
348,1_38_2,38,2.0,1346.04009998,1_I,test,03,3,4.0,10110,ignore,0.0,2700.0,1.56940818466
349,1_38_2,38,2.0,1350.39971269,1_I,test,03,3,5.0,01110,kill,0.0,2600.0,2.45890096384
350,1_38_2,38,2.0,1353.30610963,1_I,test,03,3,6.0,01101,ignore,1.0,2700.0,0.951407214779
351,1_38_2,38,2.0,1357.650061,1_I,test,03,3,7.0,10111,ignore,1.0,2800.0,2.40957371745
352,1_38_2,38,2.0,1361.75959097,1_I,test,03,3,8.0,10001,kill,0.0,2700.0,2.15928057443
353,1_38_2,38,2.0,1364.83789544,1_I,test,03,3,9.0,00001,ignore,1.0,2800.0,1.16992031898
354,1_38_2,38,2.0,1367.2880066,1_I,test,03,3,10.0,10101,ignore,1.0,2900.0,0.456963140954
355,1_38_2,38,2.0,1370.72568773,1_I,test,03,3,11.0,01100,ignore,1.0,3000.0,1.47801459429
356,1_38_2,38,2.0,1376.72597029,1_I,test,03,3,12.0,11111,kill,1.0,3100.0,4.09200681734
357,1_38_2,38,2.0,1380.53865511,1_I,test,03,3,13.0,10010,kill,1.0,3200.0,1.83682325336
358,1_38_2,38,2.0,1383.36690762,1_I,test,03,3,14.0,11001,ignore,0.0,3100.0,0.923653562681
359,1_38_2,38,2.0,1387.88287718,1_I,test,03,3,15.0,10000,ignore,0.0,3000.0,2.51678965417
360,1_38_2,38,2.0,1390.88304909,1_I,test,03,3,16.0,01110,ignore,1.0,3100.0,1.07106408992
361,1_38_2,38,2.0,1393.39875597,1_I,test,03,3,17.0,01011,ignore,1.0,3200.0,0.589163265908
362,1_38_2,38,2.0,1397.44581152,1_I,test,03,3,18.0,00100,ignore,1.0,3300.0,2.07638171711
363,1_38_2,38,2.0,1400.36781495,1_I,test,03,3,19.0,10110,kill,1.0,3400.0,1.01829289414
364,1_38_2,38,2.0,1403.21174355,1_I,test,03,3,20.0,00101,ignore,1.0,3500.0,0.897157154166
365,1_38_2,38,2.0,1405.96186286,1_I,test,03,3,21.0,11010,kill,1.0,3600.0,0.821605153673
366,1_38_2,38,2.0,1408.66509084,1_I,test,03,3,22.0,00000,ignore,1.0,3700.0,0.798998502854
367,1_38_2,38,2.0,1411.33709138,1_I,test,03,3,23.0,10111,kill,0.0,3600.0,0.759789180778
368,1_38_2,38,2.0,1414.55600828,1_I,test,03,3,24.0,00111,ignore,1.0,3700.0,1.25707840966
369,1_38_2,38,2.0,1417.63428163,1_I,test,03,3,25.0,01000,ignore,1.0,3800.0,1.15967346305
370,1_38_2,38,2.0,1420.54066413,1_I,test,03,3,26.0,11100,ignore,0.0,3700.0,0.969058658109
371,1_38_2,38,2.0,1424.21273941,1_I,test,03,3,27.0,10100,kill,1.0,3800.0,1.77204313628
372,1_38_2,38,2.0,1427.55665486,1_I,test,03,3,28.0,01111,ignore,1.0,3900.0,1.35470177027
373,1_38_2,38,2.0,1431.93184329,1_I,test,03,3,29.0,10011,ignore,1.0,4000.0,2.42754460328
374,1_38_2,38,2.0,1435.0257225,1_I,test,03,3,30.0,01001,ignore,1.0,4100.0,1.1703965962
375,1_38_2,38,2.0,1438.30713178,1_I,test,03,3,31.0,11011,ignore,0.0,4000.0,1.33103961215
376,1_38_2,38,2.0,1441.29165582,1_I,test,03,3,32.0,11101,ignore,0.0,3900.0,1.09531317553
377,1_38_2,38,2.0,1443.90116654,1_I,test,03,3,33.0,00010,ignore,1.0,4000.0,0.617936504066
378,1_38_2,38,2.0,1446.79192555,1_I,test,03,3,34.0,01010,ignore,1.0,4100.0,0.945121959041
379,1_38_2,38,2.0,1450.21394662,1_I,test,03,3,35.0,11110,kill,1.0,4200.0,1.51664468629
380,1_38_2,38,2.0,1453.43286351,1_I,test,03,3,36.0,01101,ignore,1.0,4300.0,1.26342941411
381,1_38_2,38,2.0,1456.245506,1_I,test,03,3,37.0,00110,ignore,1.0,4400.0,0.918627474875
382,1_38_2,38,2.0,1459.13625441,1_I,test,03,3,38.0,00011,ignore,1.0,4500.0,0.946449120762
383,1_38_2,38,2.0,1462.26140403,1_I,test,03,3,39.0,11000,kill,1.0,4600.0,1.16308630207
384,1_38_2,38,2.0,1465.08965622,1_I,test,03,3,40.0,00000,ignore,1.0,4700.0,0.909185318986
385,1_38_2,38,2.0,1468.40231025,1_I,test,03,3,41.0,10111,kill,0.0,4600.0,1.36027565707
386,1_38_2,38,2.0,1471.38681953,1_I,test,03,3,42.0,10010,ignore,0.0,4500.0,1.0914205313
387,1_38_2,38,2.0,1474.04322096,1_I,test,03,3,43.0,01110,ignore,1.0,4600.0,0.729021030606
388,1_38_2,38,2.0,1476.68396104,1_I,test,03,3,44.0,00010,ignore,1.0,4700.0,0.674836397975
389,1_38_2,38,2.0,1479.46537288,1_I,test,03,3,45.0,01001,ignore,1.0,4800.0,0.889993110821
390,1_38_2,38,2.0,1481.98106662,1_I,test,03,3,46.0,00101,ignore,1.0,4900.0,0.591145990355
391,1_38_2,38,2.0,1484.871833,1_I,test,03,3,47.0,01000,ignore,1.0,5000.0,0.935769926989
392,1_38_2,38,2.0,1487.48135559,1_I,test,03,3,48.0,01011,ignore,1.0,5100.0,0.690688571784
393,1_38_2,38,2.0,1490.48148548,1_I,test,03,3,49.0,01101,ignore,1.0,5200.0,1.04697312193
394,1_38_2,38,2.0,1493.63787215,1_I,test,03,3,50.0,10101,kill,0.0,5100.0,1.23776432584
395,1_38_2,38,2.0,1496.5599083,1_I,test,03,3,51.0,11000,ignore,0.0,5000.0,0.95523699683
396,1_38_2,38,2.0,1499.09127717,1_I,test,03,3,52.0,11011,ignore,0.0,4900.0,0.580774051519
397,1_38_2,38,2.0,1502.21643192,1_I,test,03,3,53.0,11100,kill,1.0,5000.0,1.22334066298
398,1_38_2,38,2.0,1504.56030824,1_I,test,03,3,54.0,01010,kill,0.0,4900.0,0.406193592418
399,1_38_2,38,2.0,1507.16979331,1_I,test,03,3,55.0,11111,ignore,0.0,4800.0,0.720803404307
400,1_38_2,38,2.0,1509.99806186,1_I,test,03,3,56.0,11110,ignore,0.0,4700.0,0.867448360004
401,1_38_2,38,2.0,1512.85756424,1_I,test,03,3,57.0,11001,ignore,0.0,4600.0,0.912464415516
402,1_38_2,38,2.0,1515.52956543,1_I,test,03,3,58.0,10110,kill,1.0,4700.0,0.757376684291
403,1_38_2,38,2.0,1518.10779292,1_I,test,03,3,59.0,00100,ignore,1.0,4800.0,0.622437885111
404,1_38_2,38,2.0,1520.76414752,1_I,test,03,3,60.0,11010,kill,1.0,4900.0,0.792937754894
405,1_38_2,38,2.0,1523.23302497,1_I,test,03,3,61.0,10100,kill,1.0,5000.0,0.538166323062
406,1_38_2,38,2.0,1525.88943441,1_I,test,03,3,62.0,00110,ignore,1.0,5100.0,0.684038651259
407,1_38_2,38,2.0,1528.54580696,1_I,test,03,3,63.0,10011,kill,0.0,5000.0,0.762751079881
408,1_38_2,38,2.0,1532.90540012,1_I,test,03,3,64.0,00011,ignore,1.0,5100.0,2.46167844584
409,1_38_2,38,2.0,1535.40548479,1_I,test,03,3,65.0,00111,ignore,1.0,5200.0,0.55404768289
410,1_38_2,38,2.0,1538.29627619,1_I,test,03,3,66.0,11101,ignore,0.0,5100.0,0.948951099639
411,1_38_2,38,2.0,1540.59325027,1_I,test,03,3,67.0,01111,ignore,1.0,5200.0,0.358323722259
412,1_38_2,38,2.0,1543.24961513,1_I,test,03,3,68.0,10001,kill,0.0,5100.0,0.771079997896
413,1_38_2,38,2.0,1546.34351262,1_I,test,03,3,69.0,10000,ignore,0.0,5000.0,1.1147440034
414,1_38_2,38,2.0,1549.36606026,1_I,test,03,3,70.0,01100,ignore,1.0,5100.0,1.06981775099
415,1_38_2,38,2.0,1551.99116883,1_I,test,03,3,71.0,00001,kill,0.0,5000.0,0.699843999166
416,1_38_2,38,2.0,1554.53817755,1_I,test,03,3,72.0,11011,ignore,0.0,4900.0,0.599507622359
417,1_38_2,38,2.0,1557.4289481,1_I,test,03,3,73.0,10110,ignore,0.0,4800.0,1.00196251875
418,1_38_2,38,2.0,1560.80407494,1_I,test,03,3,74.0,00111,kill,0.0,4700.0,1.40832096402
419,1_38_2,38,2.0,1564.49179071,1_I,test,03,3,75.0,10100,ignore,0.0,4600.0,1.73541308791
420,1_38_2,38,2.0,1567.16375662,1_I,test,03,3,76.0,10000,ignore,0.0,4500.0,0.771260887024
421,1_38_2,38,2.0,1569.33574497,1_I,test,03,3,77.0,10011,ignore,1.0,4600.0,0.2202819048
422,1_38_2,38,2.0,1572.57026677,1_I,test,03,3,78.0,01001,kill,0.0,4500.0,1.35051758666
423,1_38_2,38,2.0,1576.1485645,1_I,test,03,3,79.0,11101,ignore,0.0,4400.0,1.67386780725
424,1_38_2,38,2.0,1579.30495694,1_I,test,03,3,80.0,00100,ignore,1.0,4500.0,1.2052177533
425,1_38_2,38,2.0,1582.2269732,1_I,test,03,3,81.0,00101,ignore,1.0,4600.0,1.02292064099
426,1_38_2,38,2.0,1585.19587214,1_I,test,03,3,82.0,00110,ignore,1.0,4700.0,1.02160502538
427,1_38_2,38,2.0,1588.35234572,1_I,test,03,3,83.0,01000,kill,0.0,4600.0,1.22387146352
428,1_38_2,38,2.0,1591.6806226,1_I,test,03,3,84.0,11111,ignore,0.0,4500.0,1.4125715378
429,1_38_2,38,2.0,1594.58700831,1_I,test,03,3,85.0,11100,ignore,0.0,4400.0,0.9725455847
430,1_38_2,38,2.0,1597.54025553,1_I,test,03,3,86.0,11010,ignore,0.0,4300.0,1.08074069608
431,1_38_2,38,2.0,1600.32168213,1_I,test,03,3,87.0,01010,ignore,1.0,4400.0,0.903853900596
432,1_38_2,38,2.0,1603.0405599,1_I,test,03,3,88.0,00011,ignore,1.0,4500.0,0.763414019293
433,1_38_2,38,2.0,1605.83752372,1_I,test,03,3,89.0,10101,kill,0.0,4400.0,0.877839863089
434,1_38_2,38,2.0,1608.74396716,1_I,test,03,3,90.0,01110,ignore,1.0,4500.0,0.970766520888
435,1_38_2,38,2.0,1612.94727306,1_I,test,03,3,91.0,00001,kill,0.0,4400.0,2.34311748941
436,1_38_2,38,2.0,1616.07241114,1_I,test,03,3,92.0,00000,ignore,1.0,4500.0,1.15942746667
437,1_38_2,38,2.0,1619.13505779,1_I,test,03,3,93.0,01100,ignore,1.0,4600.0,1.12972187976
438,1_38_2,38,2.0,1621.65080316,1_I,test,03,3,94.0,00010,ignore,1.0,4700.0,0.597734973053
439,1_38_2,38,2.0,1624.7603466,1_I,test,03,3,95.0,11110,ignore,0.0,4600.0,1.18242957191
440,1_38_2,38,2.0,1627.55733127,1_I,test,03,3,96.0,01111,ignore,1.0,4700.0,0.913989464811
441,1_38_2,38,2.0,1630.26706708,1_I,test,03,3,97.0,10111,ignore,1.0,4800.0,0.73954242748
442,1_38_2,38,2.0,1633.3453863,1_I,test,03,3,98.0,11000,ignore,0.0,4700.0,1.13475694787
443,1_38_2,38,2.0,1635.87672598,1_I,test,03,3,99.0,01011,ignore,1.0,4800.0,0.634747326112
444,1_38_2,38,2.0,1642.04894847,1_I,test,03,3,100.0,01101,kill,0.0,4700.0,4.20068878988
445,1_38_2,38,2.0,1644.78346481,1_I,test,03,3,101.0,10001,ignore,1.0,4800.0,0.85608441749
446,1_38_2,38,2.0,1649.9711918,1_I,test,03,3,102.0,11001,kill,1.0,4900.0,3.27917157911
447,1_38_2,38,2.0,1652.90885561,1_I,test,03,3,103.0,10010,ignore,0.0,4800.0,0.994156062417
448,1_38_2,38,2.0,1655.44019914,1_I,test,03,3,104.0,10100,ignore,0.0,4700.0,0.653100516625
449,1_38_2,38,2.0,1657.76845005,1_I,test,03,3,105.0,01011,ignore,1.0,4800.0,0.453608032505
450,1_38_2,38,2.0,1660.5967279,1_I,test,03,3,106.0,10011,ignore,1.0,4900.0,0.892377383472
451,1_38_2,38,2.0,1663.40930816,1_I,test,03,3,107.0,01010,ignore,1.0,5000.0,0.898104897733
452,1_38_2,38,2.0,1667.05013291,1_I,test,03,3,108.0,10110,ignore,0.0,4900.0,1.69370531493
453,1_38_2,38,2.0,1669.81588117,1_I,test,03,3,109.0,00101,ignore,1.0,5000.0,0.892573667417
454,1_38_2,38,2.0,1672.23681498,1_I,test,03,3,110.0,10101,ignore,1.0,5100.0,0.438930034394
455,1_38_2,38,2.0,1675.17446211,1_I,test,03,3,111.0,10111,ignore,1.0,5200.0,0.981954705876
456,1_38_2,38,2.0,1677.65897396,1_I,test,03,3,112.0,10010,ignore,0.0,5100.0,0.58404673354
457,1_38_2,38,2.0,1680.34658549,1_I,test,03,3,113.0,00100,ignore,1.0,5200.0,0.727966485476
458,1_38_2,38,2.0,1683.36234337,1_I,test,03,3,114.0,11100,kill,1.0,5300.0,1.15024221182
459,1_38_2,38,2.0,1686.30234335,1_I,test,03,3,115.0,00110,ignore,1.0,5400.0,0.9751665527
460,1_38_2,38,2.0,1690.99004083,1_I,test,03,3,116.0,10000,kill,1.0,5500.0,2.73590059052
461,1_38_2,38,2.0,1694.09958748,1_I,test,03,3,117.0,11101,kill,1.0,5600.0,1.21887776898
462,1_38_2,38,2.0,1697.19347984,1_I,test,03,3,118.0,01110,ignore,1.0,5700.0,1.1621966098
463,1_38_2,38,2.0,1701.38114173,1_I,test,03,3,119.0,01101,kill,0.0,5600.0,2.30224713047
464,1_38_2,38,2.0,1704.20942792,1_I,test,03,3,120.0,10001,ignore,1.0,5700.0,0.847447923818
465,1_38_2,38,2.0,1707.24082405,1_I,test,03,3,121.0,11011,ignore,0.0,5600.0,1.10191242144
466,1_38_2,38,2.0,1709.94405362,1_I,test,03,3,122.0,00111,ignore,1.0,5700.0,0.803393082337
467,1_38_2,38,2.0,1712.47544751,1_I,test,03,3,123.0,00010,ignore,1.0,5800.0,0.595664690569
468,1_38_2,38,2.0,1715.8506013,1_I,test,03,3,124.0,01001,kill,0.0,5700.0,1.51101852125
469,1_38_2,38,2.0,1718.49136768,1_I,test,03,3,125.0,00011,ignore,1.0,5800.0,0.715558261054
470,1_38_2,38,2.0,1721.08526132,1_I,test,03,3,126.0,01111,ignore,1.0,5900.0,0.654800040542
471,1_38_2,38,2.0,1723.63228191,1_I,test,03,3,127.0,01100,ignore,1.0,6000.0,0.664004218179
472,1_38_2,38,2.0,1726.36676746,1_I,test,03,3,128.0,11111,ignore,0.0,5900.0,0.839237994925
473,1_38_2,38,2.0,1728.86687779,1_I,test,03,3,129.0,00001,ignore,1.0,6000.0,0.54942442619
474,1_38_2,38,2.0,1731.52325965,1_I,test,03,3,130.0,00000,ignore,1.0,6100.0,0.728155713467
475,1_38_2,38,2.0,1735.28904254,1_I,test,03,3,131.0,11001,ignore,0.0,6000.0,1.80264258489
476,1_38_2,38,2.0,1738.47673041,1_I,test,03,3,132.0,11010,kill,1.0,6100.0,1.31663840007
477,1_38_2,38,2.0,1741.24246552,1_I,test,03,3,133.0,01000,ignore,1.0,6200.0,0.798900360882
478,1_38_2,38,2.0,1745.53955154,1_I,test,03,3,134.0,11000,kill,1.0,6300.0,2.36712699315
479,1_38_2,38,2.0,1748.902198,1_I,test,03,3,135.0,11110,kill,1.0,6400.0,1.48959663008
480,1_38_2,38,2.0,1752.88674833,1_I,test,03,3,136.0,11000,kill,1.0,6500.0,2.03807395415
481,1_38_2,38,2.0,1755.80885407,1_I,test,03,4,0.0,00010,ignore,0.0,6400.0,1.0548533451
482,1_38_2,38,2.0,1758.91836897,1_I,test,03,4,1.0,01101,ignore,1.0,6500.0,1.1309698223
483,1_38_2,38,2.0,1764.10612836,1_I,test,03,4,2.0,10001,ignore,1.0,6600.0,3.24514550029
484,1_38_2,38,2.0,1766.99691302,1_I,test,03,4,3.0,11010,kill,1.0,6700.0,1.00431792611
485,1_38_2,38,2.0,1770.45019391,1_I,test,03,4,4.0,01100,ignore,1.0,6800.0,1.49975913522
486,1_38_2,38,2.0,1773.24718724,1_I,test,03,4,5.0,00000,ignore,1.0,6900.0,0.921494759987
487,1_38_2,38,2.0,1776.05984961,1_I,test,03,4,6.0,01111,kill,1.0,7000.0,0.893827383021
488,1_38_2,38,2.0,1778.80997469,1_I,test,03,4,7.0,00101,ignore,1.0,7100.0,0.793604863735
489,1_38_2,38,2.0,1781.825747,1_I,test,03,4,8.0,10011,kill,1.0,7200.0,1.14070736629
490,1_38_2,38,2.0,1784.57590287,1_I,test,03,4,9.0,00011,kill,1.0,7300.0,0.856713039284
491,1_38_2,38,2.0,1787.41977375,1_I,test,03,4,10.0,10101,ignore,1.0,7400.0,0.886636719468
492,1_38_2,38,2.0,1790.34178006,1_I,test,03,5,0.0,10110,kill,0.0,7300.0,0.995499901859
493,1_38_2,38,2.0,1793.45132832,1_I,test,03,5,1.0,11111,ignore,0.0,7200.0,1.16360908448
494,1_38_2,38,2.0,1796.63897224,1_I,test,03,5,2.0,01011,kill,1.0,7300.0,1.31991493079
495,1_38_2,38,2.0,1799.34221689,1_I,test,03,5,3.0,01001,ignore,0.0,7200.0,0.804474568402
496,1_38_2,38,2.0,1802.56112673,1_I,test,03,5,4.0,10111,kill,1.0,7300.0,1.27625009141
497,1_38_2,38,2.0,1805.71749608,1_I,test,03,5,5.0,01010,kill,0.0,7200.0,1.26750230601
498,1_38_2,38,2.0,1808.85827722,1_I,test,03,5,6.0,10010,ignore,1.0,7300.0,1.2083056975
499,1_38_2,38,2.0,1811.51465843,1_I,test,03,5,7.0,00111,ignore,0.0,7200.0,0.779149449059
500,1_38_2,38,2.0,1814.26474663,1_I,test,03,5,8.0,01000,ignore,1.0,7300.0,0.803569481312
501,1_38_2,38,2.0,1816.81176818,1_I,test,03,5,9.0,11001,ignore,0.0,7200.0,0.603953197184
502,1_38_2,38,2.0,1819.68690626,1_I,test,03,5,10.0,11110,ignore,1.0,7300.0,0.989713053394
503,1_38_2,38,2.0,1822.62452741,1_I,test,03,5,11.0,00100,ignore,1.0,7400.0,0.989909337342
504,1_38_2,38,2.0,1826.85913387,1_I,test,03,5,12.0,11101,kill,0.0,7300.0,2.37766186049
505,1_38_2,38,2.0,1830.49991405,1_I,test,03,5,13.0,11100,ignore,1.0,7400.0,1.6812137019
506,1_38_2,38,2.0,1833.34379807,1_I,test,03,5,14.0,00001,ignore,0.0,7300.0,0.909154529349
507,1_38_2,38,2.0,1836.21893742,1_I,test,03,5,15.0,10100,kill,0.0,7200.0,0.962829529315
508,1_38_2,38,2.0,1839.7347309,1_I,test,03,5,16.0,00110,ignore,1.0,7300.0,1.56362358127
509,1_38_2,38,2.0,1842.90673818,1_I,test,03,5,17.0,11011,ignore,0.0,7200.0,1.32009197122
510,1_38_2,38,2.0,1845.50066871,1_I,test,03,5,18.0,01110,ignore,1.0,7300.0,0.676176067984
511,1_38_2,38,2.0,1849.89152874,1_I,test,03,5,19.0,10000,kill,0.0,7200.0,2.45715557619
512,1_38_2,38,2.0,1852.81348952,1_I,test,03,5,20.0,11101,ignore,1.0,7300.0,1.05718245298
513,1_38_2,38,2.0,1855.12612334,1_I,test,03,5,21.0,11000,ignore,1.0,7400.0,0.425355973126
514,1_38_2,38,2.0,1858.42312629,1_I,test,03,5,22.0,01111,ignore,0.0,7300.0,1.35259813235
515,1_38_2,38,2.0,1861.1732565,1_I,test,03,5,23.0,00001,kill,1.0,7400.0,0.826399998459
516,1_38_2,38,2.0,1863.829673,1_I,test,03,5,24.0,11100,ignore,1.0,7500.0,0.705714556956
517,1_38_2,38,2.0,1866.15789761,1_I,test,03,5,25.0,11111,ignore,0.0,7400.0,0.456325859577
518,1_38_2,38,2.0,1869.03300489,1_I,test,03,5,26.0,11010,kill,0.0,7300.0,0.926106791296
519,1_38_2,38,2.0,1872.45506701,1_I,test,03,5,27.0,01110,ignore,1.0,7400.0,1.48176579861
520,1_38_2,38,2.0,1874.93958335,1_I,test,03,5,28.0,01000,ignore,1.0,7500.0,0.583835054775
521,1_38_2,38,2.0,1877.90841718,1_I,test,03,5,29.0,10100,kill,0.0,7400.0,1.01632107435
522,1_38_2,38,2.0,1880.79916271,1_I,test,03,5,30.0,10010,ignore,1.0,7500.0,1.04230464295
523,1_38_2,38,2.0,1883.36814882,1_I,test,03,5,31.0,01001,ignore,0.0,7400.0,0.599860741029
524,1_38_2,38,2.0,1885.89952699,1_I,test,03,5,32.0,10001,ignore,0.0,7300.0,0.567747147787
525,1_38_2,38,2.0,1895.79061282,1_I,test,03,5,33.0,00000,kill,0.0,7200.0,7.9702844706
526,1_38_2,38,2.0,1898.68141544,1_I,test,03,5,34.0,11011,ignore,0.0,7100.0,0.957547502639
527,1_38_2,38,2.0,1901.16591157,1_I,test,03,5,35.0,11001,ignore,0.0,7000.0,0.62660731536
528,1_38_2,38,2.0,1903.85350835,1_I,test,03,5,36.0,10111,ignore,0.0,6900.0,0.76233413686
529,1_38_2,38,2.0,1907.00991106,1_I,test,03,5,37.0,00101,ignore,1.0,7000.0,1.21227659872
530,1_38_2,38,2.0,1910.83881656,1_I,test,03,5,38.0,01011,kill,1.0,7100.0,1.95102651373
531,1_38_2,38,2.0,1913.62016619,1_I,test,03,5,39.0,01101,ignore,1.0,7200.0,0.873278506395
532,1_38_2,38,2.0,1916.22974298,1_I,test,03,5,40.0,10110,ignore,1.0,7300.0,0.653291348241
533,1_38_2,38,2.0,1919.10483423,1_I,test,03,5,41.0,00010,kill,0.0,7200.0,0.939748846351
534,1_38_2,38,2.0,1923.29255288,1_I,test,03,5,42.0,10101,kill,0.0,7100.0,2.19622814096
535,1_38_2,38,2.0,1926.31118863,1_I,test,03,5,43.0,00110,ignore,1.0,7200.0,1.1339618696
536,1_38_2,38,2.0,1929.21760449,1_I,test,03,5,44.0,00011,ignore,0.0,7100.0,1.002105883
537,1_38_2,38,2.0,1931.98586274,1_I,test,03,5,45.0,10011,ignore,0.0,7000.0,0.801037995694
538,1_38_2,38,2.0,1935.81677343,1_I,test,03,5,46.0,11110,ignore,1.0,7100.0,1.87198277576
539,1_38_2,38,2.0,1938.44186275,1_I,test,03,5,47.0,00111,ignore,0.0,7000.0,0.651620368884
540,1_38_2,38,2.0,1941.20764629,1_I,test,03,5,48.0,10000,ignore,1.0,7100.0,0.892034207285
541,1_38_2,38,2.0,1944.69216519,1_I,test,03,5,49.0,01100,ignore,1.0,7200.0,1.51988625794
542,1_38_2,38,2.0,1947.8830045,1_I,test,03,5,50.0,01010,kill,0.0,7100.0,1.26707574123
543,1_38_2,38,2.0,1950.9143769,1_I,test,03,5,51.0,00100,ignore,1.0,7200.0,1.11365417848
544,1_38_2,38,2.0,1954.30516766,1_I,test,03,5,52.0,01111,kill,1.0,7300.0,1.43645050629
545,1_38_2,38,2.0,1957.58759813,1_I,test,03,5,53.0,10111,kill,1.0,7400.0,1.41292433575
546,1_38_2,38,2.0,1960.7440297,1_I,test,03,5,54.0,01100,ignore,1.0,7500.0,1.18754706645
547,1_38_2,38,2.0,1963.72851332,1_I,test,03,5,55.0,10000,kill,0.0,7400.0,1.03545042034
548,1_38_2,38,2.0,1966.46308002,1_I,test,03,5,56.0,11001,ignore,0.0,7300.0,0.843834952142
549,1_38_2,38,2.0,1969.27568594,1_I,test,03,5,57.0,01011,ignore,0.0,7200.0,0.874301620435
550,1_38_2,38,2.0,1971.13512835,1_I,test,03,5,58.0,01110,ignore,1.0,7300.0,0.000242147678364
551,1_38_2,38,2.0,1973.55716962,1_I,test,03,5,59.0,11111,ignore,0.0,7200.0,0.492383733832
552,1_38_2,38,2.0,1975.48860302,1_I,test,03,5,60.0,11100,ignore,1.0,7300.0,0.000242147678364
553,1_38_2,38,2.0,1977.36367663,1_I,test,03,5,61.0,10010,ignore,1.0,7400.0,0.000249203636486
554,1_38_2,38,2.0,1979.270003,1_I,test,03,5,62.0,01001,ignore,0.0,7300.0,0.000248882912274
555,1_38_2,38,2.0,1982.36390723,1_I,test,03,5,63.0,00101,ignore,1.0,7400.0,1.1267365677
556,1_38_2,38,2.0,1985.02028235,1_I,test,03,5,64.0,10101,ignore,1.0,7500.0,0.713782083763
557,1_38_2,38,2.0,1987.77041289,1_I,test,03,5,65.0,10110,ignore,1.0,7600.0,0.804901453914
558,1_38_2,38,2.0,1990.41120685,1_I,test,03,5,66.0,00100,ignore,1.0,7700.0,0.759317393709
559,1_38_2,38,2.0,1993.49084938,1_I,test,03,5,67.0,01101,kill,0.0,7600.0,1.11247839914
560,1_38_2,38,2.0,1997.63306288,1_I,test,03,5,68.0,00110,ignore,1.0,7700.0,2.18722794468
561,1_38_2,38,2.0,2000.80507817,1_I,test,03,5,69.0,11011,kill,1.0,7800.0,1.28493341099
562,1_38_2,38,2.0,2004.83654134,1_I,test,03,5,70.0,00011,ignore,0.0,7700.0,2.08088758831
563,1_38_2,38,2.0,2007.41480443,1_I,test,03,5,71.0,01000,ignore,1.0,7800.0,0.728373806742
564,1_38_2,38,2.0,2011.23066186,1_I,test,03,5,72.0,01010,kill,0.0,7700.0,1.87484685362
565,1_38_2,38,2.0,2013.73076257,1_I,test,03,5,73.0,00001,ignore,0.0,7600.0,0.559562876933
566,1_38_2,38,2.0,2017.60600039,1_I,test,03,5,74.0,00000,ignore,1.0,7700.0,1.97970353427
567,1_38_2,38,2.0,2022.4186913,1_I,test,03,5,75.0,00010,ignore,1.0,7800.0,2.87589081481
568,1_38_2,38,2.0,2025.54388037,1_I,test,03,5,76.0,11010,ignore,1.0,7900.0,1.26723706611
569,1_38_2,38,2.0,2029.99719654,1_I,test,03,5,77.0,10100,kill,0.0,7800.0,2.56184740398
570,1_38_2,38,2.0,2033.21610734,1_I,test,03,5,78.0,10011,ignore,0.0,7700.0,1.25744115009
571,1_38_2,38,2.0,2036.09123451,1_I,test,03,5,79.0,10001,ignore,0.0,7600.0,0.976944975067
572,1_38_2,38,2.0,2038.96637547,1_I,test,03,5,80.0,11101,ignore,1.0,7700.0,0.937829946259
573,1_38_2,38,2.0,2043.13845331,1_I,test,03,5,81.0,00111,ignore,0.0,7600.0,2.30347358442
574,1_38_2,38,2.0,2045.99794864,1_I,test,03,5,82.0,11110,ignore,1.0,7700.0,0.93918661472
575,1_38_2,38,2.0,2049.81376887,1_I,test,03,5,83.0,11000,ignore,1.0,7800.0,1.89354097523
576,1_38_2,38,2.0,2053.61084527,1_I,test,03,5,84.0,00100,kill,0.0,7700.0,1.91656617271
577,1_38_2,38,2.0,2056.51721654,1_I,test,03,5,85.0,00010,ignore,1.0,7800.0,1.0170488003
578,1_38_2,38,2.0,2059.76736953,1_I,test,03,5,86.0,11011,kill,1.0,7900.0,1.32077800286
579,1_38_2,38,2.0,2062.87688987,1_I,test,03,5,87.0,00111,ignore,0.0,7800.0,1.16410492596
580,1_38_2,38,2.0,2065.90827767,1_I,test,03,5,88.0,00011,ignore,0.0,7700.0,1.09285000442
581,1_38_2,38,2.0,2069.51782977,1_I,test,03,5,89.0,01010,ignore,1.0,7800.0,1.74890504347
582,1_38_2,38,2.0,2072.29922333,1_I,test,03,5,90.0,00110,kill,0.0,7700.0,0.813312477629
583,1_38_2,38,2.0,2075.26811521,1_I,test,03,5,91.0,01000,ignore,1.0,7800.0,1.02019543723
584,1_38_2,38,2.0,2078.06825806,1_I,test,03,5,92.0,01011,ignore,0.0,7700.0,0.941881670286
585,1_38_2,38,2.0,2082.16216614,1_I,test,03,5,93.0,00001,ignore,0.0,7600.0,2.13707932052
586,1_38_2,38,2.0,2085.56858873,1_I,test,03,5,94.0,10010,kill,0.0,7500.0,1.55754358979
587,1_38_2,38,2.0,2089.00629392,1_I,test,03,5,95.0,11001,ignore,0.0,7400.0,1.49455440337
588,1_38_2,38,2.0,2091.52200946,1_I,test,03,5,96.0,10101,ignore,1.0,7500.0,0.570483256208
589,1_38_2,38,2.0,2094.22530639,1_I,test,03,5,97.0,11010,ignore,1.0,7600.0,0.838964416158
590,1_38_2,38,2.0,2097.49104631,1_I,test,03,5,98.0,10011,ignore,0.0,7500.0,1.30152902629
591,1_38_2,38,2.0,2099.88179441,1_I,test,03,5,99.0,10111,ignore,0.0,7400.0,0.532293840915
592,1_38_2,38,2.0,2103.08507819,1_I,test,03,5,100.0,10100,ignore,1.0,7500.0,1.27145043574
593,1_38_2,38,2.0,2106.89854237,1_I,test,03,5,101.0,00000,kill,0.0,7400.0,1.86901991448
594,1_38_2,38,2.0,2109.92994587,1_I,test,03,5,102.0,01100,kill,0.0,7300.0,1.16425727052
595,1_38_2,38,2.0,2112.43006743,1_I,test,03,5,103.0,10001,ignore,0.0,7200.0,0.607151470911
596,1_38_2,38,2.0,2114.44578394,1_I,test,03,5,104.0,01001,ignore,0.0,7100.0,0.0630542936779
597,1_38_2,38,2.0,2117.47715569,1_I,test,03,5,105.0,01110,ignore,1.0,7200.0,1.12606528943
598,1_38_2,38,2.0,2119.63351125,1_I,test,03,5,106.0,10110,ignore,1.0,7300.0,0.20899269131
599,1_38_2,38,2.0,2126.7965039,1_I,test,03,5,107.0,01111,ignore,0.0,7200.0,5.32525949892
600,1_38_2,38,2.0,2129.45287967,1_I,test,03,5,108.0,11110,kill,0.0,7100.0,0.70049250593
601,1_38_2,38,2.0,2132.39052487,1_I,test,03,5,109.0,01101,ignore,1.0,7200.0,0.992578414156
602,1_38_2,38,2.0,2135.03128773,1_I,test,03,5,110.0,11000,ignore,1.0,7300.0,0.755142190403
