,unique_id,pair_id,sbj_id,wall_time,condition,block,rule_id,rule_num,trial,stimulus,choice,correct,points,reaction_time
0,2_34_1,34,1.0,33.348605967,2_ND,training,05,1_B,1.0,11001,kill,1.0,100.0,3.31767548674
1,2_34_1,34,1.0,39.2082432564,2_ND,training,05,1_B,2.0,10110,kill,0.0,0.0,3.50871922367
2,2_34_1,34,1.0,42.817799877,2_ND,training,05,1_B,3.0,01000,ignore,0.0,0.0,1.3247973424
3,2_34_1,34,1.0,54.1308519871,2_ND,training,05,1_B,4.0,11100,kill,1.0,100.0,9.09273232447
4,2_34_1,34,1.0,66.5978417674,2_ND,training,05,1_B,5.0,11011,ignore,1.0,200.0,10.2255532082
5,2_34_1,34,1.0,75.0669896982,2_ND,training,05,1_B,6.0,11000,ignore,0.0,100.0,6.15233332321
6,2_34_1,34,1.0,78.8356685587,2_ND,training,05,1_B,7.0,00010,ignore,1.0,200.0,1.48462897628
7,2_34_1,34,1.0,82.4139293283,2_ND,training,05,1_B,8.0,00101,ignore,0.0,100.0,1.27389052507
8,2_34_1,34,1.0,104.050766416,2_ND,training,05,1_B,9.0,10011,ignore,1.0,200.0,19.3491302124
9,2_34_1,34,1.0,113.351244436,2_ND,training,05,1_B,10.0,01100,ignore,0.0,100.0,7.04187189691
10,2_34_1,34,1.0,119.1046118,2_ND,training,05,1_B,11.0,01101,ignore,0.0,0.0,3.45659477758
11,2_34_1,34,1.0,123.542330868,2_ND,training,05,1_B,12.0,10111,kill,0.0,0.0,2.09976796906
12,2_34_1,34,1.0,136.514089763,2_ND,training,05,1_B,13.0,01111,ignore,1.0,100.0,10.6731335919
13,2_34_1,34,1.0,143.014369744,2_ND,training,05,1_B,14.0,01001,ignore,0.0,0.0,4.26134311925
14,2_34_1,34,1.0,147.298989031,2_ND,training,05,1_B,15.0,10000,kill,0.0,0.0,2.01679679065
15,2_34_1,34,1.0,151.252364031,2_ND,training,05,1_B,16.0,01110,ignore,1.0,100.0,1.64090050339
16,2_34_1,34,1.0,155.674412389,2_ND,training,05,1_B,17.0,10001,ignore,0.0,0.0,2.09366668829
17,2_34_1,34,1.0,171.034552577,2_ND,training,05,1_B,18.0,01011,ignore,1.0,100.0,13.1303946579
18,2_34_1,34,1.0,180.394373783,2_ND,training,05,1_B,19.0,10100,kill,0.0,0.0,7.07673360204
19,2_34_1,34,1.0,184.535218865,2_ND,training,05,1_B,20.0,01010,ignore,1.0,100.0,1.87647636462
20,2_34_1,34,1.0,190.097932494,2_ND,training,05,1_B,21.0,00001,kill,1.0,200.0,3.31264773909
21,2_34_1,34,1.0,197.004514997,2_ND,training,05,1_B,22.0,00110,ignore,1.0,300.0,4.67737394504
22,2_34_1,34,1.0,204.567412954,2_ND,training,05,1_B,23.0,00111,kill,0.0,200.0,5.30199410316
23,2_34_1,34,1.0,208.848842021,2_ND,training,05,1_B,24.0,11101,kill,1.0,300.0,2.04173847502
24,2_34_1,34,1.0,212.614643484,2_ND,training,05,1_B,25.0,11111,kill,0.0,200.0,1.53071331041
25,2_34_1,34,1.0,216.927411098,2_ND,training,05,1_B,26.0,00011,ignore,1.0,300.0,2.02656655782
26,2_34_1,34,1.0,240.631669761,2_ND,training,05,1_B,27.0,11110,kill,0.0,200.0,21.4656842983
27,2_34_1,34,1.0,245.67875168,2_ND,training,05,1_B,28.0,00000,ignore,1.0,300.0,2.75034340744
28,2_34_1,34,1.0,249.663381888,2_ND,training,05,1_B,29.0,10101,kill,1.0,400.0,1.70945062199
29,2_34_1,34,1.0,257.491838275,2_ND,training,05,1_B,30.0,10010,kill,0.0,300.0,5.5750422229
30,2_34_1,34,1.0,261.335744917,2_ND,training,05,1_B,31.0,00100,ignore,1.0,400.0,1.60035954123
31,2_34_1,34,1.0,267.28923117,2_ND,training,05,1_B,32.0,11010,kill,0.0,300.0,3.72330515189
32,2_34_1,34,1.0,271.758125804,2_ND,training,05,1_B,33.0,11001,ignore,0.0,200.0,2.1997202656
33,2_34_1,34,1.0,275.77398002,2_ND,training,05,1_B,34.0,11111,kill,0.0,100.0,1.79047507227
34,2_34_1,34,1.0,281.383656515,2_ND,training,05,1_B,35.0,10110,kill,0.0,0.0,3.3975865826
35,2_34_1,34,1.0,285.133793837,2_ND,training,05,1_B,36.0,10100,kill,0.0,0.0,1.47966034479
36,2_34_1,34,1.0,288.993358463,2_ND,training,05,1_B,37.0,11000,ignore,0.0,0.0,1.59391054246
37,2_34_1,34,1.0,296.931247491,2_ND,training,05,1_B,38.0,10111,kill,0.0,0.0,5.67493704539
38,2_34_1,34,1.0,300.52514777,2_ND,training,05,1_B,39.0,01101,ignore,0.0,0.0,1.38105294099
39,2_34_1,34,1.0,303.915947488,2_ND,training,05,1_B,40.0,00001,ignore,0.0,0.0,1.16501045617
40,2_34_1,34,1.0,307.900540338,2_ND,training,05,1_B,41.0,10010,ignore,1.0,100.0,1.70655721418
41,2_34_1,34,1.0,317.275994075,2_ND,training,05,1_B,42.0,10001,kill,1.0,200.0,7.10609709337
42,2_34_1,34,1.0,322.291929166,2_ND,training,05,1_B,43.0,11011,ignore,1.0,300.0,2.75536910244
43,2_34_1,34,1.0,325.69823333,2_ND,training,05,1_B,44.0,01010,ignore,1.0,400.0,1.16057469122
44,2_34_1,34,1.0,328.667151775,2_ND,training,05,1_B,45.0,01000,ignore,0.0,300.0,0.734778614071
45,2_34_1,34,1.0,331.745421166,2_ND,training,05,1_B,46.0,00010,ignore,1.0,400.0,0.849777616485
46,2_34_1,34,1.0,336.198791239,2_ND,training,05,1_B,47.0,01111,ignore,1.0,500.0,2.21264741067
47,2_34_1,34,1.0,341.542809134,2_ND,training,05,1_B,48.0,00000,ignore,1.0,600.0,3.07993736971
48,2_34_1,34,1.0,344.902338455,2_ND,training,05,1_B,49.0,00100,ignore,1.0,700.0,1.14616841046
49,2_34_1,34,1.0,349.511899591,2_ND,training,05,1_B,50.0,10011,kill,0.0,600.0,2.41718276994
50,2_34_1,34,1.0,353.262159251,2_ND,training,05,1_B,51.0,00101,kill,1.0,700.0,1.51863554967
51,2_34_1,34,1.0,357.137306323,2_ND,training,05,1_B,52.0,10000,kill,0.0,600.0,1.61562998536
52,2_34_1,34,1.0,360.559298439,2_ND,training,05,1_B,53.0,01011,ignore,1.0,700.0,1.14807490675
53,2_34_1,34,1.0,364.137612988,2_ND,training,05,1_B,54.0,00111,ignore,1.0,800.0,1.33840514442
54,2_34_1,34,1.0,368.966001637,2_ND,training,05,1_B,55.0,11110,kill,0.0,700.0,2.60688571942
55,2_34_1,34,1.0,373.263126046,2_ND,training,05,1_B,56.0,11100,kill,1.0,800.0,2.08081015419
56,2_34_1,34,1.0,376.856997589,2_ND,training,05,1_B,57.0,00011,ignore,1.0,900.0,1.3583256496
57,2_34_1,34,1.0,379.982149792,2_ND,training,05,1_B,58.0,00110,ignore,1.0,1000.0,0.851813429386
58,2_34_1,34,1.0,385.248042393,2_ND,training,05,1_B,59.0,01100,kill,1.0,1100.0,3.00660171552
59,2_34_1,34,1.0,388.623223949,2_ND,training,05,1_B,60.0,10101,kill,1.0,1200.0,1.12483116998
60,2_34_1,34,1.0,392.373361682,2_ND,training,05,1_B,61.0,11010,ignore,1.0,1300.0,1.5152983601
61,2_34_1,34,1.0,395.936039595,2_ND,training,05,1_B,62.0,01001,kill,1.0,1400.0,1.34376008362
62,2_34_1,34,1.0,399.342493602,2_ND,training,05,1_B,63.0,11101,kill,1.0,1500.0,1.14258490354
63,2_34_1,34,1.0,402.889519279,2_ND,training,05,1_B,64.0,01110,ignore,1.0,1600.0,1.30002643806
64,2_34_1,34,1.0,405.952159013,2_ND,training,05,1_B,65.0,10110,ignore,1.0,1700.0,0.817786329551
65,2_34_1,34,1.0,408.999198237,2_ND,training,05,1_B,66.0,01011,ignore,1.0,1800.0,0.814022600438
66,2_34_1,34,1.0,411.99934028,2_ND,training,05,1_B,67.0,10011,ignore,1.0,1900.0,0.711052916356
67,2_34_1,34,1.0,415.577653597,2_ND,training,05,1_B,68.0,00100,kill,0.0,1800.0,1.33970446844
68,2_34_1,34,1.0,419.171577687,2_ND,training,05,1_B,69.0,10100,kill,0.0,1700.0,1.34318780631
69,2_34_1,34,1.0,422.999874378,2_ND,training,05,1_B,70.0,11101,ignore,0.0,1600.0,1.58987175898
70,2_34_1,34,1.0,426.593770963,2_ND,training,05,1_B,71.0,10101,kill,1.0,1700.0,1.31779577172
71,2_34_1,34,1.0,430.20335591,2_ND,training,05,1_B,72.0,00011,ignore,1.0,1800.0,1.36722632706
72,2_34_1,34,1.0,433.484755419,2_ND,training,05,1_B,73.0,11010,ignore,1.0,1900.0,1.05716902543
73,2_34_1,34,1.0,437.938251114,2_ND,training,05,1_B,74.0,11111,kill,0.0,1800.0,2.23677953201
74,2_34_1,34,1.0,441.328832431,2_ND,training,05,1_B,75.0,01100,kill,1.0,1900.0,1.14114148386
75,2_34_1,34,1.0,444.766533026,2_ND,training,05,1_B,76.0,01101,kill,1.0,2000.0,1.18976452882
76,2_34_1,34,1.0,448.469808472,2_ND,training,05,1_B,77.0,01001,kill,1.0,2100.0,1.40973577538
77,2_34_1,34,1.0,451.798131437,2_ND,training,05,1_B,78.0,11100,kill,1.0,2200.0,1.04875605633
78,2_34_1,34,1.0,455.188884765,2_ND,training,05,1_B,79.0,01010,ignore,1.0,2300.0,0.996709200199
79,2_34_1,34,1.0,459.485986185,2_ND,training,05,1_B,80.0,11011,ignore,1.0,2400.0,2.04277547106
80,2_34_1,34,1.0,462.81427877,2_ND,training,05,1_B,81.0,01111,ignore,1.0,2500.0,1.06337745424
81,2_34_1,34,1.0,466.783237037,2_ND,training,05,1_B,82.0,00001,kill,1.0,2600.0,1.75493312073
82,2_34_1,34,1.0,470.486548199,2_ND,training,05,1_B,83.0,10000,kill,0.0,2500.0,1.45812933467
83,2_34_1,34,1.0,473.986664789,2_ND,training,05,1_B,84.0,00111,ignore,1.0,2600.0,1.22852790078
84,2_34_1,34,1.0,477.111819045,2_ND,training,05,1_B,85.0,00110,ignore,1.0,2700.0,0.909254224958
85,2_34_1,34,1.0,480.627653146,2_ND,training,05,1_B,86.0,00000,kill,0.0,2600.0,1.24544908169
86,2_34_1,34,1.0,484.252802065,2_ND,training,05,1_B,87.0,00101,kill,1.0,2700.0,1.36131963699
87,2_34_1,34,1.0,488.049911285,2_ND,training,05,1_B,88.0,11110,ignore,1.0,2800.0,1.52499546366
88,2_34_1,34,1.0,492.221972575,2_ND,training,05,1_B,89.0,11000,kill,1.0,2900.0,1.98295935517
89,2_34_1,34,1.0,496.284650488,2_ND,training,05,1_B,90.0,10111,ignore,1.0,3000.0,1.81804578383
90,2_34_1,34,1.0,500.659849697,2_ND,training,05,1_B,91.0,10001,kill,1.0,3100.0,2.17607051573
91,2_34_1,34,1.0,505.316333468,2_ND,training,05,1_B,92.0,00010,ignore,1.0,3200.0,2.41191445234
92,2_34_1,34,1.0,509.20713647,2_ND,training,05,1_B,93.0,01000,kill,1.0,3300.0,1.64049941664
93,2_34_1,34,1.0,513.988682949,2_ND,training,05,1_B,94.0,11001,kill,1.0,3400.0,2.51475153558
94,2_34_1,34,1.0,517.28564561,2_ND,training,05,1_B,95.0,10010,ignore,1.0,3500.0,1.07798407312
95,2_34_1,34,1.0,520.69214026,2_ND,training,05,1_B,96.0,01110,ignore,1.0,3600.0,1.16404817639
96,2_34_1,34,1.0,524.004731756,2_ND,training,05,1_B,97.0,01110,ignore,1.0,3700.0,1.00959447133
97,2_34_1,34,1.0,527.80184385,2_ND,training,05,1_B,98.0,10010,ignore,1.0,3800.0,1.62000334992
98,2_34_1,34,1.0,531.426992769,2_ND,training,05,1_B,99.0,01101,kill,1.0,3900.0,1.34894424278
99,2_34_1,34,1.0,534.880315221,2_ND,training,05,1_B,100.0,00010,ignore,1.0,4000.0,1.30632436218
100,2_34_1,34,1.0,538.646154863,2_ND,training,05,1_B,101.0,00101,kill,1.0,4100.0,1.52229377285
101,2_34_1,34,1.0,541.958771812,2_ND,training,05,1_B,102.0,00111,ignore,1.0,4200.0,1.13215993221
102,2_34_1,34,1.0,545.365228693,2_ND,training,05,1_B,103.0,00100,kill,0.0,4100.0,1.18667776189
103,2_34_1,34,1.0,548.834062159,2_ND,training,05,1_B,104.0,01011,ignore,1.0,4200.0,1.26569842053
104,2_34_1,34,1.0,552.631143052,2_ND,training,05,1_B,105.0,10101,kill,1.0,4300.0,1.53565320488
105,2_34_1,34,1.0,556.568828868,2_ND,training,05,1_B,106.0,01001,kill,1.0,4400.0,1.71345409999
106,2_34_1,34,1.0,560.428416073,2_ND,training,05,1_B,107.0,01111,ignore,1.0,4500.0,1.69405989288
107,2_34_1,34,1.0,563.584818559,2_ND,training,05,1_B,108.0,10011,ignore,1.0,4600.0,0.986707484189
108,2_34_1,34,1.0,567.194331663,2_ND,training,05,1_B,109.0,10000,kill,0.0,4500.0,1.37785492072
109,2_34_1,34,1.0,571.382034926,2_ND,training,05,1_B,110.0,00000,ignore,1.0,4600.0,1.97732238261
110,2_34_1,34,1.0,575.03850556,2_ND,training,05,1_B,111.0,11001,kill,1.0,4700.0,1.44652901906
111,2_34_1,34,1.0,578.991765611,2_ND,training,05,1_B,112.0,00110,ignore,1.0,4800.0,1.67745030342
112,2_34_1,34,1.0,582.492012749,2_ND,training,05,1_B,113.0,11011,ignore,1.0,4900.0,1.26304106685
113,2_34_1,34,1.0,586.617121847,2_ND,training,05,1_B,114.0,01010,ignore,1.0,5000.0,1.20090956787
114,2_34_1,34,1.0,590.898600589,2_ND,training,05,1_B,115.0,11010,ignore,1.0,5100.0,1.85679027145
115,2_34_1,34,1.0,594.414391584,2_ND,training,05,1_B,116.0,10111,ignore,1.0,5200.0,1.28291805596
116,2_34_1,34,1.0,597.555173034,2_ND,training,05,1_B,117.0,11111,ignore,1.0,5300.0,0.972324193044
117,2_34_1,34,1.0,604.211784479,2_ND,training,05,1_B,118.0,11100,kill,1.0,5400.0,4.45796676522
118,2_34_1,34,1.0,608.043223769,2_ND,training,05,1_B,119.0,01000,kill,1.0,5500.0,1.58049815221
119,2_34_1,34,1.0,611.262153093,2_ND,training,05,1_B,120.0,11000,kill,1.0,5600.0,0.992135087003
120,2_34_1,34,1.0,614.559190059,2_ND,training,05,1_B,121.0,00001,kill,1.0,5700.0,1.14365802613
121,2_34_1,34,1.0,618.278120205,2_ND,training,05,1_B,122.0,10001,kill,1.0,5800.0,1.43429443627
122,2_34_1,34,1.0,621.59075768,2_ND,training,05,1_B,123.0,01100,kill,1.0,5900.0,1.10694031977
123,2_34_1,34,1.0,625.215962021,2_ND,training,05,1_B,124.0,10110,ignore,1.0,6000.0,1.44547395974
124,2_34_1,34,1.0,628.528598265,2_ND,training,05,1_B,125.0,00011,ignore,1.0,6100.0,1.02291243993
125,2_34_1,34,1.0,631.934998493,2_ND,training,05,1_B,126.0,11110,ignore,1.0,6200.0,1.21823347765
126,2_34_1,34,1.0,635.763324332,2_ND,training,05,1_B,127.0,10100,kill,0.0,6100.0,1.58988859066
127,2_34_1,34,1.0,639.24784575,2_ND,training,05,1_B,128.0,11101,kill,1.0,6200.0,1.26687951223
128,2_34_1,34,1.0,643.920098757,2_ND,training,05,1_B,129.0,00000,ignore,1.0,6300.0,2.41054451735
129,2_34_1,34,1.0,647.264042347,2_ND,training,05,1_B,130.0,01001,kill,1.0,6400.0,1.08382343644
130,2_34_1,34,1.0,650.420288832,2_ND,training,05,1_B,131.0,01110,ignore,1.0,6500.0,0.989505238759
131,2_34_1,34,1.0,654.436055605,2_ND,training,05,1_B,132.0,10000,ignore,1.0,6600.0,1.77890636739
132,2_34_1,34,1.0,658.257952561,2_ND,training,05,1_B,133.0,10011,ignore,1.0,6700.0,1.57699264579
133,2_34_1,34,1.0,663.124007649,2_ND,training,05,1_B,134.0,01111,ignore,1.0,6800.0,2.65918792454
134,2_34_1,34,1.0,666.687432725,2_ND,training,05,1_B,135.0,11001,kill,1.0,6900.0,1.33753235994
135,2_34_1,34,1.0,670.345217872,2_ND,training,05,1_B,136.0,00101,ignore,0.0,6800.0,1.42870221136
136,2_34_1,34,1.0,673.626633392,2_ND,training,05,1_B,137.0,11011,ignore,1.0,6900.0,1.0047531038
137,2_34_1,34,1.0,677.817466528,2_ND,training,05,1_B,138.0,10010,ignore,1.0,7000.0,1.93607079489
138,2_34_1,34,1.0,682.473967951,2_ND,training,05,1_B,139.0,10001,kill,1.0,7100.0,2.48981313545
139,2_34_1,34,1.0,686.458518516,2_ND,training,05,1_B,140.0,11010,ignore,1.0,7200.0,1.80524508166
140,2_34_1,34,1.0,689.958681907,2_ND,training,05,1_B,141.0,01101,kill,1.0,7300.0,1.33338807052
141,2_34_1,34,1.0,693.28698065,2_ND,training,05,1_B,142.0,01011,ignore,1.0,7400.0,1.11338972906
142,2_34_1,34,1.0,697.677786937,2_ND,training,05,1_B,143.0,11000,kill,1.0,7500.0,2.22171353128
143,2_34_1,34,1.0,701.553017346,2_ND,training,05,1_B,144.0,00100,ignore,1.0,7600.0,1.67560046012
144,2_34_1,34,1.0,705.600046718,2_ND,training,05,1_B,145.0,01010,ignore,1.0,7700.0,1.89101729887
145,2_34_1,34,1.0,709.569014016,2_ND,training,05,1_B,146.0,00111,ignore,1.0,7800.0,1.77104884391
146,2_34_1,34,1.0,713.850480031,2_ND,training,05,1_B,147.0,11101,kill,1.0,7900.0,2.05409129014
147,2_34_1,34,1.0,718.67883666,2_ND,training,05,1_B,148.0,00010,ignore,1.0,8000.0,2.61920117641
148,2_34_1,34,1.0,723.585295183,2_ND,training,05,1_B,149.0,10101,kill,1.0,8100.0,2.53455134526
149,2_34_1,34,1.0,727.604283787,2_ND,training,05,1_B,150.0,11100,kill,1.0,8200.0,1.79087780114
150,2_34_1,34,1.0,731.229449538,2_ND,training,05,1_B,151.0,00110,ignore,1.0,8300.0,1.41107656282
151,2_34_1,34,1.0,737.276648869,2_ND,training,05,1_B,152.0,11110,ignore,1.0,8400.0,3.88519476723
152,2_34_1,34,1.0,741.573783541,2_ND,training,05,1_B,153.0,00001,kill,1.0,8500.0,1.98022851682
153,2_34_1,34,1.0,744.933298083,2_ND,training,05,1_B,154.0,10111,ignore,1.0,8600.0,1.13430248263
154,2_34_1,34,1.0,748.90217917,2_ND,training,05,1_B,155.0,01100,kill,1.0,8700.0,1.66791700091
155,2_34_1,34,1.0,753.355509832,2_ND,training,05,1_B,156.0,00011,ignore,1.0,8800.0,2.24469165584
156,2_34_1,34,1.0,757.187037385,2_ND,training,05,1_B,157.0,10110,ignore,1.0,8900.0,1.67241803995
157,2_34_1,34,1.0,761.06219431,2_ND,training,05,1_B,158.0,10100,kill,0.0,8800.0,1.64282177872
158,2_34_1,34,1.0,765.421850894,2_ND,training,05,1_B,159.0,01000,kill,1.0,8900.0,1.90834326129
159,2_34_1,34,1.0,770.357222558,2_ND,training,05,1_B,160.0,11111,ignore,1.0,9000.0,2.72849464793
160,2_34_1,34,1.0,773.99799744,2_ND,training,05,1_B,161.0,01011,ignore,1.0,9100.0,1.44811735544
161,2_34_1,34,1.0,777.935689003,2_ND,training,05,1_B,162.0,01101,kill,1.0,9200.0,1.73833009973
162,2_34_1,34,1.0,785.951681978,2_ND,training,05,1_B,163.0,10110,ignore,1.0,9300.0,5.77556917782
163,2_34_1,34,1.0,791.014499881,2_ND,training,05,1_B,164.0,00001,kill,1.0,9400.0,2.86127776304
164,2_34_1,34,1.0,794.56743348,2_ND,training,05,1_B,165.0,11100,kill,1.0,9500.0,1.35999198648
165,2_34_1,34,1.0,798.161336633,2_ND,training,05,1_B,166.0,10011,ignore,1.0,9600.0,1.37178155592
166,2_34_1,34,1.0,801.942813322,2_ND,training,05,1_B,167.0,11111,ignore,1.0,9700.0,1.5845710096
167,2_34_1,34,1.0,806.568022999,2_ND,training,05,1_B,168.0,11010,ignore,1.0,9800.0,2.41856173657
168,2_34_1,34,1.0,810.943249304,2_ND,training,05,1_B,169.0,10000,kill,0.0,9700.0,2.11488692802
169,2_34_1,34,1.0,813.961228417,2_ND,training,05,1_B,170.0,01110,ignore,1.0,9800.0,0.821176066821
170,2_34_1,34,1.0,816.773885599,2_ND,training,05,1_B,171.0,00110,ignore,1.0,9900.0,0.614101586202
171,2_34_1,34,1.0,819.758405785,2_ND,training,05,1_B,172.0,10010,ignore,1.0,10000.0,0.805472514679
172,2_34_1,34,1.0,822.805418325,2_ND,training,05,1_B,173.0,10111,ignore,1.0,10100.0,0.838256122423
173,2_34_1,34,1.0,825.821187562,2_ND,training,05,1_B,174.0,00111,ignore,1.0,10200.0,0.812920740824
174,2_34_1,34,1.0,830.321430595,2_ND,training,05,1_B,175.0,10100,kill,0.0,10100.0,2.29542851419
175,2_34_1,34,1.0,833.965339044,2_ND,training,05,1_B,176.0,00100,kill,0.0,10000.0,1.38355183051
176,2_34_1,34,1.0,837.890575159,2_ND,training,05,1_B,177.0,11000,kill,1.0,10100.0,1.78391564123
177,2_34_1,34,1.0,841.375128188,2_ND,training,05,1_B,178.0,11101,kill,1.0,10200.0,1.25181720625
178,2_34_1,34,1.0,995.320051218,2_ND,test,05,2,0.0,00011,ignore,1.0,100.0,13.4799473045
179,2_34_1,34,1.0,1000.96091518,2_ND,test,05,2,1.0,01100,kill,0.0,0.0,3.33597317111
180,2_34_1,34,1.0,1023.3058346,2_ND,test,05,2,2.0,00101,kill,1.0,100.0,19.8783216921
181,2_34_1,34,1.0,1037.91582597,2_ND,test,05,2,3.0,11110,ignore,0.0,0.0,12.381698703
182,2_34_1,34,1.0,1059.60445046,2_ND,test,05,2,4.0,10001,kill,0.0,0.0,15.1490901448
183,2_34_1,34,1.0,1093.42162839,2_ND,test,05,2,5.0,01010,,,0.0,
184,2_34_1,34,1.0,1100.06262578,2_ND,test,05,2,6.0,01000,ignore,1.0,100.0,4.40623191107
185,2_34_1,34,1.0,1108.25051131,2_ND,test,05,2,7.0,11011,kill,0.0,0.0,5.93605601585
186,2_34_1,34,1.0,1116.34464929,2_ND,test,05,2,8.0,01001,ignore,1.0,100.0,5.89039288438
187,2_34_1,34,1.0,1127.36276839,2_ND,test,05,2,9.0,00010,ignore,1.0,200.0,4.46849026349
188,2_34_1,34,1.0,1136.035037,2_ND,test,05,2,10.0,00000,ignore,1.0,300.0,6.33538406212
189,2_34_1,34,1.0,1151.03892594,2_ND,test,05,2,11.0,01111,ignore,0.0,200.0,8.49831231562
190,2_34_1,34,1.0,1161.68004567,2_ND,test,05,2,12.0,11001,kill,0.0,100.0,8.4246297645
191,2_34_1,34,1.0,1170.71173111,2_ND,test,05,2,13.0,10101,ignore,0.0,0.0,6.73098245317
192,2_34_1,34,1.0,1181.18097552,2_ND,test,05,2,14.0,10011,kill,0.0,0.0,8.20822067736
193,2_34_1,34,1.0,1190.41580503,2_ND,test,05,2,15.0,11111,ignore,0.0,0.0,7.01329621057
194,2_34_1,34,1.0,1201.52570691,2_ND,test,05,2,16.0,10111,ignore,0.0,0.0,8.82454240394
195,2_34_1,34,1.0,1213.74503855,2_ND,test,05,2,17.0,10100,ignore,0.0,0.0,5.61250503924
196,2_34_1,34,1.0,1227.65199012,2_ND,test,05,2,18.0,01001,ignore,1.0,100.0,11.6752088155
197,2_34_1,34,1.0,1241.81394994,2_ND,test,05,2,19.0,00100,ignore,0.0,0.0,7.55294427234
198,2_34_1,34,1.0,1250.47062994,2_ND,test,05,2,20.0,10010,kill,0.0,0.0,6.39047622175
199,2_34_1,34,1.0,1262.12744706,2_ND,test,05,2,21.0,11000,ignore,1.0,100.0,9.40815811275
200,2_34_1,34,1.0,1272.17486397,2_ND,test,05,2,22.0,01111,ignore,0.0,0.0,7.7555189455
201,2_34_1,34,1.0,1277.6125502,2_ND,test,05,2,23.0,01101,ignore,1.0,100.0,3.17424366205
202,2_34_1,34,1.0,1288.70707612,2_ND,test,05,2,24.0,11001,kill,0.0,0.0,4.55732584748
203,2_34_1,34,1.0,1294.7540082,2_ND,test,05,2,25.0,01010,ignore,1.0,100.0,3.82262564443
204,2_34_1,34,1.0,1311.42702315,2_ND,test,05,2,26.0,11100,ignore,1.0,200.0,10.1674021976
205,2_34_1,34,1.0,1318.58364527,2_ND,test,05,2,27.0,11101,kill,0.0,100.0,4.94917282528
206,2_34_1,34,1.0,1334.68135443,2_ND,test,05,2,28.0,00001,ignore,1.0,200.0,13.6012175467
207,2_34_1,34,1.0,1349.10384698,2_ND,test,05,2,29.0,11011,ignore,1.0,300.0,12.0834634026
208,2_34_1,34,1.0,1360.2138285,2_ND,test,05,2,30.0,00101,kill,1.0,400.0,8.56691539245
209,2_34_1,34,1.0,1365.90209706,2_ND,test,05,2,31.0,10101,kill,1.0,500.0,3.27752986393
210,2_34_1,34,1.0,1372.15237314,2_ND,test,05,2,32.0,01100,ignore,1.0,600.0,3.98374141276
211,2_34_1,34,1.0,1376.1682171,2_ND,test,05,2,33.0,10001,kill,0.0,500.0,1.72880008145
212,2_34_1,34,1.0,1383.44978205,2_ND,test,05,2,34.0,01011,ignore,1.0,600.0,5.01380362431
213,2_34_1,34,1.0,1397.98169657,2_ND,test,05,2,35.0,10000,kill,0.0,500.0,7.97565029833
214,2_34_1,34,1.0,1403.81012504,2_ND,test,05,2,36.0,00010,ignore,1.0,600.0,3.54721616236
215,2_34_1,34,1.0,1408.26349183,2_ND,test,05,3,0.0,11110,kill,1.0,700.0,2.24992507847
216,2_34_1,34,1.0,1412.45115445,2_ND,test,05,3,1.0,11010,kill,1.0,800.0,1.95183880007
217,2_34_1,34,1.0,1420.73282491,2_ND,test,05,3,2.0,00111,kill,0.0,700.0,6.06167129606
218,2_34_1,34,1.0,1435.70230988,2_ND,test,05,3,3.0,01110,ignore,1.0,800.0,12.7443759591
219,2_34_1,34,1.0,1440.74939878,2_ND,test,05,3,4.0,00110,kill,0.0,700.0,2.77289663457
220,2_34_1,34,1.0,1445.37465362,2_ND,test,05,3,5.0,01000,ignore,1.0,800.0,2.42391421259
221,2_34_1,34,1.0,1464.60992938,2_ND,test,05,3,6.0,00000,kill,0.0,700.0,16.9998226515
222,2_34_1,34,1.0,1473.11036249,2_ND,test,05,3,7.0,10110,kill,1.0,800.0,6.31577227468
223,2_34_1,34,1.0,1488.78298579,2_ND,test,05,3,8.0,00011,kill,0.0,700.0,13.3706148327
224,2_34_1,34,1.0,1507.11201199,2_ND,test,05,3,9.0,11100,kill,1.0,800.0,16.011443083
225,2_34_1,34,1.0,1514.86548076,2_ND,test,05,3,10.0,01101,kill,0.0,700.0,5.52000302149
226,2_34_1,34,1.0,1518.96259917,2_ND,test,05,3,11.0,00110,kill,0.0,600.0,1.92894196024
227,2_34_1,34,1.0,1526.21296105,2_ND,test,05,3,12.0,00000,ignore,1.0,700.0,4.80091605423
228,2_34_1,34,1.0,1542.88565251,2_ND,test,05,3,13.0,10011,kill,1.0,800.0,14.1857113768
229,2_34_1,34,1.0,1549.27654624,2_ND,test,05,3,14.0,11101,ignore,1.0,900.0,4.19033926931
230,2_34_1,34,1.0,1557.30821074,2_ND,test,05,3,15.0,11010,ignore,0.0,800.0,5.93371682208
231,2_34_1,34,1.0,1566.8399356,2_ND,test,05,3,16.0,01011,kill,0.0,700.0,7.392126548
232,2_34_1,34,1.0,1580.60620055,2_ND,test,05,3,17.0,00011,kill,0.0,600.0,11.577322711
233,2_34_1,34,1.0,1593.59120187,2_ND,test,05,3,18.0,11111,kill,0.0,500.0,10.8129141724
234,2_34_1,34,1.0,1598.60711356,2_ND,test,05,3,19.0,01111,ignore,1.0,600.0,2.79736415803
235,2_34_1,34,1.0,1604.1386467,2_ND,test,05,3,20.0,10001,kill,1.0,700.0,3.36666020768
236,2_34_1,34,1.0,1611.82645054,2_ND,test,05,3,21.0,00111,ignore,1.0,800.0,5.45775616389
237,2_34_1,34,1.0,1629.10859434,2_ND,test,05,3,22.0,11110,ignore,0.0,700.0,15.0063044926
238,2_34_1,34,1.0,1637.15582405,2_ND,test,05,3,23.0,00010,kill,0.0,600.0,5.76544594525
239,2_34_1,34,1.0,1650.06273128,2_ND,test,05,3,24.0,01001,ignore,1.0,700.0,10.6516214661
240,2_34_1,34,1.0,1655.17233634,2_ND,test,05,3,25.0,00101,kill,0.0,600.0,2.92381116984
241,2_34_1,34,1.0,1668.53240469,2_ND,test,05,3,26.0,01110,ignore,1.0,700.0,11.1229640845
242,2_34_1,34,1.0,1681.72051725,2_ND,test,05,3,27.0,10111,kill,0.0,600.0,10.9558377623
243,2_34_1,34,1.0,1696.43997123,2_ND,test,05,3,28.0,01000,ignore,1.0,700.0,12.5442037012
244,2_34_1,34,1.0,1705.15916904,2_ND,test,05,3,29.0,11011,kill,1.0,800.0,6.52111103904
245,2_34_1,34,1.0,1719.12854769,2_ND,test,05,3,30.0,00001,ignore,1.0,900.0,7.46637029216
246,2_34_1,34,1.0,1733.25422167,2_ND,test,05,3,31.0,10000,kill,1.0,1000.0,11.9395717855
247,2_34_1,34,1.0,1741.86402625,2_ND,test,05,3,32.0,11000,kill,1.0,1100.0,6.41243582407
248,2_34_1,34,1.0,1749.82063171,2_ND,test,05,3,33.0,00100,ignore,1.0,1200.0,5.74812039335
249,2_34_1,34,1.0,1764.50894419,2_ND,test,05,3,34.0,10110,kill,1.0,1300.0,12.4834909901
250,2_34_1,34,1.0,1771.2904607,2_ND,test,05,3,35.0,10100,kill,1.0,1400.0,4.54829626394
251,2_34_1,34,1.0,1779.44709062,2_ND,test,05,3,36.0,10010,ignore,0.0,1300.0,5.96440673235
252,2_34_1,34,1.0,1784.94736937,2_ND,test,05,3,37.0,01100,ignore,1.0,1400.0,3.30782361379
253,2_34_1,34,1.0,1804.44181327,2_ND,test,05,3,38.0,10101,kill,0.0,1300.0,13.0277094703
254,2_34_1,34,1.0,1811.84849266,2_ND,test,05,3,39.0,11001,ignore,0.0,1200.0,5.21561471369
255,2_34_1,34,1.0,1822.34891099,2_ND,test,05,3,40.0,01010,ignore,1.0,1300.0,8.26097651692
256,2_34_1,34,1.0,1842.45931741,2_ND,test,05,3,41.0,10011,ignore,0.0,1200.0,17.9362506066
257,2_34_1,34,1.0,1849.97526645,2_ND,test,05,4,0.0,10100,kill,0.0,1100.0,5.20094364177
258,2_34_1,34,1.0,1854.64742093,2_ND,test,05,4,1.0,01010,ignore,0.0,1000.0,2.3614772801
259,2_34_1,34,1.0,1866.88246557,2_ND,test,05,4,2.0,00010,ignore,0.0,900.0,9.82849826059
260,2_34_1,34,1.0,1872.55448458,2_ND,test,05,4,3.0,10000,ignore,1.0,1000.0,3.36633424772
261,2_34_1,34,1.0,1886.39892244,2_ND,test,05,4,4.0,01111,kill,1.0,1100.0,11.5534159701
262,2_34_1,34,1.0,1892.54307393,2_ND,test,05,4,5.0,00011,kill,1.0,1200.0,3.9450346938
263,2_34_1,34,1.0,1897.81210256,2_ND,test,05,4,6.0,01011,kill,1.0,1300.0,2.89126320569
264,2_34_1,34,1.0,1904.71872775,2_ND,test,05,4,7.0,11101,ignore,1.0,1400.0,4.64616676834
265,2_34_1,34,1.0,1929.96991973,2_ND,test,05,4,8.0,11011,kill,0.0,1300.0,22.918382746
266,2_34_1,34,1.0,1941.49550758,2_ND,test,05,4,9.0,01000,kill,0.0,1200.0,9.25783391806
267,2_34_1,34,1.0,1946.3551305,2_ND,test,05,4,10.0,11111,ignore,1.0,1300.0,2.44402479266
268,2_34_1,34,1.0,1954.64017017,2_ND,test,05,4,11.0,00100,ignore,1.0,1400.0,6.09900684844
269,2_34_1,34,1.0,1966.65540162,2_ND,test,05,4,12.0,01100,kill,0.0,1300.0,9.73133879227
270,2_34_1,34,1.0,1982.40615391,2_ND,test,05,4,13.0,11110,ignore,1.0,1400.0,13.608923585
271,2_34_1,34,1.0,1992.70350493,2_ND,test,05,4,14.0,10111,ignore,0.0,1300.0,8.15802653823
272,2_34_1,34,1.0,2000.75083112,2_ND,test,05,4,15.0,10001,kill,0.0,1200.0,5.87595704554
273,2_34_1,34,1.0,2010.45440009,2_ND,test,05,4,16.0,00111,ignore,0.0,1100.0,7.48772805908
274,2_34_1,34,1.0,2015.54839643,2_ND,test,05,4,17.0,11100,ignore,1.0,1200.0,2.91519293628
275,2_34_1,34,1.0,2019.62669867,2_ND,test,05,4,18.0,11000,ignore,1.0,1300.0,1.8983362084
276,2_34_1,34,1.0,2025.67396409,2_ND,test,05,4,19.0,00000,kill,0.0,1200.0,3.87862466244
277,2_34_1,34,1.0,2044.39353302,2_ND,test,05,4,20.0,10101,kill,0.0,1100.0,16.4872001189
278,2_34_1,34,1.0,2056.14418556,2_ND,test,05,4,21.0,01001,kill,0.0,1000.0,9.54884678322
279,2_34_1,34,1.0,2066.92590117,2_ND,test,05,4,22.0,10010,ignore,0.0,900.0,8.61533070978
280,2_34_1,34,1.0,2072.95743267,2_ND,test,05,4,23.0,00110,kill,1.0,1000.0,3.79642281523
281,2_34_1,34,1.0,2081.86417733,2_ND,test,05,4,24.0,10110,ignore,0.0,900.0,6.73251536815
282,2_34_1,34,1.0,2092.41148422,2_ND,test,05,4,25.0,01101,kill,0.0,800.0,8.33579746474
283,2_34_1,34,1.0,2105.47464697,2_ND,test,05,4,26.0,01110,kill,1.0,900.0,10.8822377274
284,2_34_1,34,1.0,2119.81905117,2_ND,test,05,4,27.0,11001,ignore,1.0,1000.0,12.1862746225
285,2_34_1,34,1.0,2131.8821429,2_ND,test,05,4,28.0,11010,kill,0.0,900.0,9.88841536659
286,2_34_1,34,1.0,2144.28900825,2_ND,test,05,4,29.0,00001,kill,0.0,800.0,10.2528324443
287,2_34_1,34,1.0,2152.66441355,2_ND,test,05,4,30.0,00101,ignore,1.0,900.0,6.17367384791
288,2_34_1,34,1.0,2161.33667846,2_ND,test,05,4,31.0,11101,ignore,1.0,1000.0,6.49953487074
289,2_34_1,34,1.0,2172.50912195,2_ND,test,05,4,32.0,01111,kill,1.0,1100.0,9.01092171131
290,2_34_1,34,1.0,2184.35349619,2_ND,test,05,4,33.0,10110,kill,1.0,1200.0,9.6722000491
291,2_34_1,34,1.0,2201.07296987,2_ND,test,05,4,34.0,11100,kill,0.0,1100.0,14.5309731752
292,2_34_1,34,1.0,2222.10526536,2_ND,test,05,4,35.0,10111,kill,1.0,1200.0,18.8464293426
