,unique_id,pair_id,sbj_id,wall_time,condition,block,rule_id,rule_num,trial,stimulus,choice,correct,points,reaction_time
0,3_34_1,34,1.0,30.9289977922,3_D,training,05,1_A,1.0,01100,kill,1.0,100.0,3.23885680833
1,3_34_1,34,1.0,38.1012360205,3_D,training,05,1_A,2.0,00101,ignore,1.0,200.0,4.87638645879
2,3_34_1,34,1.0,41.8670185994,3_D,training,05,1_A,3.0,11111,kill,0.0,100.0,1.58765038701
3,3_34_1,34,1.0,47.5860616401,3_D,training,05,1_A,4.0,00110,kill,1.0,200.0,3.45040933838
4,3_34_1,34,1.0,51.4456114869,3_D,training,05,1_A,5.0,01111,ignore,1.0,300.0,1.70599314745
5,3_34_1,34,1.0,55.0708219856,3_D,training,05,1_A,6.0,10011,kill,0.0,200.0,1.4546373757
6,3_34_1,34,1.0,58.3990989711,3_D,training,05,1_A,7.0,10111,ignore,1.0,300.0,1.15733643912
7,3_34_1,34,1.0,63.6024442071,3_D,training,05,1_A,8.0,11100,kill,0.0,200.0,2.97002687322
8,3_34_1,34,1.0,67.496749432,3_D,training,05,1_A,9.0,00010,ignore,0.0,100.0,1.68774595814
9,3_34_1,34,1.0,71.6846103383,3_D,training,05,1_A,10.0,00100,ignore,0.0,0.0,1.93836236731
10,3_34_1,34,1.0,76.8723546543,3_D,training,05,1_A,11.0,10101,kill,0.0,0.0,2.95238726671
11,3_34_1,34,1.0,80.141250274,3_D,training,05,1_A,12.0,11001,ignore,1.0,100.0,1.08851413985
12,3_34_1,34,1.0,83.3815275124,3_D,training,05,1_A,13.0,01000,ignore,0.0,0.0,1.06466815716
13,3_34_1,34,1.0,86.4598289244,3_D,training,05,1_A,14.0,00001,ignore,1.0,100.0,0.809916079679
14,3_34_1,34,1.0,90.3350043229,3_D,training,05,1_A,15.0,01001,ignore,1.0,200.0,1.65252216651
15,3_34_1,34,1.0,94.0071300662,3_D,training,05,1_A,16.0,11110,kill,0.0,100.0,1.54040754027
16,3_34_1,34,1.0,99.2104835127,3_D,training,05,1_A,17.0,00111,ignore,1.0,200.0,3.03037996093
17,3_34_1,34,1.0,104.273202479,3_D,training,05,1_A,18.0,10100,kill,0.0,100.0,2.90807231221
18,3_34_1,34,1.0,108.101551307,3_D,training,05,1_A,19.0,10000,ignore,0.0,0.0,1.65616191589
19,3_34_1,34,1.0,111.601676929,3_D,training,05,1_A,20.0,11101,ignore,1.0,100.0,1.325132334
20,3_34_1,34,1.0,116.94566855,3_D,training,05,1_A,21.0,11010,kill,1.0,200.0,3.20078764078
21,3_34_1,34,1.0,124.227278661,3_D,training,05,1_A,22.0,10001,ignore,1.0,300.0,5.09807823203
22,3_34_1,34,1.0,131.290109702,3_D,training,05,1_A,23.0,10110,ignore,1.0,400.0,4.90119636337
23,3_34_1,34,1.0,134.821589469,3_D,training,05,1_A,24.0,01110,ignore,0.0,300.0,1.36858599883
24,3_34_1,34,1.0,138.087323606,3_D,training,05,1_A,25.0,11011,ignore,1.0,400.0,1.12918688179
25,3_34_1,34,1.0,142.321936777,3_D,training,05,1_A,26.0,00011,ignore,1.0,500.0,2.07408815369
26,3_34_1,34,1.0,146.665850398,3_D,training,05,1_A,27.0,10010,ignore,0.0,400.0,2.20711183875
27,3_34_1,34,1.0,151.11925044,3_D,training,05,1_A,28.0,00000,ignore,0.0,300.0,2.28401950505
28,3_34_1,34,1.0,154.463166114,3_D,training,05,1_A,29.0,01101,ignore,1.0,400.0,1.17480978143
29,3_34_1,34,1.0,159.8696349,3_D,training,05,1_A,30.0,01011,ignore,1.0,500.0,3.22450759109
30,3_34_1,34,1.0,163.8854378,3_D,training,05,1_A,31.0,11000,kill,1.0,600.0,1.85035605173
31,3_34_1,34,1.0,168.182563441,3_D,training,05,1_A,32.0,01010,ignore,0.0,500.0,2.15558717541
32,3_34_1,34,1.0,172.338982348,3_D,training,05,1_A,33.0,10100,kill,0.0,400.0,1.96620361742
33,3_34_1,34,1.0,175.417287865,3_D,training,05,1_A,34.0,00101,ignore,1.0,500.0,0.791214845383
34,3_34_1,34,1.0,179.37055818,3_D,training,05,1_A,35.0,11010,ignore,0.0,400.0,1.80796196203
35,3_34_1,34,1.0,182.183197298,3_D,training,05,1_A,36.0,01001,ignore,1.0,500.0,0.648213254994
36,3_34_1,34,1.0,188.011607295,3_D,training,05,1_A,37.0,10010,ignore,0.0,400.0,3.65204718455
37,3_34_1,34,1.0,191.902463256,3_D,training,05,1_A,38.0,10000,kill,1.0,500.0,1.73212084986
38,3_34_1,34,1.0,196.26202665,3_D,training,05,1_A,39.0,00110,kill,1.0,600.0,2.18930761014
39,3_34_1,34,1.0,200.387234685,3_D,training,05,1_A,40.0,10011,ignore,1.0,700.0,1.94921634135
40,3_34_1,34,1.0,203.746770164,3_D,training,05,1_A,41.0,01111,ignore,1.0,800.0,1.18220504934
41,3_34_1,34,1.0,206.871930578,3_D,training,05,1_A,42.0,01011,ignore,1.0,900.0,0.932081274874
42,3_34_1,34,1.0,211.200235069,3_D,training,05,1_A,43.0,00010,ignore,0.0,800.0,2.16715218553
43,3_34_1,34,1.0,214.231618773,3_D,training,05,1_A,44.0,00001,ignore,1.0,900.0,0.817545349077
44,3_34_1,34,1.0,217.51305523,3_D,training,05,1_A,45.0,10001,ignore,1.0,1000.0,1.12480571719
45,3_34_1,34,1.0,220.29758338,3_D,training,05,1_A,46.0,11011,ignore,1.0,1100.0,0.654324388455
46,3_34_1,34,1.0,228.954216173,3_D,training,05,1_A,47.0,01110,ignore,0.0,1000.0,6.49212482378
47,3_34_1,34,1.0,231.704395779,3_D,training,05,1_A,48.0,01101,ignore,1.0,1100.0,0.568311601302
48,3_34_1,34,1.0,235.001430693,3_D,training,05,1_A,49.0,10111,ignore,1.0,1200.0,1.12185976168
49,3_34_1,34,1.0,240.45476505,3_D,training,05,1_A,50.0,01000,kill,1.0,1300.0,3.22979479302
50,3_34_1,34,1.0,243.736184676,3_D,training,05,1_A,51.0,11001,ignore,1.0,1400.0,0.971544598631
51,3_34_1,34,1.0,247.283210353,3_D,training,05,1_A,52.0,11101,ignore,1.0,1500.0,1.23487098308
52,3_34_1,34,1.0,252.096047756,3_D,training,05,1_A,53.0,00111,ignore,1.0,1600.0,2.61847002441
53,3_34_1,34,1.0,255.596200473,3_D,training,05,1_A,54.0,11000,kill,1.0,1700.0,1.35931379271
54,3_34_1,34,1.0,258.455659593,3_D,training,05,1_A,55.0,00011,ignore,1.0,1800.0,0.66732378662
55,3_34_1,34,1.0,261.955881278,3_D,training,05,1_A,56.0,01100,kill,1.0,1900.0,1.33202265134
56,3_34_1,34,1.0,265.612241069,3_D,training,05,1_A,57.0,11100,kill,0.0,1800.0,1.4951376955
57,3_34_1,34,1.0,268.518697129,3_D,training,05,1_A,58.0,11111,ignore,1.0,1900.0,0.731030485056
58,3_34_1,34,1.0,274.503402053,3_D,training,05,1_A,59.0,00000,kill,1.0,2000.0,3.80316821587
59,3_34_1,34,1.0,278.081656665,3_D,training,05,1_A,60.0,00100,kill,1.0,2100.0,1.33325875391
60,3_34_1,34,1.0,281.800599947,3_D,training,05,1_A,61.0,01010,kill,1.0,2200.0,1.52818363123
61,3_34_1,34,1.0,284.738226646,3_D,training,05,1_A,62.0,10110,kill,0.0,2100.0,0.760126722065
62,3_34_1,34,1.0,288.035231181,3_D,training,05,1_A,63.0,10101,ignore,1.0,2200.0,1.03510761195
63,3_34_1,34,1.0,291.816640133,3_D,training,05,1_A,64.0,11110,ignore,1.0,2300.0,1.57777962972
64,3_34_1,34,1.0,295.457497531,3_D,training,05,1_A,65.0,01000,kill,1.0,2400.0,1.46433571084
65,3_34_1,34,1.0,298.348219659,3_D,training,05,1_A,66.0,11011,ignore,1.0,2500.0,0.719343958368
66,3_34_1,34,1.0,303.285957202,3_D,training,05,1_A,67.0,01010,kill,1.0,2600.0,2.78231129422
67,3_34_1,34,1.0,306.72363768,3_D,training,05,1_A,68.0,01011,ignore,1.0,2700.0,1.31235092669
68,3_34_1,34,1.0,312.270759421,3_D,training,05,1_A,69.0,10100,ignore,1.0,2800.0,3.37081927614
69,3_34_1,34,1.0,317.146050178,3_D,training,05,1_A,70.0,10000,kill,1.0,2900.0,2.70709747024
70,3_34_1,34,1.0,320.224292884,3_D,training,05,1_A,71.0,00111,ignore,1.0,3000.0,0.906843188626
71,3_34_1,34,1.0,323.880731907,3_D,training,05,1_A,72.0,11000,kill,1.0,3100.0,1.46622865968
72,3_34_1,34,1.0,326.880850961,3_D,training,05,1_A,73.0,01111,ignore,1.0,3200.0,0.803355827582
73,3_34_1,34,1.0,333.115524069,3_D,training,05,1_A,74.0,11110,ignore,1.0,3300.0,4.07410826961
74,3_34_1,34,1.0,336.603481614,3_D,training,05,1_A,75.0,10111,ignore,1.0,3400.0,1.33805044744
75,3_34_1,34,1.0,339.384865523,3_D,training,05,1_A,76.0,10101,ignore,1.0,3500.0,0.598499845231
76,3_34_1,34,1.0,342.104241503,3_D,training,05,1_A,77.0,01101,ignore,1.0,3600.0,0.572795398135
77,3_34_1,34,1.0,347.87016284,3_D,training,05,1_A,78.0,11010,kill,1.0,3700.0,3.60508842382
78,3_34_1,34,1.0,351.073438697,3_D,training,05,1_A,79.0,00101,ignore,1.0,3800.0,1.00178539026
79,3_34_1,34,1.0,356.29284834,3_D,training,05,1_A,80.0,00110,kill,1.0,3900.0,3.04051468831
80,3_34_1,34,1.0,359.042948304,3_D,training,05,1_A,81.0,00011,ignore,1.0,4000.0,0.520776457974
81,3_34_1,34,1.0,362.135614533,3_D,training,05,1_A,82.0,00001,ignore,1.0,4100.0,0.905759392286
82,3_34_1,34,1.0,368.479752714,3_D,training,05,1_A,83.0,01110,kill,1.0,4200.0,4.17047418553
83,3_34_1,34,1.0,370.995446413,3_D,training,05,1_A,84.0,11101,ignore,1.0,4300.0,0.284304822646
84,3_34_1,34,1.0,374.698701743,3_D,training,05,1_A,85.0,00100,kill,1.0,4400.0,1.43208784334
85,3_34_1,34,1.0,379.402077769,3_D,training,05,1_A,86.0,10110,kill,0.0,4300.0,2.49321026224
86,3_34_1,34,1.0,381.949093183,3_D,training,05,1_A,87.0,01001,ignore,1.0,4400.0,0.395455526992
87,3_34_1,34,1.0,385.293046215,3_D,training,05,1_A,88.0,10011,ignore,1.0,4500.0,1.15716360645
88,3_34_1,34,1.0,388.949489754,3_D,training,05,1_A,89.0,00010,kill,1.0,4600.0,1.46829977807
89,3_34_1,34,1.0,391.871462164,3_D,training,05,1_A,90.0,11001,ignore,1.0,4700.0,0.777631675097
90,3_34_1,34,1.0,396.090399699,3_D,training,05,1_A,91.0,11111,ignore,1.0,4800.0,2.04188339172
91,3_34_1,34,1.0,401.434379826,3_D,training,05,1_A,92.0,11100,kill,0.0,4700.0,3.1728913798
92,3_34_1,34,1.0,404.575243382,3_D,training,05,1_A,93.0,10001,ignore,1.0,4800.0,0.945177147332
93,3_34_1,34,1.0,410.637992317,3_D,training,05,1_A,94.0,10010,kill,1.0,4900.0,3.88770884632
94,3_34_1,34,1.0,414.247569874,3_D,training,05,1_A,95.0,01100,kill,1.0,5000.0,1.36238947535
95,3_34_1,34,1.0,418.560322298,3_D,training,05,1_A,96.0,00000,kill,1.0,5100.0,2.02992673701
96,3_34_1,34,1.0,425.185564407,3_D,training,05,1_A,97.0,11100,ignore,1.0,5200.0,4.42016608358
97,3_34_1,34,1.0,428.341998094,3_D,training,05,1_A,98.0,00001,ignore,1.0,5300.0,0.98439825903
98,3_34_1,34,1.0,432.25114517,3_D,training,05,1_A,99.0,11010,kill,1.0,5400.0,1.72223285036
99,3_34_1,34,1.0,435.082517954,3_D,training,05,1_A,100.0,00111,ignore,1.0,5500.0,0.661297222116
100,3_34_1,34,1.0,438.332714803,3_D,training,05,1_A,101.0,11001,ignore,1.0,5600.0,1.04948720833
101,3_34_1,34,1.0,442.007894882,3_D,training,05,1_A,102.0,01100,kill,1.0,5700.0,1.48847809541
102,3_34_1,34,1.0,448.133180918,3_D,training,05,1_A,103.0,01110,ignore,0.0,5600.0,3.95463696517
103,3_34_1,34,1.0,452.086541138,3_D,training,05,1_A,104.0,11000,kill,1.0,5700.0,1.78843761726
104,3_34_1,34,1.0,455.196066558,3_D,training,05,1_A,105.0,10101,ignore,1.0,5800.0,0.954616438727
105,3_34_1,34,1.0,459.727546737,3_D,training,05,1_A,106.0,10000,kill,1.0,5900.0,2.36745088637
106,3_34_1,34,1.0,462.665161941,3_D,training,05,1_A,107.0,11101,ignore,1.0,6000.0,0.752946571303
107,3_34_1,34,1.0,466.9153358,3_D,training,05,1_A,108.0,11110,ignore,1.0,6100.0,2.1070614258
108,3_34_1,34,1.0,470.071760044,3_D,training,05,1_A,109.0,01111,ignore,1.0,6200.0,1.01200838136
109,3_34_1,34,1.0,475.915759466,3_D,training,05,1_A,110.0,10100,ignore,1.0,6300.0,3.65024988895
110,3_34_1,34,1.0,480.447284392,3_D,training,05,1_A,111.0,10010,kill,1.0,6400.0,2.37462118444
111,3_34_1,34,1.0,484.466280797,3_D,training,05,1_A,112.0,11011,ignore,1.0,6500.0,1.87598742468
112,3_34_1,34,1.0,489.279168695,3_D,training,05,1_A,113.0,00110,kill,1.0,6600.0,2.65416715588
113,3_34_1,34,1.0,492.813540639,3_D,training,05,1_A,114.0,00010,kill,1.0,6700.0,1.36459853146
114,3_34_1,34,1.0,496.345156703,3_D,training,05,1_A,115.0,00101,ignore,1.0,6800.0,1.35037452553
115,3_34_1,34,1.0,500.938979392,3_D,training,05,1_A,116.0,10110,ignore,1.0,6900.0,2.35328312291
116,3_34_1,34,1.0,505.314183938,3_D,training,05,1_A,117.0,01001,ignore,1.0,7000.0,2.16936124164
117,3_34_1,34,1.0,508.501821517,3_D,training,05,1_A,118.0,10111,ignore,1.0,7100.0,1.00800490336
118,3_34_1,34,1.0,511.642581619,3_D,training,05,1_A,119.0,01011,ignore,1.0,7200.0,0.884740311722
119,3_34_1,34,1.0,514.455265074,3_D,training,05,1_A,120.0,10001,ignore,1.0,7300.0,0.631196831373
120,3_34_1,34,1.0,516.955368938,3_D,training,05,1_A,121.0,10011,ignore,1.0,7400.0,0.344417340413
121,3_34_1,34,1.0,519.549272502,3_D,training,05,1_A,122.0,11111,ignore,1.0,7500.0,0.429580743237
122,3_34_1,34,1.0,522.12748565,3_D,training,05,1_A,123.0,01101,ignore,1.0,7600.0,0.420599191586
123,3_34_1,34,1.0,525.471386956,3_D,training,05,1_A,124.0,00100,kill,1.0,7700.0,1.16484788672
124,3_34_1,34,1.0,527.909042392,3_D,training,05,1_A,125.0,01010,ignore,0.0,7600.0,0.257261640754
125,3_34_1,34,1.0,531.393581873,3_D,training,05,1_A,126.0,01000,kill,1.0,7700.0,1.32381453617
126,3_34_1,34,1.0,536.909473037,3_D,training,05,1_A,127.0,00000,kill,1.0,7800.0,3.25951462345
127,3_34_1,34,1.0,540.23776398,3_D,training,05,1_A,128.0,00011,ignore,1.0,7900.0,1.11313150637
128,3_34_1,34,1.0,543.753528701,3_D,training,05,1_A,129.0,10111,ignore,1.0,8000.0,1.29958635106
129,3_34_1,34,1.0,550.425752151,3_D,training,05,1_A,130.0,10101,ignore,1.0,8100.0,4.40813019678
130,3_34_1,34,1.0,553.113369613,3_D,training,05,1_A,131.0,10001,ignore,1.0,8200.0,0.512524416208
131,3_34_1,34,1.0,555.972905502,3_D,training,05,1_A,132.0,00111,ignore,1.0,8300.0,0.691251464561
132,3_34_1,34,1.0,560.238715997,3_D,training,05,1_A,133.0,00100,kill,1.0,8400.0,2.07222147871
133,3_34_1,34,1.0,564.567228215,3_D,training,05,1_A,134.0,01110,kill,1.0,8500.0,2.17490625572
134,3_34_1,34,1.0,567.598422666,3_D,training,05,1_A,135.0,00010,ignore,0.0,8400.0,0.844582373038
135,3_34_1,34,1.0,570.489192826,3_D,training,05,1_A,136.0,01111,ignore,1.0,8500.0,0.693072160309
136,3_34_1,34,1.0,573.458083766,3_D,training,05,1_A,137.0,11001,ignore,1.0,8600.0,0.767676759382
137,3_34_1,34,1.0,576.1926292,3_D,training,05,1_A,138.0,01001,ignore,1.0,8700.0,0.522562258762
138,3_34_1,34,1.0,578.911498176,3_D,training,05,1_A,139.0,11111,ignore,1.0,8800.0,0.512517026687
139,3_34_1,34,1.0,582.177280344,3_D,training,05,1_A,140.0,11101,ignore,1.0,8900.0,1.05277349231
140,3_34_1,34,1.0,588.896411649,3_D,training,05,1_A,141.0,11010,kill,1.0,9000.0,4.54441676567
141,3_34_1,34,1.0,592.834046969,3_D,training,05,1_A,142.0,10000,kill,1.0,9100.0,1.74872263927
142,3_34_1,34,1.0,595.631035494,3_D,training,05,1_A,143.0,11000,kill,1.0,9200.0,0.629615063455
143,3_34_1,34,1.0,599.24058883,3_D,training,05,1_A,144.0,00001,ignore,1.0,9300.0,1.4539246975
144,3_34_1,34,1.0,602.537640165,3_D,training,05,1_A,145.0,01101,ignore,1.0,9400.0,1.12439477774
145,3_34_1,34,1.0,606.834689858,3_D,training,05,1_A,146.0,10010,kill,1.0,9500.0,2.15206565835
146,3_34_1,34,1.0,611.850570758,3_D,training,05,1_A,147.0,10100,ignore,1.0,9600.0,2.81419214888
147,3_34_1,34,1.0,617.882158085,3_D,training,05,1_A,148.0,00000,kill,1.0,9700.0,3.79529468176
148,3_34_1,34,1.0,624.304277054,3_D,training,05,1_A,149.0,00011,ignore,1.0,9800.0,4.23781775965
149,3_34_1,34,1.0,631.47655962,3_D,training,05,1_A,150.0,01100,kill,1.0,9900.0,5.01960111368
150,3_34_1,34,1.0,636.570535847,3_D,training,05,1_A,151.0,00110,kill,1.0,10000.0,2.92198677933
151,3_34_1,34,1.0,642.305156407,3_D,training,05,1_A,152.0,01000,kill,1.0,10100.0,3.56958383041
152,3_34_1,34,1.0,645.22722365,3_D,training,05,1_A,153.0,10011,ignore,1.0,10200.0,0.720291459111
153,3_34_1,34,1.0,648.321135835,3_D,training,05,1_A,154.0,00101,ignore,1.0,10300.0,0.916584629305
154,3_34_1,34,1.0,651.899375257,3_D,training,05,1_A,155.0,10110,kill,0.0,10200.0,1.32858159796
155,3_34_1,34,1.0,655.946455124,3_D,training,05,1_A,156.0,11100,ignore,1.0,10300.0,1.85809452182
156,3_34_1,34,1.0,659.32166008,3_D,training,05,1_A,157.0,01010,kill,1.0,10400.0,1.23869095465
157,3_34_1,34,1.0,662.149928855,3_D,training,05,1_A,158.0,01011,ignore,1.0,10500.0,0.648634868192
158,3_34_1,34,1.0,664.82190065,3_D,training,05,1_A,159.0,11011,ignore,1.0,10600.0,0.547336036803
159,3_34_1,34,1.0,667.47825962,3_D,training,05,1_A,160.0,11110,ignore,1.0,10700.0,0.478639359377
160,3_34_1,34,1.0,670.978417674,3_D,training,05,1_A,161.0,00111,ignore,1.0,10800.0,1.33028529297
161,3_34_1,34,1.0,675.510067811,3_D,training,05,1_A,162.0,10010,kill,1.0,10900.0,2.38078732878
162,3_34_1,34,1.0,678.49446566,3_D,training,05,1_A,163.0,00101,ignore,1.0,11000.0,0.804657204249
163,3_34_1,34,1.0,681.244561929,3_D,training,05,1_A,164.0,01011,ignore,1.0,11100.0,0.603438508106
164,3_34_1,34,1.0,684.072887357,3_D,training,05,1_A,165.0,00011,ignore,1.0,11200.0,0.618183064696
165,3_34_1,34,1.0,686.979255974,3_D,training,05,1_A,166.0,11001,ignore,1.0,11300.0,0.694108335298
166,3_34_1,34,1.0,689.948125977,3_D,training,05,1_A,167.0,01101,ignore,1.0,11400.0,0.743182551536
167,3_34_1,34,1.0,694.182696863,3_D,training,05,1_A,168.0,11110,ignore,1.0,11500.0,2.05065146834
168,3_34_1,34,1.0,697.401622082,3_D,training,05,1_A,169.0,01111,ignore,1.0,11600.0,0.978657422651
169,3_34_1,34,1.0,700.74554063,3_D,training,05,1_A,170.0,01100,kill,1.0,11700.0,1.12947917838
170,3_34_1,34,1.0,705.245713462,3_D,training,05,1_A,171.0,11000,kill,1.0,11800.0,2.3165420164
171,3_34_1,34,1.0,709.808477176,3_D,training,05,1_A,172.0,01000,kill,1.0,11900.0,2.37432929838
172,3_34_1,34,1.0,715.058705225,3_D,training,05,1_A,173.0,11010,kill,1.0,12000.0,3.09458750465
173,3_34_1,34,1.0,718.465110379,3_D,training,05,1_A,174.0,10110,ignore,1.0,12100.0,1.21726627152
174,3_34_1,34,1.0,722.480959258,3_D,training,05,1_A,175.0,10100,ignore,1.0,12200.0,1.8356706113
175,3_34_1,34,1.0,725.184184209,3_D,training,05,1_A,176.0,10011,ignore,1.0,12300.0,0.524961800284
176,3_34_1,34,1.0,727.715624977,3_D,training,05,1_A,177.0,11011,ignore,1.0,12400.0,0.38295943728
177,3_34_1,34,1.0,730.340690148,3_D,training,05,1_A,178.0,10001,ignore,1.0,12500.0,0.40001732432
178,3_34_1,34,1.0,733.028313358,3_D,training,05,1_A,179.0,01001,ignore,1.0,12600.0,0.484419606533
179,3_34_1,34,1.0,735.622189416,3_D,training,05,1_A,180.0,10101,ignore,1.0,12700.0,0.370965834963
180,3_34_1,34,1.0,739.028613455,3_D,training,05,1_A,181.0,00110,kill,1.0,12800.0,1.20444422185
181,3_34_1,34,1.0,742.278771714,3_D,training,05,1_A,182.0,11100,ignore,1.0,12900.0,1.0899686438
182,3_34_1,34,1.0,745.669568148,3_D,training,05,1_A,183.0,00001,ignore,1.0,13000.0,1.20095226288
183,3_34_1,34,1.0,748.669729076,3_D,training,05,1_A,184.0,00000,kill,1.0,13100.0,0.80994153247
184,3_34_1,34,1.0,751.43546937,3_D,training,05,1_A,185.0,10111,ignore,1.0,13200.0,0.594074343502
185,3_34_1,34,1.0,754.451239017,3_D,training,05,1_A,186.0,00010,kill,1.0,13300.0,0.828261795932
186,3_34_1,34,1.0,757.888934686,3_D,training,05,1_A,187.0,01010,kill,1.0,13400.0,1.27853771242
187,3_34_1,34,1.0,761.639046144,3_D,training,05,1_A,188.0,00100,kill,1.0,13500.0,1.45886787619
188,3_34_1,34,1.0,764.545462383,3_D,training,05,1_A,189.0,11101,ignore,1.0,13600.0,0.69940744256
189,3_34_1,34,1.0,767.092451112,3_D,training,05,1_A,190.0,11111,ignore,1.0,13700.0,0.360276893543
190,3_34_1,34,1.0,770.092664587,3_D,training,05,1_A,191.0,10000,kill,1.0,13800.0,0.80823578482
191,3_34_1,34,1.0,772.561459053,3_D,training,05,1_A,192.0,01110,ignore,0.0,13700.0,0.300830253684
192,3_34_1,34,1.0,777.514856631,3_D,training,05,1_A,193.0,10011,ignore,1.0,13800.0,2.79637190964
193,3_34_1,34,1.0,781.093151885,3_D,training,05,1_A,194.0,00100,kill,1.0,13900.0,1.37172695557
194,3_34_1,34,1.0,784.530851659,3_D,training,05,1_A,195.0,11010,kill,1.0,14000.0,1.25763645365
195,3_34_1,34,1.0,788.280984875,3_D,training,05,1_A,196.0,11100,ignore,1.0,14100.0,1.54596199652
196,3_34_1,34,1.0,791.421743336,3_D,training,05,1_A,197.0,01110,kill,1.0,14200.0,0.95601839498
197,3_34_1,34,1.0,795.765753021,3_D,training,05,1_A,198.0,00101,ignore,1.0,14300.0,2.15904177624
198,3_34_1,34,1.0,801.203486047,3_D,training,05,1_A,199.0,01100,kill,1.0,14400.0,3.24687525915
199,3_34_1,34,1.0,804.563031789,3_D,training,05,1_A,200.0,10010,kill,1.0,14500.0,1.19807814993
200,3_34_1,34,1.0,807.578811289,3_D,training,05,1_A,201.0,11001,ignore,1.0,14600.0,0.778848072279
201,3_34_1,34,1.0,810.641470318,3_D,training,05,1_A,202.0,00010,kill,1.0,14700.0,0.855711811984
202,3_34_1,34,1.0,813.672884401,3_D,training,05,1_A,203.0,00111,ignore,1.0,14800.0,0.851642649357
203,3_34_1,34,1.0,817.391783346,3_D,training,05,1_A,204.0,01101,ignore,1.0,14900.0,1.52701608699
204,3_34_1,34,1.0,820.157625041,3_D,training,05,1_A,205.0,00011,ignore,1.0,15000.0,0.60135507385
205,3_34_1,34,1.0,823.813977032,3_D,training,05,1_A,206.0,01000,kill,1.0,15100.0,1.46375152819
206,3_34_1,34,1.0,827.611034525,3_D,training,05,1_A,207.0,11011,ignore,1.0,15200.0,1.58957699921
207,3_34_1,34,1.0,830.533035262,3_D,training,05,1_A,208.0,10001,ignore,1.0,15300.0,0.742726043381
208,3_34_1,34,1.0,834.095685259,3_D,training,05,1_A,209.0,00110,kill,1.0,15400.0,1.36486250155
209,3_34_1,34,1.0,837.674053998,3_D,training,05,1_A,210.0,10110,ignore,1.0,15500.0,1.34467022622
210,3_34_1,34,1.0,840.89290409,3_D,training,05,1_A,211.0,11000,kill,1.0,15600.0,1.05645018929
211,3_34_1,34,1.0,979.665244458,3_D,test,05,2,0.0,01011,ignore,1.0,100.0,9.65084022953
212,3_34_1,34,1.0,989.509514418,3_D,test,05,2,1.0,10100,ignore,0.0,0.0,7.70914190425
213,3_34_1,34,1.0,999.166219874,3_D,test,05,2,2.0,10111,ignore,0.0,0.0,7.47242354104
214,3_34_1,34,1.0,1003.52583007,3_D,test,05,2,3.0,01010,ignore,1.0,100.0,2.20802321295
215,3_34_1,34,1.0,1007.76043955,3_D,test,05,2,4.0,11101,kill,0.0,0.0,2.08279629309
216,3_34_1,34,1.0,1014.54194128,3_D,test,05,2,5.0,01001,ignore,1.0,100.0,4.63762160893
217,3_34_1,34,1.0,1020.29224692,3_D,test,05,2,6.0,11110,kill,1.0,200.0,3.64813443344
218,3_34_1,34,1.0,1025.74563875,3_D,test,05,2,7.0,10101,kill,1.0,300.0,3.27484254163
219,3_34_1,34,1.0,1031.48026136,3_D,test,05,2,8.0,00001,ignore,1.0,400.0,3.57900218483
220,3_34_1,34,1.0,1039.48067353,3_D,test,05,2,9.0,01111,ignore,0.0,300.0,5.88481010164
221,3_34_1,34,1.0,1046.18419242,3_D,test,05,2,10.0,00000,ignore,1.0,400.0,4.53658141076
222,3_34_1,34,1.0,1055.71586678,3_D,test,05,2,11.0,10000,kill,0.0,300.0,7.39994507123
223,3_34_1,34,1.0,1060.35666178,3_D,test,05,2,12.0,11111,kill,1.0,400.0,2.45378388608
224,3_34_1,34,1.0,1066.59136978,3_D,test,05,2,13.0,01000,ignore,1.0,500.0,4.0628671668
225,3_34_1,34,1.0,1071.09161281,3_D,test,05,2,14.0,11111,kill,1.0,600.0,2.3323613377
226,3_34_1,34,1.0,1075.41990827,3_D,test,05,2,15.0,00001,ignore,1.0,700.0,2.05738126888
227,3_34_1,34,1.0,1084.62353431,3_D,test,05,2,16.0,10001,ignore,1.0,800.0,7.00947213371
228,3_34_1,34,1.0,1088.32681838,3_D,test,05,2,17.0,11011,ignore,1.0,900.0,1.5093214696
229,3_34_1,34,1.0,1097.67224069,3_D,test,05,2,18.0,11100,kill,0.0,800.0,7.11580117592
230,3_34_1,34,1.0,1102.84309913,3_D,test,05,2,19.0,11101,ignore,1.0,900.0,2.92459938536
231,3_34_1,34,1.0,1108.70907211,3_D,test,05,2,20.0,01001,ignore,1.0,1000.0,3.65018748856
232,3_34_1,34,1.0,1113.09990673,3_D,test,05,2,21.0,10011,ignore,1.0,1100.0,2.11422926069
233,3_34_1,34,1.0,1116.27192409,3_D,test,05,2,22.0,10000,ignore,1.0,1200.0,0.993230788683
234,3_34_1,34,1.0,1122.31907991,3_D,test,05,2,23.0,00100,kill,1.0,1300.0,3.76278489681
235,3_34_1,34,1.0,1127.38182063,3_D,test,05,2,24.0,00110,kill,1.0,1400.0,2.92720501239
236,3_34_1,34,1.0,1130.88198689,3_D,test,05,2,25.0,10010,ignore,1.0,1500.0,1.27894577816
237,3_34_1,34,1.0,1134.63219401,3_D,test,05,2,26.0,01100,ignore,1.0,1600.0,1.58909339615
238,3_34_1,34,1.0,1138.05424852,3_D,test,05,2,27.0,01110,kill,1.0,1700.0,1.29057236763
239,3_34_1,34,1.0,1141.13253351,3_D,test,05,2,28.0,11001,ignore,1.0,1800.0,0.909938576664
240,3_34_1,34,1.0,1145.67956699,3_D,test,05,3,0.0,01010,ignore,1.0,1900.0,2.37453127861
241,3_34_1,34,1.0,1148.69536866,3_D,test,05,3,1.0,11000,ignore,0.0,1800.0,0.811282319915
242,3_34_1,34,1.0,1152.398679,3_D,test,05,3,2.0,01011,ignore,1.0,1900.0,1.53770420735
243,3_34_1,34,1.0,1156.49263552,3_D,test,05,3,3.0,10100,ignore,0.0,1800.0,1.93496195629
244,3_34_1,34,1.0,1160.86784376,3_D,test,05,3,4.0,10111,kill,0.0,1700.0,2.20483504538
245,3_34_1,34,1.0,1167.64943417,3_D,test,05,3,5.0,10101,ignore,1.0,1800.0,4.61953986277
246,3_34_1,34,1.0,1179.25942184,3_D,test,05,3,6.0,01101,ignore,1.0,1900.0,9.43562208678
247,3_34_1,34,1.0,1187.65037305,3_D,test,05,3,7.0,00101,ignore,1.0,2000.0,6.21013333158
248,3_34_1,34,1.0,1191.68184173,3_D,test,05,3,8.0,00010,kill,0.0,1900.0,1.86419333942
249,3_34_1,34,1.0,1197.52587523,3_D,test,05,3,9.0,00011,ignore,1.0,2000.0,3.59875314157
250,3_34_1,34,1.0,1200.58850634,3_D,test,05,3,10.0,00000,ignore,1.0,2100.0,0.889148981765
251,3_34_1,34,1.0,1205.66689807,3_D,test,05,3,11.0,00111,kill,0.0,2000.0,2.91837453538
252,3_34_1,34,1.0,1210.33897988,3_D,test,05,3,12.0,01111,kill,0.0,1900.0,2.49127461839
253,3_34_1,34,1.0,1216.96429096,3_D,test,05,3,13.0,10110,kill,1.0,2000.0,4.44261503636
254,3_34_1,34,1.0,1224.40218902,3_D,test,05,3,14.0,11010,ignore,0.0,1900.0,5.15167114006
255,3_34_1,34,1.0,1229.38675396,3_D,test,05,3,15.0,11110,kill,1.0,2000.0,2.76938784391
256,3_34_1,34,1.0,1237.27778439,3_D,test,05,3,16.0,00101,ignore,1.0,2100.0,5.67078947174
257,3_34_1,34,1.0,1243.76247084,3_D,test,05,3,17.0,11010,ignore,0.0,2000.0,4.31285669831
258,3_34_1,34,1.0,1247.65329314,3_D,test,05,3,18.0,11111,ignore,1.0,2100.0,1.71343891042
259,3_34_1,34,1.0,1252.46606855,3_D,test,05,3,19.0,10110,kill,1.0,2200.0,2.60401406965
260,3_34_1,34,1.0,1256.23183389,3_D,test,05,3,20.0,00000,ignore,1.0,2300.0,1.58559076343
261,3_34_1,34,1.0,1265.54477885,3_D,test,05,3,21.0,11110,kill,1.0,2400.0,7.18535955354
262,3_34_1,34,1.0,1271.3575399,3_D,test,05,3,22.0,10000,ignore,0.0,2300.0,3.55469928346
263,3_34_1,34,1.0,1274.90460416,3_D,test,05,3,23.0,11011,ignore,0.0,2200.0,1.32837756509
264,3_34_1,34,1.0,1282.73313321,3_D,test,05,3,24.0,01100,ignore,1.0,2300.0,5.60537333089
265,3_34_1,34,1.0,1288.90530576,3_D,test,05,3,25.0,10111,kill,0.0,2200.0,3.91807772298
266,3_34_1,34,1.0,1294.6711844,3_D,test,05,3,26.0,00111,ignore,1.0,2300.0,3.55080500615
267,3_34_1,34,1.0,1305.82801794,3_D,test,05,3,27.0,11100,kill,1.0,2400.0,8.7654225451
268,3_34_1,34,1.0,1310.78134942,3_D,test,05,3,28.0,10011,ignore,0.0,2300.0,2.67722902834
269,3_34_1,34,1.0,1314.6253004,3_D,test,05,3,29.0,01111,ignore,1.0,2400.0,1.64316990725
270,3_34_1,34,1.0,1320.48495494,3_D,test,05,3,30.0,00010,ignore,1.0,2500.0,3.70748829377
271,3_34_1,34,1.0,1332.17301659,3_D,test,05,3,31.0,01110,ignore,1.0,2600.0,9.6139127429
272,3_34_1,34,1.0,1335.70444094,3_D,test,05,3,32.0,00110,ignore,1.0,2700.0,1.38314663847
273,3_34_1,34,1.0,1339.07958103,3_D,test,05,3,33.0,10100,kill,1.0,2800.0,1.20516264745
274,3_34_1,34,1.0,1342.12657428,3_D,test,05,3,34.0,01011,ignore,1.0,2900.0,0.884496457546
275,3_34_1,34,1.0,1346.70496888,3_D,test,05,3,35.0,10101,kill,0.0,2800.0,2.42759665698
276,3_34_1,34,1.0,1352.93964158,3_D,test,05,3,36.0,00011,ignore,1.0,2900.0,4.07953628296
277,3_34_1,34,1.0,1357.81485146,3_D,test,05,3,37.0,00100,ignore,1.0,3000.0,2.65535974238
278,3_34_1,34,1.0,1361.15876303,3_D,test,05,3,38.0,01001,ignore,1.0,3100.0,1.14958934792
279,3_34_1,34,1.0,1364.29957404,3_D,test,05,3,39.0,01101,ignore,1.0,3200.0,0.971407892501
280,3_34_1,34,1.0,1380.6753406,3_D,test,05,3,40.0,10001,ignore,0.0,3100.0,14.1818281838
281,3_34_1,34,1.0,1394.4103996,3_D,test,05,3,41.0,10010,kill,1.0,3200.0,11.6289179854
282,3_34_1,34,1.0,1403.56706606,3_D,test,05,3,42.0,00001,ignore,1.0,3300.0,6.93551699138
283,3_34_1,34,1.0,1414.09886686,3_D,test,05,3,43.0,11000,kill,1.0,3400.0,8.35932036117
284,3_34_1,34,1.0,1420.08351061,3_D,test,05,3,44.0,11101,kill,0.0,3300.0,3.77233708365
285,3_34_1,34,1.0,1423.36496267,3_D,test,05,3,45.0,11001,ignore,0.0,3200.0,1.07286683017
286,3_34_1,34,1.0,1430.13087826,3_D,test,05,3,46.0,01010,ignore,1.0,3300.0,4.62806326415
287,3_34_1,34,1.0,1434.53732939,3_D,test,05,3,47.0,01000,ignore,1.0,3400.0,2.21476286618
288,3_34_1,34,1.0,1439.60006396,3_D,test,05,3,48.0,00011,ignore,1.0,3500.0,2.89089783495
289,3_34_1,34,1.0,1442.99085465,3_D,test,05,3,49.0,10010,kill,1.0,3600.0,1.25586707402
290,3_34_1,34,1.0,1449.24119231,3_D,test,05,3,50.0,10000,ignore,0.0,3500.0,4.07835888602
291,3_34_1,34,1.0,1452.47567534,3_D,test,05,3,51.0,00001,ignore,1.0,3600.0,1.0375814592
292,3_34_1,34,1.0,1459.08538673,3_D,test,05,3,52.0,10110,kill,1.0,3700.0,4.42658388214
293,3_34_1,34,1.0,1463.63247358,3_D,test,05,3,53.0,01011,ignore,1.0,3800.0,2.36182171386
294,3_34_1,34,1.0,1470.60160221,3_D,test,05,3,54.0,11000,ignore,0.0,3700.0,4.83228826355
295,3_34_1,34,1.0,1473.85174282,3_D,test,05,3,55.0,01001,ignore,1.0,3800.0,1.04723504669
296,3_34_1,34,1.0,1478.07066927,3_D,test,05,3,56.0,11101,kill,0.0,3700.0,2.01122796589
297,3_34_1,34,1.0,1493.88394553,3_D,test,05,3,57.0,11110,ignore,0.0,3600.0,13.6646167589
298,3_34_1,34,1.0,1499.49364009,3_D,test,05,3,58.0,00111,ignore,1.0,3700.0,3.39497479763
299,3_34_1,34,1.0,1505.05638943,3_D,test,05,3,59.0,11010,ignore,0.0,3600.0,3.43445331096
300,3_34_1,34,1.0,1519.55703191,3_D,test,05,3,60.0,11001,kill,1.0,3700.0,12.2999927747
301,3_34_1,34,1.0,1525.40112165,3_D,test,05,3,61.0,10111,kill,0.0,3600.0,3.67645148657
302,3_34_1,34,1.0,1533.76089975,3_D,test,05,3,62.0,01100,ignore,1.0,3700.0,6.20018128957
303,3_34_1,34,1.0,1536.76104713,3_D,test,05,3,63.0,00101,ignore,1.0,3800.0,0.739923362462
304,3_34_1,34,1.0,1539.57378929,3_D,test,05,3,64.0,00010,ignore,1.0,3900.0,0.6646048536
305,3_34_1,34,1.0,1553.48059512,3_D,test,05,3,65.0,11011,kill,1.0,4000.0,11.7415121094
306,3_34_1,34,1.0,1556.76829132,3_D,test,05,3,66.0,01111,ignore,1.0,4100.0,1.03312680992
307,3_34_1,34,1.0,1561.22162321,3_D,test,05,3,67.0,00100,ignore,1.0,4200.0,2.29722211503
308,3_34_1,34,1.0,1563.98733518,3_D,test,05,4,0.0,00000,ignore,1.0,4300.0,0.608446960896
309,3_34_1,34,1.0,1573.55467753,3_D,test,05,4,1.0,10100,kill,0.0,4200.0,7.37026341999
310,3_34_1,34,1.0,1577.33612178,3_D,test,05,4,2.0,01000,ignore,1.0,4300.0,1.59216333139
311,3_34_1,34,1.0,1580.63319405,3_D,test,05,4,3.0,01110,ignore,0.0,4200.0,1.11473995867
312,3_34_1,34,1.0,1588.93043505,3_D,test,05,4,4.0,10101,ignore,1.0,4300.0,6.1454549112
313,3_34_1,34,1.0,1593.27498171,3_D,test,05,4,5.0,11111,ignore,1.0,4400.0,2.19842751003
314,3_34_1,34,1.0,1597.58767461,3_D,test,05,4,6.0,10001,kill,0.0,4300.0,2.11829513909
315,3_34_1,34,1.0,1602.55984814,3_D,test,05,4,7.0,01010,ignore,0.0,4200.0,2.82514834462
316,3_34_1,34,1.0,1608.24759451,3_D,test,05,4,8.0,11100,kill,0.0,4100.0,3.50991139965
317,3_34_1,34,1.0,1612.9590871,3_D,test,05,4,9.0,01101,kill,0.0,4000.0,2.56118358771
318,3_34_1,34,1.0,1619.27188879,3_D,test,05,4,10.0,00110,ignore,0.0,3900.0,4.12182322461
319,3_34_1,34,1.0,1624.67845528,3_D,test,05,4,11.0,10011,kill,1.0,4000.0,3.22852790078
320,3_34_1,34,1.0,1633.44457695,3_D,test,05,4,12.0,11110,ignore,1.0,4100.0,6.62409344952
321,3_34_1,34,1.0,1637.81974086,3_D,test,05,4,13.0,00011,kill,1.0,4200.0,2.17155018182
322,3_34_1,34,1.0,1641.53867059,3_D,test,05,4,14.0,00111,kill,1.0,4300.0,1.55060302593
323,3_34_1,34,1.0,1646.65104837,3_D,test,05,4,15.0,10110,ignore,0.0,4200.0,2.90961672199
324,3_34_1,34,1.0,1649.90113232,3_D,test,05,4,16.0,01000,kill,0.0,4100.0,1.07819180075
325,3_34_1,34,1.0,1663.49559092,3_D,test,05,4,17.0,00001,ignore,1.0,4200.0,11.4329614489
326,3_34_1,34,1.0,1666.41758016,3_D,test,05,4,18.0,00100,ignore,1.0,4300.0,0.758473111586
327,3_34_1,34,1.0,1671.9805241,3_D,test,05,4,19.0,11101,kill,0.0,4200.0,3.39468291157
328,3_34_1,34,1.0,1682.46523231,3_D,test,05,4,20.0,01011,ignore,0.0,4100.0,8.28037606091
329,3_34_1,34,1.0,1686.55917364,3_D,test,05,4,21.0,11001,ignore,1.0,4200.0,1.78096106462
330,3_34_1,34,1.0,1693.89397968,3_D,test,05,4,22.0,11111,ignore,1.0,4300.0,5.202948665
331,3_34_1,34,1.0,1698.58601771,3_D,test,05,4,23.0,11100,ignore,1.0,4400.0,2.47124244935
332,3_34_1,34,1.0,1704.39878327,3_D,test,05,4,24.0,00010,kill,1.0,4500.0,3.62265947201
333,3_34_1,34,1.0,1712.21164161,3_D,test,05,4,25.0,01001,kill,0.0,4400.0,5.64817425475
334,3_34_1,34,1.0,1717.13374088,3_D,test,05,4,26.0,00000,kill,0.0,4300.0,2.69335747791
335,3_34_1,34,1.0,1722.21527849,3_D,test,05,4,27.0,10000,ignore,1.0,4400.0,2.93100076276
336,3_34_1,34,1.0,1728.84771225,3_D,test,05,4,28.0,10010,ignore,0.0,4300.0,4.37813736462
337,3_34_1,34,1.0,1738.64824856,3_D,test,05,4,29.0,01101,kill,0.0,4200.0,7.62797541096
338,3_34_1,34,1.0,1745.3673306,3_D,test,05,4,30.0,00101,kill,0.0,4100.0,4.5481763895
339,3_34_1,34,1.0,1753.86770829,3_D,test,05,4,31.0,11000,kill,0.0,4000.0,6.15248193467
340,3_34_1,34,1.0,1757.52414772,3_D,test,05,4,32.0,01110,ignore,0.0,3900.0,1.492135087
341,3_34_1,34,1.0,1762.50879189,3_D,test,05,4,33.0,01010,ignore,0.0,3800.0,2.78265778063
342,3_34_1,34,1.0,1766.72773476,3_D,test,05,4,34.0,10001,ignore,1.0,3900.0,1.96268456354
343,3_34_1,34,1.0,1770.83727865,3_D,test,05,4,35.0,10101,ignore,1.0,4000.0,1.93349021012
344,3_34_1,34,1.0,1774.69680756,3_D,test,05,4,36.0,10100,ignore,1.0,4100.0,1.69152282418
345,3_34_1,34,1.0,1778.32202791,3_D,test,05,4,37.0,11011,kill,0.0,4000.0,1.51182569599
346,3_34_1,34,1.0,1782.68158105,3_D,test,05,4,38.0,10111,kill,1.0,4100.0,2.19988694034
347,3_34_1,34,1.0,1787.60372588,3_D,test,05,4,39.0,01111,kill,1.0,4200.0,2.74012287952
348,3_34_1,34,1.0,1791.90079692,3_D,test,05,4,40.0,00110,kill,1.0,4300.0,2.18660386669
349,3_34_1,34,1.0,1795.15099007,3_D,test,05,4,41.0,01100,ignore,1.0,4400.0,1.11585618679
350,3_34_1,34,1.0,1798.69800836,3_D,test,05,4,42.0,10011,kill,1.0,4500.0,1.39363483124
351,3_34_1,34,1.0,1801.71378375,3_D,test,05,4,43.0,11010,kill,0.0,4400.0,0.873073900952
352,3_34_1,34,1.0,1806.74527173,3_D,test,05,4,44.0,11100,kill,0.0,4300.0,2.8444029719
353,3_34_1,34,1.0,1811.07362426,3_D,test,05,4,45.0,00011,kill,1.0,4400.0,2.20927204191
354,3_34_1,34,1.0,1815.60508924,3_D,test,05,4,46.0,10000,ignore,1.0,4500.0,2.34685547165
355,3_34_1,34,1.0,1819.24589861,3_D,test,05,4,47.0,11110,kill,0.0,4400.0,1.46931583714
356,3_34_1,34,1.0,1825.29303554,3_D,test,05,4,48.0,10011,kill,1.0,4500.0,3.88306412215
357,3_34_1,34,1.0,1829.18384142,3_D,test,05,4,49.0,01001,kill,0.0,4400.0,1.70560683974
358,3_34_1,34,1.0,1833.09029748,3_D,test,05,4,50.0,11010,ignore,1.0,4500.0,1.76552025098
359,3_34_1,34,1.0,1837.48116699,3_D,test,05,4,51.0,00000,ignore,1.0,4600.0,2.14238374437
360,3_34_1,34,1.0,1840.98131601,3_D,test,05,4,52.0,00001,kill,0.0,4500.0,1.29585546426
361,3_34_1,34,1.0,1843.8877031,3_D,test,05,4,53.0,10001,ignore,1.0,4600.0,0.794225253932
362,3_34_1,34,1.0,1851.63809946,3_D,test,05,4,54.0,00010,ignore,0.0,4500.0,5.59297371547
363,3_34_1,34,1.0,1857.70087344,3_D,test,05,4,55.0,00110,ignore,0.0,4400.0,3.91270143627
364,3_34_1,34,1.0,1862.49797897,3_D,test,05,4,56.0,11111,kill,0.0,4300.0,2.43436422618
365,3_34_1,34,1.0,1873.48289572,3_D,test,05,4,57.0,10110,ignore,0.0,4200.0,8.77474853051
366,3_34_1,34,1.0,1883.17086747,3_D,test,05,4,58.0,10010,ignore,0.0,4100.0,7.51665680029
367,3_34_1,34,1.0,1888.0929655,3_D,test,05,4,59.0,00101,ignore,1.0,4200.0,2.66270082048
368,3_34_1,34,1.0,1891.405635,3_D,test,05,4,60.0,01100,ignore,1.0,4300.0,1.16219545939
369,3_34_1,34,1.0,1895.57771682,3_D,test,05,4,61.0,11011,kill,0.0,4200.0,1.97550989744
370,3_34_1,34,1.0,1902.65617013,3_D,test,05,4,62.0,01111,kill,1.0,4300.0,4.81480014221
371,3_34_1,34,1.0,1908.57832112,3_D,test,05,4,63.0,00100,ignore,1.0,4400.0,3.7675819272
372,3_34_1,34,1.0,1915.01613173,3_D,test,05,4,64.0,00111,kill,1.0,4500.0,4.30504474355
373,3_34_1,34,1.0,1920.70393024,3_D,test,05,4,65.0,10100,ignore,1.0,4600.0,3.28340658537
374,3_34_1,34,1.0,1928.31368186,3_D,test,05,4,66.0,11101,kill,0.0,4500.0,5.43429936262
375,3_34_1,34,1.0,1932.39201242,3_D,test,05,4,67.0,01010,ignore,0.0,4400.0,1.90469858556
376,3_34_1,34,1.0,1937.61100743,3_D,test,05,4,68.0,10111,ignore,0.0,4300.0,3.06539233017
377,3_34_1,34,1.0,1940.73615553,3_D,test,05,4,69.0,01011,ignore,0.0,4200.0,0.931226143141
378,3_34_1,34,1.0,1943.95503189,3_D,test,05,4,70.0,01101,ignore,1.0,4300.0,1.04277957635
379,3_34_1,34,1.0,1948.83030007,3_D,test,05,4,71.0,11000,kill,0.0,4200.0,2.75132662419
380,3_34_1,34,1.0,1952.11173817,3_D,test,05,4,72.0,11001,ignore,1.0,4300.0,1.1117435081
381,3_34_1,34,1.0,1967.65932504,3_D,test,05,4,73.0,01110,ignore,0.0,4200.0,13.4042983199
382,3_34_1,34,1.0,1972.05018962,3_D,test,05,4,74.0,01000,ignore,1.0,4300.0,2.15798835904
383,3_34_1,34,1.0,1976.30042465,3_D,test,05,4,75.0,10101,kill,0.0,4200.0,2.01589198492
384,3_34_1,34,1.0,1982.36322285,3_D,test,05,4,76.0,00000,kill,0.0,4100.0,3.86722099018
385,3_34_1,34,1.0,1985.20707038,3_D,test,05,5,0.0,00010,ignore,1.0,4200.0,0.618505740425
386,3_34_1,34,1.0,1988.22284864,3_D,test,05,5,1.0,10110,ignore,0.0,4100.0,0.864780806292
387,3_34_1,34,1.0,1999.30152035,3_D,test,05,5,2.0,11011,ignore,1.0,4200.0,8.87713403194
388,3_34_1,34,1.0,2004.44239499,3_D,test,05,5,3.0,11110,kill,1.0,4300.0,2.95147301881
389,3_34_1,34,1.0,2007.41126787,3_D,test,05,5,4.0,00110,kill,1.0,4400.0,0.821121466477
390,3_34_1,34,1.0,2011.34896887,3_D,test,05,5,5.0,01101,ignore,1.0,4500.0,1.75800592968
391,3_34_1,34,1.0,2014.36470568,3_D,test,05,5,6.0,01110,kill,1.0,4600.0,0.84344808164
392,3_34_1,34,1.0,2017.14612407,3_D,test,05,5,7.0,10111,ignore,0.0,4500.0,0.600615711272
393,3_34_1,34,1.0,2021.30254914,3_D,test,05,5,8.0,01010,kill,0.0,4400.0,1.96520603215
394,3_34_1,34,1.0,2026.34968032,3_D,test,05,5,9.0,10100,ignore,0.0,4300.0,2.8771077581
395,3_34_1,34,1.0,2029.72482945,3_D,test,05,5,10.0,10000,kill,0.0,4200.0,1.20268223173
396,3_34_1,34,1.0,2034.63131465,3_D,test,05,5,11.0,00101,ignore,0.0,4100.0,2.70935373717
397,3_34_1,34,1.0,2041.14730065,3_D,test,05,5,12.0,01000,kill,0.0,4000.0,4.36703091529
398,3_34_1,34,1.0,2045.08501684,3_D,test,05,5,13.0,10010,ignore,1.0,4100.0,1.7050653521
399,3_34_1,34,1.0,2048.14759295,3_D,test,05,5,14.0,11010,ignore,1.0,4200.0,0.89965441676
400,3_34_1,34,1.0,2051.55401739,3_D,test,05,5,15.0,00001,ignore,1.0,4300.0,1.18488210841
401,3_34_1,34,1.0,2054.89795154,3_D,test,05,5,16.0,11111,kill,1.0,4400.0,1.14849241466
402,3_34_1,34,1.0,2058.99186332,3_D,test,05,5,17.0,01111,ignore,0.0,4300.0,1.90437919407
403,3_34_1,34,1.0,2063.46087126,3_D,test,05,5,18.0,11100,kill,0.0,4200.0,2.25202247071
404,3_34_1,34,1.0,2068.11732958,3_D,test,05,5,19.0,10011,ignore,1.0,4300.0,2.52665194784
405,3_34_1,34,1.0,2075.50829884,3_D,test,05,5,20.0,00100,kill,1.0,4400.0,5.12234172263
406,3_34_1,34,1.0,2081.00856076,3_D,test,05,5,21.0,11000,ignore,1.0,4500.0,3.29484309995
407,3_34_1,34,1.0,2084.4306161,3_D,test,05,5,22.0,00011,ignore,1.0,4600.0,1.21329686742
408,3_34_1,34,1.0,2088.18080884,3_D,test,05,5,23.0,10101,kill,1.0,4700.0,1.53908153186
409,3_34_1,34,1.0,2091.35279254,3_D,test,05,5,24.0,01001,ignore,1.0,4800.0,1.0312597244
410,3_34_1,34,1.0,2097.19682686,3_D,test,05,5,25.0,01100,ignore,1.0,4900.0,3.68540060643
411,3_34_1,34,1.0,2102.19711751,3_D,test,05,5,26.0,00111,kill,1.0,5000.0,2.78553805151
412,3_34_1,34,1.0,2105.75976915,3_D,test,05,5,27.0,10001,ignore,1.0,5100.0,1.35092504481
413,3_34_1,34,1.0,2109.72874384,3_D,test,05,5,28.0,11001,ignore,1.0,5200.0,1.86035776774
414,3_34_1,34,1.0,2113.9320197,3_D,test,05,6,0.0,11101,ignore,1.0,5300.0,2.00430809046
415,3_34_1,34,1.0,2119.15105494,3_D,test,05,6,1.0,01011,ignore,1.0,5400.0,3.04527230794
416,3_34_1,34,1.0,2124.8544404,3_D,test,05,6,2.0,10111,kill,0.0,5300.0,3.50405068883
417,3_34_1,34,1.0,2131.94855252,3_D,test,05,6,3.0,10101,kill,0.0,5200.0,4.95117825905
418,3_34_1,34,1.0,2137.48008894,3_D,test,05,6,4.0,00000,kill,0.0,5100.0,3.35775131965
419,3_34_1,34,1.0,2145.32416349,3_D,test,05,6,5.0,11110,ignore,0.0,5000.0,5.69428650485
420,3_34_1,34,1.0,2148.79312422,3_D,test,05,6,6.0,00010,ignore,1.0,5100.0,1.30823126901
421,3_34_1,34,1.0,2161.23119757,3_D,test,05,6,7.0,10100,kill,1.0,5200.0,10.2618825542
422,3_34_1,34,1.0,2179.10707949,3_D,test,05,6,8.0,11000,kill,1.0,5300.0,15.76137473
423,3_34_1,34,1.0,2183.70100851,3_D,test,05,6,9.0,11101,ignore,1.0,5400.0,2.41698941082
424,3_34_1,34,1.0,2187.10742187,3_D,test,05,6,10.0,00001,ignore,1.0,5500.0,1.21279602214
425,3_34_1,34,1.0,2191.09202498,3_D,test,05,6,11.0,00110,ignore,1.0,5600.0,1.79585341162
426,3_34_1,34,1.0,2195.20163292,3_D,test,05,6,12.0,10110,ignore,0.0,5500.0,1.74672172133
427,3_34_1,34,1.0,2198.4048628,3_D,test,05,6,13.0,10001,ignore,0.0,5400.0,0.912500277107
428,3_34_1,34,1.0,2202.34256216,3_D,test,05,6,14.0,11111,kill,0.0,5300.0,1.68318416081
429,3_34_1,34,1.0,2212.40558574,3_D,test,05,6,15.0,10010,ignore,0.0,5200.0,7.90043031641
430,3_34_1,34,1.0,2217.65578259,3_D,test,05,6,16.0,00101,ignore,1.0,5300.0,3.11670269742
