,unique_id,pair_id,sbj_id,wall_time,condition,block,rule_id,rule_num,trial,stimulus,choice,correct,points,reaction_time
0,2_36_1,36,1.0,43.7374671679,2_ND,training,01,1_B,1.0,01000,kill,1.0,100.0,2.36070261203
1,2_36_1,36,1.0,46.9310073312,2_ND,training,01,1_B,2.0,00100,kill,0.0,0.0,0.93624937497
2,2_36_1,36,1.0,50.2964154257,2_ND,training,01,1_B,3.0,10101,kill,0.0,0.0,1.15197821569
3,2_36_1,36,1.0,53.6309143875,2_ND,training,01,1_B,4.0,01010,ignore,0.0,0.0,1.20109512694
4,2_36_1,36,1.0,58.2248885619,2_ND,training,01,1_B,5.0,10100,kill,0.0,0.0,2.3437953891
5,2_36_1,36,1.0,62.6157334386,2_ND,training,01,1_B,6.0,10110,kill,0.0,0.0,2.18422813584
6,2_36_1,36,1.0,67.3346919104,2_ND,training,01,1_B,7.0,01111,kill,0.0,0.0,2.52939058624
7,2_36_1,36,1.0,71.0407495109,2_ND,training,01,1_B,8.0,10001,ignore,1.0,100.0,1.49274964879
8,2_36_1,36,1.0,74.8847107536,2_ND,training,01,1_B,9.0,10111,kill,0.0,0.0,1.66313803378
9,2_36_1,36,1.0,78.8848922074,2_ND,training,01,1_B,10.0,11001,ignore,0.0,0.0,1.81015582857
10,2_36_1,36,1.0,82.353802442,2_ND,training,01,1_B,11.0,01100,ignore,0.0,0.0,1.27814442572
11,2_36_1,36,1.0,87.4478160272,2_ND,training,01,1_B,12.0,10000,kill,0.0,0.0,2.91558745456
12,2_36_1,36,1.0,90.7448316462,2_ND,training,01,1_B,13.0,11100,ignore,0.0,0.0,1.12719910078
13,2_36_1,36,1.0,95.1669333736,2_ND,training,01,1_B,14.0,11111,ignore,1.0,100.0,2.23409467289
14,2_36_1,36,1.0,99.0108248265,2_ND,training,01,1_B,15.0,00000,kill,0.0,0.0,1.65160135015
15,2_36_1,36,1.0,102.761028244,2_ND,training,01,1_B,16.0,00010,kill,0.0,0.0,1.57891720535
16,2_36_1,36,1.0,106.604936939,2_ND,training,01,1_B,17.0,11010,ignore,0.0,0.0,1.68833301449
17,2_36_1,36,1.0,113.589749832,2_ND,training,01,1_B,18.0,01001,kill,1.0,100.0,4.77935794919
18,2_36_1,36,1.0,125.355889571,2_ND,training,01,1_B,19.0,10010,ignore,1.0,200.0,9.55103736552
19,2_36_1,36,1.0,134.528214831,2_ND,training,01,1_B,20.0,00101,ignore,1.0,300.0,6.98601245873
20,2_36_1,36,1.0,140.903517083,2_ND,training,01,1_B,21.0,00001,kill,0.0,200.0,4.23112326459
21,2_36_1,36,1.0,144.653694227,2_ND,training,01,1_B,22.0,00111,ignore,1.0,300.0,1.52196781289
22,2_36_1,36,1.0,147.966349766,2_ND,training,01,1_B,23.0,01011,kill,0.0,200.0,1.12140817987
23,2_36_1,36,1.0,155.99798184,2_ND,training,01,1_B,24.0,10011,ignore,1.0,300.0,5.81738154804
24,2_36_1,36,1.0,172.826918135,2_ND,training,01,1_B,25.0,00110,ignore,1.0,400.0,14.6395900951
25,2_36_1,36,1.0,176.952123297,2_ND,training,01,1_B,26.0,00011,ignore,1.0,500.0,1.94952916439
26,2_36_1,36,1.0,181.610874418,2_ND,training,01,1_B,27.0,01101,kill,1.0,600.0,2.46268948988
27,2_36_1,36,1.0,184.876667671,2_ND,training,01,1_B,28.0,11101,kill,1.0,700.0,1.10263305037
28,2_36_1,36,1.0,189.236199865,2_ND,training,01,1_B,29.0,11110,ignore,0.0,600.0,2.19260620999
29,2_36_1,36,1.0,193.533356706,2_ND,training,01,1_B,30.0,01110,kill,1.0,700.0,2.14417570309
30,2_36_1,36,1.0,197.190000172,2_ND,training,01,1_B,31.0,11011,ignore,1.0,800.0,1.49328169427
31,2_36_1,36,1.0,202.065985544,2_ND,training,01,1_B,32.0,11000,kill,1.0,900.0,2.72218605006
32,2_36_1,36,1.0,207.738139204,2_ND,training,01,1_B,33.0,01000,kill,1.0,1000.0,3.45670603092
33,2_36_1,36,1.0,212.113310908,2_ND,training,01,1_B,34.0,00100,kill,0.0,900.0,2.13762201946
34,2_36_1,36,1.0,215.597914431,2_ND,training,01,1_B,35.0,10101,kill,0.0,800.0,1.27670962715
35,2_36_1,36,1.0,219.207393462,2_ND,training,01,1_B,36.0,10110,ignore,1.0,900.0,1.41545156949
36,2_36_1,36,1.0,222.816940229,2_ND,training,01,1_B,37.0,00001,kill,0.0,800.0,1.39792034261
37,2_36_1,36,1.0,228.523506065,2_ND,training,01,1_B,38.0,00000,kill,0.0,700.0,3.52705221353
38,2_36_1,36,1.0,236.226981028,2_ND,training,01,1_B,39.0,11001,kill,1.0,800.0,5.49679992709
39,2_36_1,36,1.0,239.992784133,2_ND,training,01,1_B,40.0,11000,kill,1.0,900.0,1.59433174513
40,2_36_1,36,1.0,245.039914906,2_ND,training,01,1_B,41.0,10000,kill,0.0,800.0,2.88297503738
41,2_36_1,36,1.0,248.871361174,2_ND,training,01,1_B,42.0,01101,ignore,0.0,700.0,1.64477097002
42,2_36_1,36,1.0,255.24980972,2_ND,training,01,1_B,43.0,00010,ignore,1.0,800.0,4.12708251056
43,2_36_1,36,1.0,258.531205945,2_ND,training,01,1_B,44.0,01010,ignore,0.0,700.0,1.06471824169
44,2_36_1,36,1.0,263.015755279,2_ND,training,01,1_B,45.0,11011,kill,0.0,600.0,2.3600079971
45,2_36_1,36,1.0,273.281882702,2_ND,training,01,1_B,46.0,01001,ignore,0.0,500.0,8.06505241223
46,2_36_1,36,1.0,277.300824917,2_ND,training,01,1_B,47.0,01011,kill,0.0,400.0,1.86827810214
47,2_36_1,36,1.0,280.744856688,2_ND,training,01,1_B,48.0,11111,ignore,1.0,500.0,1.37216704257
48,2_36_1,36,1.0,284.303828757,2_ND,training,01,1_B,49.0,10011,ignore,1.0,600.0,1.40721020148
49,2_36_1,36,1.0,288.116535612,2_ND,training,01,1_B,50.0,00101,kill,0.0,500.0,1.66418365093
50,2_36_1,36,1.0,291.401056373,2_ND,training,01,1_B,51.0,01111,ignore,1.0,600.0,1.14117473671
51,2_36_1,36,1.0,294.916870357,2_ND,training,01,1_B,52.0,11110,ignore,0.0,500.0,1.3176110337
52,2_36_1,36,1.0,298.010762016,2_ND,training,01,1_B,53.0,11101,ignore,0.0,400.0,0.976817021514
53,2_36_1,36,1.0,301.120277583,2_ND,training,01,1_B,54.0,00111,ignore,1.0,500.0,0.883404450627
54,2_36_1,36,1.0,304.97982743,2_ND,training,01,1_B,55.0,01110,ignore,0.0,400.0,1.74066231451
55,2_36_1,36,1.0,310.276974418,2_ND,training,01,1_B,56.0,00011,ignore,1.0,500.0,3.18348672062
56,2_36_1,36,1.0,314.011544894,2_ND,training,01,1_B,57.0,11010,kill,1.0,600.0,1.58475821078
57,2_36_1,36,1.0,322.746308729,2_ND,training,01,1_B,58.0,10010,kill,0.0,500.0,6.53812499949
58,2_36_1,36,1.0,326.824656942,2_ND,training,01,1_B,59.0,10111,ignore,1.0,600.0,1.92723785471
59,2_36_1,36,1.0,330.543847773,2_ND,training,01,1_B,60.0,11100,ignore,0.0,500.0,1.53787786108
60,2_36_1,36,1.0,334.153105118,2_ND,training,01,1_B,61.0,10001,ignore,1.0,600.0,1.39436023584
61,2_36_1,36,1.0,337.622066668,2_ND,training,01,1_B,62.0,00110,kill,0.0,500.0,1.32071340073
62,2_36_1,36,1.0,341.590968282,2_ND,training,01,1_B,63.0,01100,ignore,0.0,400.0,1.77170404806
63,2_36_1,36,1.0,345.013038809,2_ND,training,01,1_B,64.0,10100,kill,0.0,300.0,1.18188401573
64,2_36_1,36,1.0,348.435074441,2_ND,training,01,1_B,65.0,01110,ignore,0.0,200.0,1.30131590939
65,2_36_1,36,1.0,351.903975234,2_ND,training,01,1_B,66.0,01111,ignore,1.0,300.0,1.26961322429
66,2_36_1,36,1.0,354.96663221,2_ND,training,01,1_B,67.0,00100,kill,0.0,200.0,0.935182410314
67,2_36_1,36,1.0,358.66994173,2_ND,training,01,1_B,68.0,01001,kill,1.0,300.0,1.54026960255
68,2_36_1,36,1.0,361.935727182,2_ND,training,01,1_B,69.0,00101,ignore,1.0,400.0,1.02519210701
69,2_36_1,36,1.0,365.201517561,2_ND,training,01,1_B,70.0,11101,ignore,0.0,300.0,1.06568626887
70,2_36_1,36,1.0,370.811164909,2_ND,training,01,1_B,71.0,11000,kill,1.0,400.0,3.44265075238
71,2_36_1,36,1.0,374.530097107,2_ND,training,01,1_B,72.0,11010,kill,1.0,500.0,1.18972265487
72,2_36_1,36,1.0,381.84291111,2_ND,training,01,1_B,73.0,10000,kill,0.0,400.0,5.07683623427
73,2_36_1,36,1.0,385.48375455,2_ND,training,01,1_B,74.0,00001,kill,0.0,300.0,1.38765055122
74,2_36_1,36,1.0,388.921426407,2_ND,training,01,1_B,75.0,00011,ignore,1.0,400.0,1.30930562318
75,2_36_1,36,1.0,392.296600164,2_ND,training,01,1_B,76.0,11111,ignore,1.0,500.0,1.22332403622
76,2_36_1,36,1.0,395.781132666,2_ND,training,01,1_B,77.0,11100,kill,1.0,600.0,1.33975250033
77,2_36_1,36,1.0,400.047080277,2_ND,training,01,1_B,78.0,11011,ignore,1.0,700.0,2.00874467647
78,2_36_1,36,1.0,403.218942872,2_ND,training,01,1_B,79.0,00111,ignore,1.0,800.0,1.00146394612
79,2_36_1,36,1.0,406.84416076,2_ND,training,01,1_B,80.0,01011,ignore,1.0,900.0,1.46937536383
80,2_36_1,36,1.0,410.828685051,2_ND,training,01,1_B,81.0,10100,ignore,1.0,1000.0,1.85408283324
81,2_36_1,36,1.0,414.453883645,2_ND,training,01,1_B,82.0,00110,ignore,1.0,1100.0,1.50658201013
82,2_36_1,36,1.0,418.68850831,2_ND,training,01,1_B,83.0,10001,ignore,1.0,1200.0,2.08997890702
83,2_36_1,36,1.0,422.110493037,2_ND,training,01,1_B,84.0,01010,kill,1.0,1300.0,1.26356038593
84,2_36_1,36,1.0,425.376275205,2_ND,training,01,1_B,85.0,10111,ignore,1.0,1400.0,1.15312851772
85,2_36_1,36,1.0,428.813944189,2_ND,training,01,1_B,86.0,10010,kill,0.0,1300.0,1.32746290666
86,2_36_1,36,1.0,432.282857708,2_ND,training,01,1_B,87.0,01101,kill,1.0,1400.0,1.34731649563
87,2_36_1,36,1.0,440.314569014,2_ND,training,01,1_B,88.0,00010,ignore,1.0,1500.0,5.90808011226
88,2_36_1,36,1.0,444.23656852,2_ND,training,01,1_B,89.0,00000,kill,0.0,1400.0,1.78176446971
89,2_36_1,36,1.0,447.518086673,2_ND,training,01,1_B,90.0,11110,ignore,0.0,1300.0,1.1861724008
90,2_36_1,36,1.0,450.580616795,2_ND,training,01,1_B,91.0,11001,ignore,0.0,1200.0,0.946807357664
91,2_36_1,36,1.0,453.643299224,2_ND,training,01,1_B,92.0,10110,ignore,1.0,1300.0,0.932719647339
92,2_36_1,36,1.0,456.31531084,2_ND,training,01,1_B,93.0,10101,ignore,1.0,1400.0,0.52308280943
93,2_36_1,36,1.0,459.75296874,2_ND,training,01,1_B,94.0,01000,kill,1.0,1500.0,1.29765111775
94,2_36_1,36,1.0,463.331298068,2_ND,training,01,1_B,95.0,10011,ignore,1.0,1600.0,1.44437948965
95,2_36_1,36,1.0,467.14394827,2_ND,training,01,1_B,96.0,01100,ignore,0.0,1500.0,1.66837022483
96,2_36_1,36,1.0,470.300388525,2_ND,training,01,1_B,97.0,01111,ignore,1.0,1600.0,1.01930224863
97,2_36_1,36,1.0,474.050538162,2_ND,training,01,1_B,98.0,11010,kill,1.0,1700.0,1.65741772385
98,2_36_1,36,1.0,477.769464613,2_ND,training,01,1_B,99.0,01100,ignore,0.0,1600.0,1.59073920658
99,2_36_1,36,1.0,480.785223997,2_ND,training,01,1_B,100.0,10011,ignore,1.0,1700.0,0.899451615473
100,2_36_1,36,1.0,484.222870402,2_ND,training,01,1_B,101.0,00001,ignore,1.0,1800.0,1.26497876334
101,2_36_1,36,1.0,487.53557972,2_ND,training,01,1_B,102.0,11101,ignore,0.0,1700.0,1.19417073569
102,2_36_1,36,1.0,491.270123922,2_ND,training,01,1_B,103.0,10010,ignore,1.0,1800.0,1.61311385363
103,2_36_1,36,1.0,494.457773406,2_ND,training,01,1_B,104.0,00100,kill,0.0,1700.0,1.02911963716
104,2_36_1,36,1.0,498.504868873,2_ND,training,01,1_B,105.0,11001,ignore,0.0,1600.0,1.93550098075
105,2_36_1,36,1.0,501.69251343,2_ND,training,01,1_B,106.0,00011,ignore,1.0,1700.0,1.03018331758
106,2_36_1,36,1.0,506.427084727,2_ND,training,01,1_B,107.0,10000,kill,0.0,1600.0,2.60208622585
107,2_36_1,36,1.0,509.708555258,2_ND,training,01,1_B,108.0,01000,ignore,0.0,1500.0,1.16514305701
108,2_36_1,36,1.0,516.427634015,2_ND,training,01,1_B,109.0,10111,ignore,1.0,1600.0,4.57884289961
109,2_36_1,36,1.0,521.115310183,2_ND,training,01,1_B,110.0,01010,ignore,0.0,1500.0,2.55908044807
110,2_36_1,36,1.0,524.287392821,2_ND,training,01,1_B,111.0,11011,ignore,1.0,1600.0,1.03823461071
111,2_36_1,36,1.0,530.522006813,2_ND,training,01,1_B,112.0,00000,kill,0.0,1500.0,4.08018368706
112,2_36_1,36,1.0,533.834702995,2_ND,training,01,1_B,113.0,11111,ignore,1.0,1600.0,1.19612690598
113,2_36_1,36,1.0,537.584852632,2_ND,training,01,1_B,114.0,00110,ignore,1.0,1700.0,1.59994449649
114,2_36_1,36,1.0,540.725636956,2_ND,training,01,1_B,115.0,01011,ignore,1.0,1800.0,0.998910456254
115,2_36_1,36,1.0,552.819996207,2_ND,training,01,1_B,116.0,11000,kill,1.0,1900.0,9.97249045725
116,2_36_1,36,1.0,557.476460272,2_ND,training,01,1_B,117.0,10100,ignore,1.0,2000.0,2.49161289422
117,2_36_1,36,1.0,560.94538857,2_ND,training,01,1_B,118.0,11110,ignore,0.0,1900.0,1.3311219509
118,2_36_1,36,1.0,564.414295931,2_ND,training,01,1_B,119.0,00010,ignore,1.0,2000.0,1.26021827001
119,2_36_1,36,1.0,567.758220636,2_ND,training,01,1_B,120.0,00111,ignore,1.0,2100.0,1.21029015363
120,2_36_1,36,1.0,571.711509835,2_ND,training,01,1_B,121.0,11100,kill,1.0,2200.0,1.75355456463
121,2_36_1,36,1.0,575.242953066,2_ND,training,01,1_B,122.0,00101,ignore,1.0,2300.0,1.38203246298
122,2_36_1,36,1.0,578.758754734,2_ND,training,01,1_B,123.0,10110,ignore,1.0,2400.0,1.3893255092
123,2_36_1,36,1.0,587.727896507,2_ND,training,01,1_B,124.0,01101,ignore,0.0,2300.0,6.80566012639
124,2_36_1,36,1.0,591.040551636,2_ND,training,01,1_B,125.0,01110,ignore,0.0,2200.0,1.20370444874
125,2_36_1,36,1.0,595.025161728,2_ND,training,01,1_B,126.0,01001,ignore,0.0,2100.0,1.85972637427
126,2_36_1,36,1.0,598.994097415,2_ND,training,01,1_B,127.0,10101,ignore,1.0,2200.0,1.8154729991
127,2_36_1,36,1.0,602.494232069,2_ND,training,01,1_B,128.0,10001,ignore,1.0,2300.0,1.36226303245
128,2_36_1,36,1.0,606.213144151,2_ND,training,01,1_B,129.0,00011,ignore,1.0,2400.0,1.5758784703
129,2_36_1,36,1.0,610.166739604,2_ND,training,01,1_B,130.0,00001,kill,0.0,2300.0,1.79762197019
130,2_36_1,36,1.0,614.292115956,2_ND,training,01,1_B,131.0,01100,kill,1.0,2400.0,2.0063742825
131,2_36_1,36,1.0,617.42160663,2_ND,training,01,1_B,132.0,00110,ignore,1.0,2500.0,1.00140482996
132,2_36_1,36,1.0,620.718680544,2_ND,training,01,1_B,133.0,11011,ignore,1.0,2600.0,1.16657292923
133,2_36_1,36,1.0,624.72285357,2_ND,training,01,1_B,134.0,01101,ignore,0.0,2500.0,1.82568901121
134,2_36_1,36,1.0,628.160498333,2_ND,training,01,1_B,135.0,01011,ignore,1.0,2600.0,1.2895583612
135,2_36_1,36,1.0,631.988806519,2_ND,training,01,1_B,136.0,11001,kill,1.0,2700.0,1.65207304787
136,2_36_1,36,1.0,634.973383768,2_ND,training,01,1_B,137.0,11110,ignore,0.0,2600.0,0.80216570425
137,2_36_1,36,1.0,638.598514214,2_ND,training,01,1_B,138.0,10101,ignore,1.0,2700.0,1.41783058457
138,2_36_1,36,1.0,641.754943794,2_ND,training,01,1_B,139.0,10111,ignore,1.0,2800.0,0.965971668578
139,2_36_1,36,1.0,646.723941882,2_ND,training,01,1_B,140.0,11100,ignore,0.0,2700.0,2.77664106882
140,2_36_1,36,1.0,649.80658669,2_ND,training,01,1_B,141.0,01111,ignore,1.0,2800.0,0.832443032955
141,2_36_1,36,1.0,654.166204274,2_ND,training,01,1_B,142.0,01001,kill,1.0,2900.0,2.18450319022
142,2_36_1,36,1.0,667.432431456,2_ND,training,01,1_B,143.0,01000,ignore,0.0,2800.0,11.0807900383
143,2_36_1,36,1.0,670.83883661,2_ND,training,01,1_B,144.0,00100,ignore,1.0,2900.0,1.21459783356
144,2_36_1,36,1.0,673.901491534,2_ND,training,01,1_B,145.0,00000,kill,0.0,2800.0,0.830415430632
145,2_36_1,36,1.0,677.604780527,2_ND,training,01,1_B,146.0,11111,ignore,1.0,2900.0,1.54158370561
146,2_36_1,36,1.0,680.714365474,2_ND,training,01,1_B,147.0,00101,ignore,1.0,3000.0,0.923165407849
147,2_36_1,36,1.0,685.105141382,2_ND,training,01,1_B,148.0,11000,kill,1.0,3100.0,2.19394125003
148,2_36_1,36,1.0,689.761596416,2_ND,training,01,1_B,149.0,01010,ignore,0.0,3000.0,2.48027613817
149,2_36_1,36,1.0,692.886760935,2_ND,training,01,1_B,150.0,10110,ignore,1.0,3100.0,0.949179804276
150,2_36_1,36,1.0,696.230697957,2_ND,training,01,1_B,151.0,10010,kill,0.0,3000.0,1.12134824265
151,2_36_1,36,1.0,700.762134619,2_ND,training,01,1_B,152.0,01110,ignore,0.0,2900.0,2.35114303566
152,2_36_1,36,1.0,704.293586881,2_ND,training,01,1_B,153.0,10100,ignore,1.0,3000.0,1.34281874081
153,2_36_1,36,1.0,708.075013896,2_ND,training,01,1_B,154.0,00111,ignore,1.0,3100.0,1.62755379776
154,2_36_1,36,1.0,711.809584372,2_ND,training,01,1_B,155.0,11101,ignore,0.0,3000.0,1.53481490483
155,2_36_1,36,1.0,715.497216203,2_ND,training,01,1_B,156.0,10001,kill,0.0,2900.0,1.48720299259
156,2_36_1,36,1.0,719.216196844,2_ND,training,01,1_B,157.0,11010,ignore,0.0,2800.0,1.55141217842
157,2_36_1,36,1.0,723.091400158,2_ND,training,01,1_B,158.0,10000,kill,0.0,2700.0,1.68769382097
158,2_36_1,36,1.0,728.204130578,2_ND,training,01,1_B,159.0,10011,ignore,1.0,2800.0,2.96058511866
159,2_36_1,36,1.0,732.313718809,2_ND,training,01,1_B,160.0,00010,ignore,1.0,2900.0,1.91073048694
160,2_36_1,36,1.0,736.235742125,2_ND,training,01,1_B,161.0,00001,kill,0.0,2800.0,1.72300751843
161,2_36_1,36,1.0,739.392197159,2_ND,training,01,1_B,162.0,00100,ignore,1.0,2900.0,0.992509899905
162,2_36_1,36,1.0,742.423553768,2_ND,training,01,1_B,163.0,00111,ignore,1.0,3000.0,0.853972811491
163,2_36_1,36,1.0,745.470590119,2_ND,training,01,1_B,164.0,10100,ignore,1.0,3100.0,0.865068587067
164,2_36_1,36,1.0,748.751992913,2_ND,training,01,1_B,165.0,01110,ignore,0.0,3000.0,1.10713367889
165,2_36_1,36,1.0,752.392758763,2_ND,training,01,1_B,166.0,11001,ignore,0.0,2900.0,1.42244164537
166,2_36_1,36,1.0,755.564829906,2_ND,training,01,1_B,167.0,10110,ignore,1.0,3000.0,0.989371406332
167,2_36_1,36,1.0,759.408758717,2_ND,training,01,1_B,168.0,11010,kill,1.0,3100.0,1.63611619939
168,2_36_1,36,1.0,762.674553201,2_ND,training,01,1_B,169.0,10111,ignore,1.0,3200.0,1.00491690484
169,2_36_1,36,1.0,770.721846543,2_ND,training,01,1_B,170.0,00110,ignore,1.0,3300.0,5.7177145691
170,2_36_1,36,1.0,774.159477758,2_ND,training,01,1_B,171.0,00101,ignore,1.0,3400.0,1.24388701916
171,2_36_1,36,1.0,777.20649194,2_ND,training,01,1_B,172.0,01111,ignore,1.0,3500.0,0.878668999566
172,2_36_1,36,1.0,781.284796636,2_ND,training,01,1_B,173.0,01001,kill,1.0,3600.0,1.91930274127
173,2_36_1,36,1.0,784.347480707,2_ND,training,01,1_B,174.0,01101,ignore,0.0,3500.0,0.882069821117
174,2_36_1,36,1.0,788.113272318,2_ND,training,01,1_B,175.0,01011,ignore,1.0,3600.0,1.5958687654
175,2_36_1,36,1.0,791.58214191,2_ND,training,01,1_B,176.0,00010,kill,0.0,3500.0,1.27390037777
176,2_36_1,36,1.0,794.910466106,2_ND,training,01,1_B,177.0,00011,ignore,1.0,3600.0,1.1724599139
177,2_36_1,36,1.0,800.973226536,2_ND,training,01,1_B,178.0,11100,ignore,0.0,3500.0,3.87167358682
178,2_36_1,36,1.0,806.598524066,2_ND,training,01,1_B,179.0,10001,kill,0.0,3400.0,3.45098366834
179,2_36_1,36,1.0,810.176851342,2_ND,training,01,1_B,180.0,11111,ignore,1.0,3500.0,1.43821416637
180,2_36_1,36,1.0,815.020861027,2_ND,training,01,1_B,181.0,10011,ignore,1.0,3600.0,2.6875821571
181,2_36_1,36,1.0,818.177244218,2_ND,training,01,1_B,182.0,00000,kill,0.0,3500.0,0.989443659422
182,2_36_1,36,1.0,821.38050119,2_ND,training,01,1_B,183.0,11011,ignore,1.0,3600.0,1.01199401285
183,2_36_1,36,1.0,832.256021022,2_ND,training,01,1_B,184.0,01010,kill,1.0,3700.0,8.70759215758
184,2_36_1,36,1.0,835.724982984,2_ND,training,01,1_B,185.0,11101,ignore,0.0,3600.0,1.24451471787
185,2_36_1,36,1.0,839.178228666,2_ND,training,01,1_B,186.0,01100,kill,1.0,3700.0,1.25030399666
186,2_36_1,36,1.0,842.100227761,2_ND,training,01,1_B,187.0,10010,ignore,1.0,3800.0,0.754488517917
187,2_36_1,36,1.0,948.121060462,2_ND,test,01,2,0.0,10000,ignore,0.0,0.0,4.18886382838
188,2_36_1,36,1.0,961.80918657,2_ND,test,01,2,1.0,11110,kill,0.0,0.0,11.4604381493
189,2_36_1,36,1.0,969.512655785,2_ND,test,01,2,2.0,10101,ignore,0.0,0.0,5.52801367225
190,2_36_1,36,1.0,978.669380536,2_ND,test,01,2,3.0,11000,kill,0.0,0.0,6.98084061543
191,2_36_1,36,1.0,985.294663288,2_ND,test,01,2,4.0,01000,ignore,1.0,100.0,4.43983657665
192,2_36_1,36,1.0,995.763947104,2_ND,test,01,2,5.0,00001,ignore,1.0,200.0,8.26815789927
193,2_36_1,36,1.0,1000.35789049,2_ND,test,01,2,6.0,11001,kill,1.0,300.0,2.4162069427
194,2_36_1,36,1.0,1005.06125913,2_ND,test,01,2,7.0,01011,ignore,1.0,400.0,2.5303680556
195,2_36_1,36,1.0,1011.26468318,2_ND,test,01,2,8.0,11111,ignore,0.0,300.0,3.98373525483
196,2_36_1,36,1.0,1015.3118,2_ND,test,01,2,9.0,00111,ignore,1.0,400.0,1.82546404136
197,2_36_1,36,1.0,1020.62452738,2_ND,test,01,2,10.0,10110,kill,1.0,500.0,3.13490513908
198,2_36_1,36,1.0,1029.7499805,2_ND,test,01,2,11.0,11100,kill,0.0,400.0,6.9440921194
199,2_36_1,36,1.0,1033.5626541,2_ND,test,01,2,12.0,01110,ignore,1.0,500.0,1.56829641173
200,2_36_1,36,1.0,1038.31286204,2_ND,test,01,2,13.0,01100,ignore,1.0,600.0,2.40530165254
201,2_36_1,36,1.0,1042.5318123,2_ND,test,01,2,14.0,00110,ignore,1.0,700.0,2.02377537171
202,2_36_1,36,1.0,1046.62576225,2_ND,test,01,2,15.0,00000,ignore,1.0,800.0,1.90649834434
203,2_36_1,36,1.0,1054.32927005,2_ND,test,01,2,16.0,11000,kill,0.0,700.0,5.52005064285
204,2_36_1,36,1.0,1057.93887183,2_ND,test,01,2,17.0,01111,ignore,1.0,800.0,1.44473747086
205,2_36_1,36,1.0,1062.79845288,2_ND,test,01,2,18.0,10000,ignore,0.0,700.0,2.69061801844
206,2_36_1,36,1.0,1067.47055194,2_ND,test,01,2,19.0,00101,ignore,1.0,800.0,2.47398970886
207,2_36_1,36,1.0,1074.18964794,2_ND,test,01,2,20.0,10100,ignore,0.0,700.0,4.53774567077
208,2_36_1,36,1.0,1082.34624132,2_ND,test,01,2,21.0,10101,ignore,0.0,600.0,5.99052622418
209,2_36_1,36,1.0,1087.17464639,2_ND,test,01,2,22.0,01010,ignore,1.0,700.0,2.66278005256
210,2_36_1,36,1.0,1092.25299132,2_ND,test,01,2,23.0,10001,ignore,0.0,600.0,2.91835729317
211,2_36_1,36,1.0,1097.05012887,2_ND,test,01,2,24.0,01001,ignore,1.0,700.0,2.55152014753
212,2_36_1,36,1.0,1101.75344742,2_ND,test,01,2,25.0,01000,ignore,1.0,800.0,2.56134697822
213,2_36_1,36,1.0,1106.78495674,2_ND,test,01,2,26.0,00010,ignore,1.0,900.0,2.88067607544
214,2_36_1,36,1.0,1112.22270578,2_ND,test,01,2,27.0,00100,ignore,1.0,1000.0,3.24046115534
215,2_36_1,36,1.0,1121.91070134,2_ND,test,01,2,28.0,11011,ignore,0.0,900.0,7.53727274146
216,2_36_1,36,1.0,1127.58280656,2_ND,test,01,2,29.0,11110,kill,0.0,800.0,3.49739232032
217,2_36_1,36,1.0,1132.31742301,2_ND,test,01,2,30.0,10011,ignore,0.0,700.0,2.58701242507
218,2_36_1,36,1.0,1137.86455543,2_ND,test,01,2,31.0,10010,kill,1.0,800.0,3.35257372894
219,2_36_1,36,1.0,1141.83353915,2_ND,test,01,2,32.0,00011,ignore,1.0,900.0,1.77549158785
220,2_36_1,36,1.0,1147.78692359,2_ND,test,01,2,33.0,11010,kill,0.0,800.0,3.79813677346
221,2_36_1,36,1.0,1153.0371504,2_ND,test,01,2,34.0,01101,ignore,1.0,900.0,3.06630206225
222,2_36_1,36,1.0,1157.92803305,2_ND,test,01,2,35.0,11101,ignore,0.0,800.0,2.71602647419
223,2_36_1,36,1.0,1163.58471223,2_ND,test,01,2,36.0,10111,kill,1.0,900.0,3.45460289127
224,2_36_1,36,1.0,1167.85040532,2_ND,test,01,2,37.0,01001,ignore,1.0,1000.0,2.06201860353
225,2_36_1,36,1.0,1174.69447042,2_ND,test,01,2,38.0,10011,kill,1.0,1100.0,4.61781646237
226,2_36_1,36,1.0,1179.7415975,2_ND,test,01,2,39.0,11011,kill,1.0,1200.0,2.88076557075
227,2_36_1,36,1.0,1190.36718035,2_ND,test,01,2,40.0,10000,ignore,0.0,1100.0,8.51118855511
228,2_36_1,36,1.0,1194.19544707,2_ND,test,01,2,41.0,01101,ignore,1.0,1200.0,1.66970403328
229,2_36_1,36,1.0,1198.50812478,2_ND,test,01,2,42.0,01100,ignore,1.0,1300.0,2.13586947151
230,2_36_1,36,1.0,1204.43030327,2_ND,test,01,2,43.0,10101,kill,1.0,1400.0,3.56871556176
231,2_36_1,36,1.0,1209.03989068,2_ND,test,01,2,44.0,10001,kill,1.0,1500.0,2.46223872913
232,2_36_1,36,1.0,1214.24327903,2_ND,test,01,2,45.0,11111,ignore,0.0,1400.0,3.06243364826
233,2_36_1,36,1.0,1218.91535592,2_ND,test,01,2,46.0,01111,ignore,1.0,1500.0,2.52930889099
234,2_36_1,36,1.0,1229.73154324,2_ND,test,01,2,47.0,10111,kill,1.0,1600.0,8.65967563289
235,2_36_1,36,1.0,1236.82564221,2_ND,test,01,2,48.0,11000,kill,0.0,1500.0,4.97325034628
236,2_36_1,36,1.0,1240.70078436,2_ND,test,01,2,49.0,01110,ignore,1.0,1600.0,1.70717341809
237,2_36_1,36,1.0,1244.88851307,2_ND,test,01,2,50.0,00000,ignore,1.0,1700.0,2.00213433984
238,2_36_1,36,1.0,1251.77948973,2_ND,test,01,2,51.0,10110,kill,1.0,1800.0,4.74302860319
239,2_36_1,36,1.0,1255.23281177,2_ND,test,01,2,52.0,00101,ignore,1.0,1900.0,1.24734695687
240,2_36_1,36,1.0,1259.2486081,2_ND,test,01,2,53.0,00011,ignore,1.0,2000.0,1.86749604455
241,2_36_1,36,1.0,1263.09255374,2_ND,test,01,2,54.0,01010,ignore,1.0,2100.0,1.66586353526
242,2_36_1,36,1.0,1267.09269497,2_ND,test,01,2,55.0,11110,kill,0.0,2000.0,1.86108440392
243,2_36_1,36,1.0,1280.76526901,2_ND,test,01,2,56.0,01000,ignore,1.0,2100.0,11.5204098556
244,2_36_1,36,1.0,1284.34668757,2_ND,test,01,2,57.0,00001,ignore,1.0,2200.0,1.39700896842
245,2_36_1,36,1.0,1287.94061289,2_ND,test,01,2,58.0,00010,ignore,1.0,2300.0,1.4441885937
246,2_36_1,36,1.0,1291.53455832,2_ND,test,01,2,59.0,01011,ignore,1.0,2400.0,1.43465529118
247,2_36_1,36,1.0,1297.09730644,2_ND,test,01,2,60.0,10010,kill,1.0,2500.0,3.40450645803
248,2_36_1,36,1.0,1302.30068205,2_ND,test,01,2,61.0,10100,kill,1.0,2600.0,3.04867846636
249,2_36_1,36,1.0,1306.28524658,2_ND,test,01,2,62.0,00110,ignore,1.0,2700.0,1.82142731052
250,2_36_1,36,1.0,1316.52014137,2_ND,test,01,2,63.0,11101,kill,1.0,2800.0,8.05858206596
251,2_36_1,36,1.0,1321.05159035,2_ND,test,01,2,64.0,00100,ignore,1.0,2900.0,2.37438800402
252,2_36_1,36,1.0,1325.78620557,2_ND,test,01,2,65.0,11100,kill,0.0,2800.0,2.59358991938
253,2_36_1,36,1.0,1336.02107163,2_ND,test,01,2,66.0,11010,kill,0.0,2700.0,8.09402508003
254,2_36_1,36,1.0,1341.08386038,2_ND,test,01,2,67.0,00111,ignore,1.0,2800.0,2.83077751714
255,2_36_1,36,1.0,1345.19337308,2_ND,test,01,2,68.0,11001,kill,1.0,2900.0,1.89873442145
256,2_36_1,36,1.0,1349.00606885,2_ND,test,01,2,69.0,01110,ignore,1.0,3000.0,1.67148162349
257,2_36_1,36,1.0,1352.9750111,2_ND,test,01,2,70.0,11000,kill,0.0,2900.0,1.79038804014
258,2_36_1,36,1.0,1365.38187318,2_ND,test,01,2,71.0,11100,ignore,1.0,3000.0,10.2613878669
259,2_36_1,36,1.0,1369.30390594,2_ND,test,01,3,0.0,00101,ignore,1.0,3100.0,1.47964022888
260,2_36_1,36,1.0,1372.71034106,2_ND,test,01,3,1.0,00001,ignore,0.0,3000.0,1.21570338793
261,2_36_1,36,1.0,1380.24197272,2_ND,test,01,3,2.0,11101,ignore,1.0,3100.0,5.39063920173
262,2_36_1,36,1.0,1385.03906716,2_ND,test,01,3,3.0,00110,kill,0.0,3000.0,2.63886674313
263,2_36_1,36,1.0,1390.66431584,2_ND,test,01,3,4.0,11010,kill,1.0,3100.0,3.48250531019
264,2_36_1,36,1.0,1395.66460157,2_ND,test,01,3,5.0,01101,kill,0.0,3000.0,2.8366870809
265,2_36_1,36,1.0,1407.33700442,2_ND,test,01,3,6.0,01010,kill,1.0,3100.0,9.49761729016
266,2_36_1,36,1.0,1411.13407012,2_ND,test,01,3,7.0,11011,kill,1.0,3200.0,1.49109685937
267,2_36_1,36,1.0,1415.66555318,2_ND,test,01,3,8.0,00111,ignore,1.0,3300.0,2.32941004531
268,2_36_1,36,1.0,1419.29069224,2_ND,test,01,3,9.0,11001,kill,0.0,3200.0,1.48194124346
269,2_36_1,36,1.0,1428.04115306,2_ND,test,01,3,10.0,00011,kill,1.0,3300.0,6.58463382052
270,2_36_1,36,1.0,1436.93217405,2_ND,test,01,3,11.0,10101,ignore,1.0,3400.0,6.71063910321
271,2_36_1,36,1.0,1441.26051796,2_ND,test,01,3,12.0,11111,ignore,1.0,3500.0,2.20821328784
272,2_36_1,36,1.0,1448.04210754,2_ND,test,01,3,13.0,01001,kill,1.0,3600.0,4.6249691077
273,2_36_1,36,1.0,1452.2923089,2_ND,test,01,3,14.0,01111,ignore,1.0,3700.0,2.09221054222
274,2_36_1,36,1.0,1461.49586679,2_ND,test,01,3,15.0,10100,ignore,1.0,3800.0,7.04108162875
275,2_36_1,36,1.0,1466.50241022,2_ND,test,01,3,16.0,01100,ignore,1.0,3900.0,2.80401513702
276,2_36_1,36,1.0,1471.31511584,2_ND,test,01,3,17.0,00010,kill,1.0,4000.0,2.58421549156
277,2_36_1,36,1.0,1479.47178845,2_ND,test,01,3,18.0,01011,kill,1.0,4100.0,5.82183866049
278,2_36_1,36,1.0,1485.90964505,2_ND,test,01,3,19.0,10000,kill,0.0,4000.0,4.16918799843
279,2_36_1,36,1.0,1491.09735611,2_ND,test,01,3,20.0,10010,kill,1.0,4100.0,3.02978099924
280,2_36_1,36,1.0,1497.09765498,2_ND,test,01,3,21.0,10110,ignore,1.0,4200.0,3.79885848329
281,2_36_1,36,1.0,1502.17604301,2_ND,test,01,3,22.0,10001,kill,0.0,4100.0,2.89318653367
282,2_36_1,36,1.0,1506.92626736,2_ND,test,01,3,23.0,00100,ignore,1.0,4200.0,2.50149186209
283,2_36_1,36,1.0,1510.94204686,2_ND,test,01,3,24.0,01000,kill,1.0,4300.0,1.77706391361
284,2_36_1,36,1.0,1515.69224946,2_ND,test,01,3,25.0,10011,kill,1.0,4400.0,2.55701302444
285,2_36_1,36,1.0,1526.56782554,2_ND,test,01,3,26.0,11110,ignore,1.0,4500.0,8.01040403435
286,2_36_1,36,1.0,1532.39623143,2_ND,test,01,3,27.0,00000,kill,1.0,4600.0,3.5765386008
287,2_36_1,36,1.0,1540.55285765,2_ND,test,01,3,28.0,10111,ignore,1.0,4700.0,5.89432164612
288,2_36_1,36,1.0,1544.59997036,2_ND,test,01,3,29.0,11011,kill,1.0,4800.0,1.89389715922
289,2_36_1,36,1.0,1550.72526091,2_ND,test,01,3,30.0,10100,ignore,1.0,4900.0,3.91440143652
290,2_36_1,36,1.0,1554.95978664,2_ND,test,01,3,31.0,00111,ignore,1.0,5000.0,1.97571967772
291,2_36_1,36,1.0,1560.69444866,2_ND,test,01,3,32.0,11100,ignore,1.0,5100.0,3.46009823136
292,2_36_1,36,1.0,1564.38213222,2_ND,test,01,4,0.0,11110,ignore,1.0,5200.0,1.43450257443
293,2_36_1,36,1.0,1568.89796961,2_ND,test,01,4,1.0,01010,kill,0.0,5100.0,2.21265480019
294,2_36_1,36,1.0,1582.1330126,2_ND,test,01,4,2.0,11111,ignore,1.0,5200.0,10.9642889105
295,2_36_1,36,1.0,1588.50830048,2_ND,test,01,4,3.0,00011,kill,1.0,5300.0,4.05193806597
296,2_36_1,36,1.0,1593.3241524,2_ND,test,01,4,4.0,00001,kill,1.0,5400.0,2.60984440133
297,2_36_1,36,1.0,1597.79314597,2_ND,test,01,4,5.0,00101,ignore,0.0,5300.0,2.25876048183
298,2_36_1,36,1.0,1605.65286373,2_ND,test,01,4,6.0,01110,ignore,1.0,5400.0,5.5714106841
299,2_36_1,36,1.0,1610.62189507,2_ND,test,01,4,7.0,00010,kill,0.0,5300.0,2.69641509728
300,2_36_1,36,1.0,1616.54406371,2_ND,test,01,4,8.0,01001,kill,0.0,5200.0,2.59258412353
301,2_36_1,36,1.0,1625.13826737,2_ND,test,01,4,9.0,01000,ignore,1.0,5300.0,6.2280328029
302,2_36_1,36,1.0,1629.96659075,2_ND,test,01,4,10.0,10111,kill,1.0,5400.0,2.56692852938
303,2_36_1,36,1.0,1634.99805861,2_ND,test,01,4,11.0,01111,kill,0.0,5300.0,2.71265562125
304,2_36_1,36,1.0,1640.42020919,2_ND,test,01,4,12.0,00100,kill,1.0,5400.0,3.15880736423
305,2_36_1,36,1.0,1644.07664329,2_ND,test,01,4,13.0,01100,kill,0.0,5300.0,1.4212638379
306,2_36_1,36,1.0,1651.01448674,2_ND,test,01,4,14.0,10001,ignore,0.0,5200.0,4.65828435039
307,2_36_1,36,1.0,1656.28035512,2_ND,test,01,4,15.0,11000,ignore,1.0,5300.0,3.01924395352
308,2_36_1,36,1.0,1665.23392389,2_ND,test,01,4,16.0,10110,kill,1.0,5400.0,6.71152174038
309,2_36_1,36,1.0,1669.62477329,2_ND,test,01,4,17.0,11010,ignore,1.0,5500.0,2.27020028064
310,2_36_1,36,1.0,1675.59376686,2_ND,test,01,4,18.0,11001,ignore,1.0,5600.0,3.76017434342
311,2_36_1,36,1.0,1681.2034064,2_ND,test,01,4,19.0,10000,ignore,1.0,5700.0,3.30489900578
312,2_36_1,36,1.0,1688.92254838,2_ND,test,01,4,20.0,11101,kill,0.0,5600.0,5.57535874069
313,2_36_1,36,1.0,1694.61033129,2_ND,test,01,4,21.0,00000,ignore,1.0,5700.0,3.42312558654
314,2_36_1,36,1.0,1698.93864071,2_ND,test,01,4,22.0,01011,ignore,1.0,5800.0,2.05084564852
315,2_36_1,36,1.0,1705.5796073,2_ND,test,01,4,23.0,10011,ignore,0.0,5700.0,4.40373220049
316,2_36_1,36,1.0,1715.08005683,2_ND,test,01,4,24.0,10010,kill,0.0,5600.0,7.19517940524
317,2_36_1,36,1.0,1719.67408068,2_ND,test,01,4,25.0,01101,kill,0.0,5500.0,2.36577223363
318,2_36_1,36,1.0,1730.5808237,2_ND,test,01,4,26.0,00110,kill,1.0,5600.0,8.61606391443
319,2_36_1,36,1.0,1740.11278338,2_ND,test,01,4,27.0,10101,kill,1.0,5700.0,7.26364536542
320,2_36_1,36,1.0,1745.06587922,2_ND,test,01,4,28.0,11011,ignore,1.0,5800.0,2.59610646164
321,2_36_1,36,1.0,1749.47238002,2_ND,test,01,4,29.0,01010,ignore,1.0,5900.0,2.19611623223
322,2_36_1,36,1.0,1755.33199515,2_ND,test,01,4,30.0,01111,kill,0.0,5800.0,3.69673530984
323,2_36_1,36,1.0,1765.66065803,2_ND,test,01,4,31.0,10010,ignore,1.0,5900.0,8.0427717763
324,2_36_1,36,1.0,1770.25459484,2_ND,test,01,4,32.0,11001,ignore,1.0,6000.0,2.33178454457
325,2_36_1,36,1.0,1774.60247335,2_ND,test,01,4,33.0,01011,ignore,1.0,6100.0,2.10105826144
326,2_36_1,36,1.0,1781.81278239,2_ND,test,01,4,34.0,11101,kill,0.0,6000.0,4.99063008799
327,2_36_1,36,1.0,1793.93839562,2_ND,test,01,4,35.0,01100,kill,0.0,5900.0,9.93567299237
328,2_36_1,36,1.0,1801.39183877,2_ND,test,01,4,36.0,00010,ignore,1.0,6000.0,5.14640159088
329,2_36_1,36,1.0,1806.96497942,2_ND,test,01,4,37.0,00110,kill,1.0,6100.0,3.30290506683
330,2_36_1,36,1.0,1810.82459783,2_ND,test,01,4,38.0,11010,ignore,1.0,6200.0,1.69525863732
331,2_36_1,36,1.0,1814.59038246,2_ND,test,01,4,39.0,00011,ignore,0.0,6100.0,1.58294859932
332,2_36_1,36,1.0,1819.41875551,2_ND,test,01,4,40.0,10000,ignore,1.0,6200.0,2.62270873548
333,2_36_1,36,1.0,1825.4977347,2_ND,test,01,4,41.0,11110,kill,0.0,6100.0,3.89070981271
334,2_36_1,36,1.0,1830.06048815,2_ND,test,01,4,42.0,01110,kill,0.0,6000.0,2.35793113131
335,2_36_1,36,1.0,1835.88370537,2_ND,test,01,4,43.0,01000,ignore,1.0,6100.0,3.59228813218
336,2_36_1,36,1.0,1839.79009739,2_ND,test,01,4,44.0,10011,ignore,0.0,6000.0,1.6795994223
337,2_36_1,36,1.0,1845.99357563,2_ND,test,01,4,45.0,10110,kill,1.0,6100.0,3.9635499585
338,2_36_1,36,1.0,1850.70168875,2_ND,test,01,4,46.0,00101,kill,1.0,6200.0,2.47791600743
339,2_36_1,36,1.0,1859.38964818,2_ND,test,01,4,47.0,11100,ignore,1.0,6300.0,6.45603030032
340,2_36_1,36,1.0,1868.87441756,2_ND,test,01,4,48.0,10001,kill,1.0,6400.0,7.31433213924
341,2_36_1,36,1.0,1874.7809389,2_ND,test,01,4,49.0,10100,ignore,0.0,6300.0,3.67257075671
342,2_36_1,36,1.0,1878.87492867,2_ND,test,01,4,50.0,00001,kill,1.0,6400.0,1.83360565085
343,2_36_1,36,1.0,1886.56276371,2_ND,test,01,4,51.0,11000,kill,0.0,6300.0,5.46715563398
344,2_36_1,36,1.0,1895.32884721,2_ND,test,01,4,52.0,00000,ignore,1.0,6400.0,6.55023313937
345,2_36_1,36,1.0,1900.18843647,2_ND,test,01,4,53.0,10111,kill,1.0,6500.0,2.64166942405
346,2_36_1,36,1.0,1906.14184965,2_ND,test,01,4,54.0,00100,ignore,0.0,6400.0,3.74248670502
347,2_36_1,36,1.0,1914.14226715,2_ND,test,01,4,55.0,01101,ignore,1.0,6500.0,5.7844489183
348,2_36_1,36,1.0,1919.61127222,2_ND,test,01,4,56.0,10101,ignore,0.0,6400.0,3.29256589605
349,2_36_1,36,1.0,1926.3928499,2_ND,test,01,4,57.0,01001,kill,0.0,6300.0,4.5835175924
350,2_36_1,36,1.0,1931.5181113,2_ND,test,01,4,58.0,11111,ignore,1.0,6400.0,2.8994491523
351,2_36_1,36,1.0,1936.65898635,2_ND,test,01,4,59.0,00111,ignore,0.0,6300.0,2.92887258086
352,2_36_1,36,1.0,1943.62805752,2_ND,test,01,4,60.0,10101,kill,1.0,6400.0,4.72449445417
353,2_36_1,36,1.0,1956.55054268,2_ND,test,01,4,61.0,10000,ignore,1.0,6500.0,10.7677412124
354,2_36_1,36,1.0,1964.03840457,2_ND,test,01,4,62.0,00000,kill,0.0,6400.0,5.19750956738
355,2_36_1,36,1.0,1968.72612056,2_ND,test,01,4,63.0,11001,ignore,1.0,6500.0,2.40369976871
356,2_36_1,36,1.0,1975.28903945,2_ND,test,01,4,64.0,01011,ignore,1.0,6600.0,4.28976937306
357,2_36_1,36,1.0,1982.58618028,2_ND,test,01,4,65.0,10110,kill,1.0,6700.0,5.01700328669
358,2_36_1,36,1.0,1994.21178571,2_ND,test,01,5,0.0,01000,ignore,1.0,6800.0,9.40574215007
359,2_36_1,36,1.0,1998.6964151,2_ND,test,01,5,1.0,01100,kill,0.0,6700.0,2.22259904215
360,2_36_1,36,1.0,2007.04049334,2_ND,test,01,5,2.0,00001,ignore,1.0,6800.0,5.87968013229
361,2_36_1,36,1.0,2012.33763581,2_ND,test,01,5,3.0,00110,ignore,1.0,6900.0,2.90755094048
362,2_36_1,36,1.0,2016.86912831,2_ND,test,01,5,4.0,01010,ignore,1.0,7000.0,2.29049272502
363,2_36_1,36,1.0,2021.16619073,2_ND,test,01,5,5.0,10001,kill,1.0,7100.0,2.17716580688
364,2_36_1,36,1.0,2033.19840083,2_ND,test,01,5,6.0,11011,ignore,0.0,7000.0,9.77046055597
365,2_36_1,36,1.0,2038.56566533,2_ND,test,01,5,7.0,11010,kill,0.0,6900.0,3.13843732989
366,2_36_1,36,1.0,2044.20663768,2_ND,test,01,5,8.0,11110,kill,0.0,6800.0,3.60539098364
367,2_36_1,36,1.0,2048.78504624,2_ND,test,01,5,9.0,00010,kill,0.0,6700.0,2.3760843095
368,2_36_1,36,1.0,2056.67605245,2_ND,test,01,5,10.0,10100,ignore,0.0,6600.0,5.72352314275
369,2_36_1,36,1.0,2062.16064284,2_ND,test,01,5,11.0,11100,kill,0.0,6500.0,3.32546239925
370,2_36_1,36,1.0,2069.73914787,2_ND,test,01,5,12.0,11000,ignore,1.0,6600.0,5.36928307693
371,2_36_1,36,1.0,2074.86444499,2_ND,test,01,5,13.0,01110,ignore,1.0,6700.0,3.03934016508
372,2_36_1,36,1.0,2078.86701778,2_ND,test,01,5,14.0,01101,ignore,1.0,6800.0,1.85286520447
373,2_36_1,36,1.0,2087.96117382,2_ND,test,01,5,15.0,00100,ignore,1.0,6900.0,6.84457949934
374,2_36_1,36,1.0,2092.19246786,2_ND,test,01,5,16.0,00011,kill,0.0,6800.0,2.12453558916
375,2_36_1,36,1.0,2103.18687933,2_ND,test,01,5,17.0,11101,kill,1.0,6900.0,7.94502730428
376,2_36_1,36,1.0,2111.60912228,2_ND,test,01,5,18.0,01111,ignore,1.0,7000.0,6.33858495609
377,2_36_1,36,1.0,2118.8282852,2_ND,test,01,5,19.0,10011,ignore,0.0,6900.0,4.9946208396
378,2_36_1,36,1.0,2130.59443027,2_ND,test,01,5,20.0,01001,ignore,1.0,7000.0,9.48967725038
379,2_36_1,36,1.0,2135.9540848,2_ND,test,01,5,21.0,00101,ignore,1.0,7100.0,3.16529207901
380,2_36_1,36,1.0,2142.97009051,2_ND,test,01,5,22.0,00111,ignore,1.0,7200.0,4.78133218276
381,2_36_1,36,1.0,2147.48586179,2_ND,test,01,5,23.0,10111,kill,1.0,7300.0,2.33675112341
382,2_36_1,36,1.0,2152.767421,2_ND,test,01,5,24.0,11111,kill,1.0,7400.0,3.05314173675
383,2_36_1,36,1.0,2158.67391852,2_ND,test,01,5,25.0,10010,kill,1.0,7500.0,3.76912674752
384,2_36_1,36,1.0,2163.08040168,2_ND,test,01,5,26.0,10111,kill,1.0,7600.0,2.2457360414
385,2_36_1,36,1.0,2170.36199865,2_ND,test,01,5,27.0,00110,ignore,1.0,7700.0,5.08394905829
386,2_36_1,36,1.0,2176.67483934,2_ND,test,01,5,28.0,01001,ignore,1.0,7800.0,4.28374609279
387,2_36_1,36,1.0,2181.20628996,2_ND,test,01,5,29.0,10000,kill,1.0,7900.0,2.44803073384
388,2_36_1,36,1.0,2186.75343921,2_ND,test,01,6,0.0,10001,kill,0.0,7800.0,3.42785775337
