,unique_id,pair_id,sbj_id,wall_time,condition,block,rule_id,rule_num,trial,stimulus,choice,correct,points,reaction_time
0,1_28_2,28,2.0,36.1925011146,1_I,training,03,1_B,1.0,10111,kill,0.0,0.0,2.0190234995
1,1_28_2,28,2.0,43.0834753079,1_I,training,03,1_B,2.0,11000,ignore,1.0,100.0,4.64289074758
2,1_28_2,28,2.0,48.5837655519,1_I,training,03,1_B,3.0,01101,ignore,0.0,0.0,3.28335855349
3,1_28_2,28,2.0,60.6467969302,1_I,training,03,1_B,4.0,00110,kill,0.0,0.0,9.87235301217
4,1_28_2,28,2.0,66.0221176559,1_I,training,03,1_B,5.0,00000,ignore,0.0,0.0,3.13117096805
5,1_28_2,28,2.0,71.1629290746,1_I,training,03,1_B,6.0,10100,ignore,0.0,0.0,2.91376963252
6,1_28_2,28,2.0,80.4290326871,1_I,training,03,1_B,7.0,01111,ignore,1.0,100.0,6.96461117575
7,1_28_2,28,2.0,89.9138739069,1_I,training,03,1_B,8.0,10000,kill,1.0,200.0,7.28585415878
8,1_28_2,28,2.0,94.9765805569,1_I,training,03,1_B,9.0,00011,ignore,1.0,300.0,2.83223037898
9,1_28_2,28,2.0,100.039347965,1_I,training,03,1_B,10.0,01011,ignore,1.0,400.0,2.80967797291
10,1_28_2,28,2.0,107.711631352,1_I,training,03,1_B,11.0,01110,kill,0.0,300.0,5.45962981787
11,1_28_2,28,2.0,114.47754571,1_I,training,03,1_B,12.0,11101,kill,1.0,400.0,4.55443613443
12,1_28_2,28,2.0,119.54036074,1_I,training,03,1_B,13.0,10010,ignore,1.0,500.0,2.84436397165
13,1_28_2,28,2.0,125.196819468,1_I,training,03,1_B,14.0,11010,ignore,1.0,600.0,3.4582787672
14,1_28_2,28,2.0,131.478368821,1_I,training,03,1_B,15.0,00010,ignore,1.0,700.0,4.06245622735
15,1_28_2,28,2.0,147.033749993,1_I,training,03,1_B,16.0,00001,ignore,0.0,600.0,13.3863393219
16,1_28_2,28,2.0,150.992133034,1_I,training,03,1_B,17.0,11111,kill,0.0,500.0,1.8240505903
17,1_28_2,28,2.0,160.978875824,1_I,training,03,1_B,18.0,10001,kill,1.0,600.0,7.74793031846
18,1_28_2,28,2.0,166.93232595,1_I,training,03,1_B,19.0,10011,ignore,1.0,700.0,3.77416927421
19,1_28_2,28,2.0,175.232781801,1_I,training,03,1_B,20.0,11011,kill,0.0,600.0,6.13671228738
20,1_28_2,28,2.0,180.250859853,1_I,training,03,1_B,21.0,10101,ignore,0.0,500.0,2.75197854412
21,1_28_2,28,2.0,184.360422631,1_I,training,03,1_B,22.0,01100,ignore,0.0,400.0,1.9233776513
22,1_28_2,28,2.0,188.035922101,1_I,training,03,1_B,23.0,00111,ignore,1.0,500.0,1.50714402422
23,1_28_2,28,2.0,192.701572572,1_I,training,03,1_B,24.0,01001,ignore,1.0,600.0,2.49190190658
24,1_28_2,28,2.0,198.488973193,1_I,training,03,1_B,25.0,11100,kill,1.0,700.0,3.63991605505
25,1_28_2,28,2.0,203.97873296,1_I,training,03,1_B,26.0,01010,ignore,1.0,800.0,3.29507340667
26,1_28_2,28,2.0,208.041490105,1_I,training,03,1_B,27.0,01000,ignore,1.0,900.0,1.80906423218
27,1_28_2,28,2.0,212.916699988,1_I,training,03,1_B,28.0,11110,kill,0.0,800.0,2.61635990578
28,1_28_2,28,2.0,217.104378619,1_I,training,03,1_B,29.0,10110,ignore,1.0,900.0,1.93502928303
29,1_28_2,28,2.0,222.776535563,1_I,training,03,1_B,30.0,00100,kill,1.0,1000.0,3.40698933692
30,1_28_2,28,2.0,226.4485558,1_I,training,03,1_B,31.0,00101,ignore,0.0,900.0,1.4191015821
31,1_28_2,28,2.0,230.011234945,1_I,training,03,1_B,32.0,11001,ignore,1.0,1000.0,1.30109956065
32,1_28_2,28,2.0,236.089744495,1_I,training,03,1_B,33.0,01001,ignore,1.0,1100.0,3.83192699811
33,1_28_2,28,2.0,242.933751307,1_I,training,03,1_B,34.0,10101,kill,1.0,1200.0,4.52254132179
34,1_28_2,28,2.0,252.309216128,1_I,training,03,1_B,35.0,11010,ignore,1.0,1300.0,7.17250630367
35,1_28_2,28,2.0,257.231356856,1_I,training,03,1_B,36.0,10111,ignore,1.0,1400.0,2.70136894973
36,1_28_2,28,2.0,261.700276532,1_I,training,03,1_B,37.0,11001,ignore,1.0,1500.0,2.18479138152
37,1_28_2,28,2.0,267.809976017,1_I,training,03,1_B,38.0,01100,ignore,0.0,1400.0,3.85420599192
38,1_28_2,28,2.0,273.654018134,1_I,training,03,1_B,39.0,00101,ignore,0.0,1300.0,3.50366438112
39,1_28_2,28,2.0,277.09168137,1_I,training,03,1_B,40.0,00010,ignore,1.0,1400.0,1.16146800214
40,1_28_2,28,2.0,283.388859969,1_I,training,03,1_B,41.0,11101,kill,1.0,1500.0,4.06169551727
41,1_28_2,28,2.0,288.982875607,1_I,training,03,1_B,42.0,10010,ignore,1.0,1600.0,3.33694858782
42,1_28_2,28,2.0,293.85807728,1_I,training,03,1_B,43.0,11000,kill,0.0,1500.0,2.61418492357
43,1_28_2,28,2.0,297.514531492,1_I,training,03,1_B,44.0,01110,ignore,1.0,1600.0,1.42355951561
44,1_28_2,28,2.0,303.217923528,1_I,training,03,1_B,45.0,10110,ignore,1.0,1700.0,3.44162648273
45,1_28_2,28,2.0,306.874371583,1_I,training,03,1_B,46.0,00100,ignore,0.0,1600.0,1.40680418838
46,1_28_2,28,2.0,311.265254639,1_I,training,03,1_B,47.0,10001,ignore,0.0,1500.0,2.13150226489
47,1_28_2,28,2.0,314.687252092,1_I,training,03,1_B,48.0,10011,ignore,1.0,1600.0,1.15080122929
48,1_28_2,28,2.0,318.109282387,1_I,training,03,1_B,49.0,00111,ignore,1.0,1700.0,1.16366802661
49,1_28_2,28,2.0,321.593826795,1_I,training,03,1_B,50.0,00001,ignore,0.0,1600.0,1.21635325521
50,1_28_2,28,2.0,325.375245188,1_I,training,03,1_B,51.0,01101,ignore,0.0,1500.0,1.50629012407
51,1_28_2,28,2.0,329.393887307,1_I,training,03,1_B,52.0,11100,kill,1.0,1600.0,1.77448620253
52,1_28_2,28,2.0,333.378460451,1_I,training,03,1_B,53.0,11111,ignore,1.0,1700.0,1.7777026966
53,1_28_2,28,2.0,336.879901818,1_I,training,03,1_B,54.0,01011,ignore,1.0,1800.0,1.29534394523
54,1_28_2,28,2.0,340.833186911,1_I,training,03,1_B,55.0,10100,kill,1.0,1900.0,1.71170935209
55,1_28_2,28,2.0,344.47404472,1_I,training,03,1_B,56.0,00011,ignore,1.0,2000.0,1.28710668251
56,1_28_2,28,2.0,348.168173581,1_I,training,03,1_B,57.0,01111,ignore,1.0,2100.0,1.46772011124
57,1_28_2,28,2.0,351.933970529,1_I,training,03,1_B,58.0,11011,ignore,1.0,2200.0,1.58845748686
58,1_28_2,28,2.0,355.512318741,1_I,training,03,1_B,59.0,01010,ignore,1.0,2300.0,1.30717662022
59,1_28_2,28,2.0,359.621968141,1_I,training,03,1_B,60.0,11110,ignore,1.0,2400.0,1.84952062538
60,1_28_2,28,2.0,362.819196907,1_I,training,03,1_B,61.0,00000,kill,1.0,2500.0,0.995815478747
61,1_28_2,28,2.0,366.522538448,1_I,training,03,1_B,62.0,10000,kill,1.0,2600.0,1.4885901698
62,1_28_2,28,2.0,370.397803752,1_I,training,03,1_B,63.0,01000,kill,0.0,2500.0,1.71012553153
63,1_28_2,28,2.0,374.557302447,1_I,training,03,1_B,64.0,00110,ignore,1.0,2600.0,1.98697720169
64,1_28_2,28,2.0,378.627296396,1_I,training,03,1_B,65.0,10111,ignore,1.0,2700.0,1.85981422745
65,1_28_2,28,2.0,382.908757074,1_I,training,03,1_B,66.0,00010,ignore,1.0,2800.0,2.10232022733
66,1_28_2,28,2.0,387.705834273,1_I,training,03,1_B,67.0,11101,kill,1.0,2900.0,2.5972600479
67,1_28_2,28,2.0,394.305928612,1_I,training,03,1_B,68.0,11000,kill,0.0,2800.0,4.45938678475
68,1_28_2,28,2.0,398.196915122,1_I,training,03,1_B,69.0,10101,kill,1.0,2900.0,1.66048560645
69,1_28_2,28,2.0,401.368942748,1_I,training,03,1_B,70.0,01111,ignore,1.0,3000.0,0.963974445396
70,1_28_2,28,2.0,407.666138179,1_I,training,03,1_B,71.0,01101,kill,1.0,3100.0,4.09765620831
71,1_28_2,28,2.0,411.603838774,1_I,training,03,1_B,72.0,11111,ignore,1.0,3200.0,1.79273257079
72,1_28_2,28,2.0,414.760240028,1_I,training,03,1_B,73.0,00111,ignore,1.0,3300.0,0.949653144116
73,1_28_2,28,2.0,420.776177582,1_I,training,03,1_B,74.0,01000,ignore,1.0,3400.0,3.82013742866
74,1_28_2,28,2.0,425.635764376,1_I,training,03,1_B,75.0,10110,ignore,1.0,3500.0,2.67250917738
75,1_28_2,28,2.0,429.385931256,1_I,training,03,1_B,76.0,11001,kill,0.0,3400.0,1.570124497
76,1_28_2,28,2.0,433.544944706,1_I,training,03,1_B,77.0,01110,ignore,1.0,3500.0,1.88953200524
77,1_28_2,28,2.0,436.685719587,1_I,training,03,1_B,78.0,00011,ignore,1.0,3600.0,0.920960457033
78,1_28_2,28,2.0,442.485334675,1_I,training,03,1_B,79.0,10100,kill,1.0,3700.0,3.5548232632
79,1_28_2,28,2.0,446.141712119,1_I,training,03,1_B,80.0,11010,ignore,1.0,3800.0,1.41189885224
80,1_28_2,28,2.0,449.438716243,1_I,training,03,1_B,81.0,11011,ignore,1.0,3900.0,1.02067793103
81,1_28_2,28,2.0,452.710839031,1_I,training,03,1_B,82.0,00110,ignore,1.0,4000.0,1.02928425925
82,1_28_2,28,2.0,457.495408234,1_I,training,03,1_B,83.0,00100,kill,1.0,4100.0,2.55963425158
83,1_28_2,28,2.0,460.720740167,1_I,training,03,1_B,84.0,01011,ignore,1.0,4200.0,0.989887851711
84,1_28_2,28,2.0,463.911675525,1_I,training,03,1_B,85.0,01010,ignore,1.0,4300.0,1.07036547747
85,1_28_2,28,2.0,467.239933626,1_I,training,03,1_B,86.0,10011,ignore,1.0,4400.0,1.14706418455
86,1_28_2,28,2.0,473.458990624,1_I,training,03,1_B,87.0,11100,kill,1.0,4500.0,4.02152567325
87,1_28_2,28,2.0,478.771939281,1_I,training,03,1_B,88.0,01100,kill,1.0,4600.0,3.08174985488
88,1_28_2,28,2.0,484.069068206,1_I,training,03,1_B,89.0,00000,kill,1.0,4700.0,3.10805695842
89,1_28_2,28,2.0,488.381831714,1_I,training,03,1_B,90.0,01001,ignore,1.0,4800.0,2.07696144559
90,1_28_2,28,2.0,492.038248979,1_I,training,03,1_B,91.0,00001,kill,1.0,4900.0,1.46037082256
91,1_28_2,28,2.0,495.569664294,1_I,training,03,1_B,92.0,11110,ignore,1.0,5000.0,1.36927322424
92,1_28_2,28,2.0,500.194837435,1_I,training,03,1_B,93.0,10001,kill,1.0,5100.0,2.43662418787
93,1_28_2,28,2.0,503.931382965,1_I,training,03,1_B,94.0,00101,kill,1.0,5200.0,1.51825581042
94,1_28_2,28,2.0,507.119022186,1_I,training,03,1_B,95.0,10010,ignore,1.0,5300.0,1.02226010948
95,1_28_2,28,2.0,511.650549165,1_I,training,03,1_B,96.0,10000,kill,1.0,5400.0,2.28189953372
96,1_28_2,28,2.0,515.119425736,1_I,training,03,1_B,97.0,00001,kill,1.0,5500.0,1.29274940248
97,1_28_2,28,2.0,518.275821243,1_I,training,03,1_B,98.0,01110,ignore,1.0,5600.0,1.02887003558
98,1_28_2,28,2.0,521.588470624,1_I,training,03,1_B,99.0,10011,ignore,1.0,5700.0,1.12231052243
99,1_28_2,28,2.0,525.076104672,1_I,training,03,1_B,100.0,11111,ignore,1.0,5800.0,1.332259116
100,1_28_2,28,2.0,531.047495322,1_I,training,03,1_B,101.0,11001,ignore,1.0,5900.0,3.75751904238
101,1_28_2,28,2.0,535.469479638,1_I,training,03,1_B,102.0,10010,ignore,1.0,6000.0,2.20171584666
102,1_28_2,28,2.0,538.735284796,1_I,training,03,1_B,103.0,01010,ignore,1.0,6100.0,1.07515552888
103,1_28_2,28,2.0,542.719844393,1_I,training,03,1_B,104.0,00110,ignore,1.0,6200.0,1.674427579
104,1_28_2,28,2.0,548.485785436,1_I,training,03,1_B,105.0,01000,ignore,1.0,6300.0,3.53250567967
105,1_28_2,28,2.0,552.035966438,1_I,training,03,1_B,106.0,10111,ignore,1.0,6400.0,1.3896789746
106,1_28_2,28,2.0,555.242405831,1_I,training,03,1_B,107.0,00011,ignore,1.0,6500.0,1.01984948368
107,1_28_2,28,2.0,559.747932371,1_I,training,03,1_B,108.0,00101,kill,1.0,6600.0,2.32344752332
108,1_28_2,28,2.0,563.076263136,1_I,training,03,1_B,109.0,01111,ignore,1.0,6700.0,1.18260244133
109,1_28_2,28,2.0,569.123485867,1_I,training,03,1_B,110.0,11100,ignore,0.0,6600.0,3.88184977762
110,1_28_2,28,2.0,573.654898308,1_I,training,03,1_B,111.0,11110,ignore,1.0,6700.0,2.23502575248
111,1_28_2,28,2.0,577.248826093,1_I,training,03,1_B,112.0,00010,ignore,1.0,6800.0,0.932452393014
112,1_28_2,28,2.0,581.639638127,1_I,training,03,1_B,113.0,00111,ignore,1.0,6900.0,1.24675004783
113,1_28_2,28,2.0,586.811763049,1_I,training,03,1_B,114.0,10100,kill,1.0,7000.0,2.56374200392
114,1_28_2,28,2.0,592.171465613,1_I,training,03,1_B,115.0,00000,kill,1.0,7100.0,2.96378354945
115,1_28_2,28,2.0,595.530993291,1_I,training,03,1_B,116.0,01011,ignore,1.0,7200.0,0.916312448631
116,1_28_2,28,2.0,602.641607024,1_I,training,03,1_B,117.0,01001,ignore,1.0,7300.0,4.66885505948
117,1_28_2,28,2.0,606.829268002,1_I,training,03,1_B,118.0,10001,kill,1.0,7400.0,2.01594945896
118,1_28_2,28,2.0,611.051366199,1_I,training,03,1_B,119.0,11101,kill,1.0,7500.0,2.02294979806
119,1_28_2,28,2.0,615.770403492,1_I,training,03,1_B,120.0,01100,kill,1.0,7600.0,2.49394593006
120,1_28_2,28,2.0,618.867312538,1_I,training,03,1_B,121.0,11011,ignore,1.0,7700.0,0.920871782788
121,1_28_2,28,2.0,623.211251612,1_I,training,03,1_B,122.0,00100,kill,1.0,7800.0,2.11081324957
122,1_28_2,28,2.0,626.91455169,1_I,training,03,1_B,123.0,10101,kill,1.0,7900.0,1.51480203064
123,1_28_2,28,2.0,632.102255774,1_I,training,03,1_B,124.0,11000,kill,0.0,7800.0,3.01316402026
124,1_28_2,28,2.0,639.133911249,1_I,training,03,1_B,125.0,10110,ignore,1.0,7900.0,4.82423779148
125,1_28_2,28,2.0,645.917045653,1_I,training,03,1_B,126.0,01101,kill,1.0,8000.0,4.53198759217
126,1_28_2,28,2.0,649.651580413,1_I,training,03,1_B,127.0,10000,kill,1.0,8100.0,1.59196299328
127,1_28_2,28,2.0,652.808000552,1_I,training,03,1_B,128.0,11010,ignore,1.0,8200.0,0.989463364809
128,1_28_2,28,2.0,656.065930534,1_I,training,03,1_B,129.0,00000,kill,1.0,8300.0,0.996523641128
129,1_28_2,28,2.0,659.784813879,1_I,training,03,1_B,130.0,10010,ignore,1.0,8400.0,1.54437078643
130,1_28_2,28,2.0,663.144424894,1_I,training,03,1_B,131.0,00001,kill,1.0,8500.0,1.20082376733
131,1_28_2,28,2.0,667.644636317,1_I,training,03,1_B,132.0,11100,kill,1.0,8600.0,2.31879335699
132,1_28_2,28,2.0,670.944653723,1_I,training,03,1_B,133.0,10101,kill,1.0,8700.0,1.08742418557
133,1_28_2,28,2.0,674.054192691,1_I,training,03,1_B,134.0,10110,ignore,1.0,8800.0,0.905402642657
134,1_28_2,28,2.0,677.853067185,1_I,training,03,1_B,135.0,00110,ignore,1.0,8900.0,1.56682959191
135,1_28_2,28,2.0,681.665765829,1_I,training,03,1_B,136.0,11000,ignore,1.0,9000.0,1.62360697275
136,1_28_2,28,2.0,686.056625075,1_I,training,03,1_B,137.0,10000,kill,1.0,9100.0,2.14232709138
137,1_28_2,28,2.0,689.681795752,1_I,training,03,1_B,138.0,01011,ignore,1.0,9200.0,1.42025681047
138,1_28_2,28,2.0,693.088212401,1_I,training,03,1_B,139.0,01101,kill,1.0,9300.0,1.19712367019
139,1_28_2,28,2.0,696.150839819,1_I,training,03,1_B,140.0,10011,ignore,1.0,9400.0,0.891052193825
140,1_28_2,28,2.0,699.322846509,1_I,training,03,1_B,141.0,11010,ignore,1.0,9500.0,1.01730625704
141,1_28_2,28,2.0,702.666769162,1_I,training,03,1_B,142.0,11111,ignore,1.0,9600.0,1.14437973596
142,1_28_2,28,2.0,706.082377143,1_I,training,03,1_B,143.0,11110,ignore,1.0,9700.0,1.20547834419
143,1_28_2,28,2.0,709.779108758,1_I,training,03,1_B,144.0,11001,ignore,1.0,9800.0,1.48940342759
144,1_28_2,28,2.0,713.37927494,1_I,training,03,1_B,145.0,00101,kill,1.0,9900.0,1.42692503167
145,1_28_2,28,2.0,716.645060803,1_I,training,03,1_B,146.0,01110,ignore,1.0,10000.0,1.05710990926
146,1_28_2,28,2.0,720.382735288,1_I,training,03,1_B,147.0,11101,kill,1.0,10100.0,1.52926332228
147,1_28_2,28,2.0,723.66415984,1_I,training,03,1_B,148.0,01010,ignore,1.0,10200.0,1.0552875714
148,1_28_2,28,2.0,727.617487629,1_I,training,03,1_B,149.0,00010,ignore,1.0,10300.0,1.77398412567
149,1_28_2,28,2.0,731.289523877,1_I,training,03,1_B,150.0,11011,ignore,1.0,10400.0,1.46950426991
150,1_28_2,28,2.0,734.774047758,1_I,training,03,1_B,151.0,01100,kill,1.0,10500.0,1.24677139533
151,1_28_2,28,2.0,738.805499199,1_I,training,03,1_B,152.0,10100,kill,1.0,10600.0,1.72921923147
152,1_28_2,28,2.0,742.371385396,1_I,training,03,1_B,153.0,00100,kill,1.0,10700.0,1.27858738642
153,1_28_2,28,2.0,747.84038061,1_I,training,03,1_B,154.0,00111,ignore,1.0,10800.0,3.22906610419
154,1_28_2,28,2.0,751.8404894,1_I,training,03,1_B,155.0,01001,ignore,1.0,10900.0,1.76999830041
155,1_28_2,28,2.0,755.528251368,1_I,training,03,1_B,156.0,00011,ignore,1.0,11000.0,1.48015339002
156,1_28_2,28,2.0,762.21602319,1_I,training,03,1_B,157.0,01111,ignore,1.0,11100.0,4.46619828054
157,1_28_2,28,2.0,765.872443329,1_I,training,03,1_B,158.0,01000,ignore,1.0,11200.0,1.42361781071
158,1_28_2,28,2.0,769.341427869,1_I,training,03,1_B,159.0,10001,kill,1.0,11300.0,1.23499701546
159,1_28_2,28,2.0,774.372835794,1_I,training,03,1_B,160.0,10111,ignore,1.0,11400.0,2.74434311678
160,1_28_2,28,2.0,778.779348507,1_I,training,03,1_B,161.0,01010,ignore,1.0,11500.0,2.17785139018
161,1_28_2,28,2.0,782.232621285,1_I,training,03,1_B,162.0,01100,kill,1.0,11600.0,1.18487307677
162,1_28_2,28,2.0,786.029652504,1_I,training,03,1_B,163.0,00110,ignore,1.0,11700.0,1.52615684996
163,1_28_2,28,2.0,789.982995892,1_I,training,03,1_B,164.0,00100,kill,1.0,11800.0,1.72101932688
164,1_28_2,28,2.0,793.295641168,1_I,training,03,1_B,165.0,11011,ignore,1.0,11900.0,1.13072225995
165,1_28_2,28,2.0,796.842711593,1_I,training,03,1_B,166.0,00011,ignore,1.0,12000.0,1.26033978657
166,1_28_2,28,2.0,800.389757796,1_I,training,03,1_B,167.0,10101,kill,1.0,12100.0,1.37622142616
167,1_28_2,28,2.0,804.296169108,1_I,training,03,1_B,168.0,00000,kill,1.0,12200.0,1.64712330072
168,1_28_2,28,2.0,807.858862211,1_I,training,03,1_B,169.0,01110,ignore,1.0,12300.0,1.34419442321
169,1_28_2,28,2.0,810.99964325,1_I,training,03,1_B,170.0,11101,kill,1.0,12400.0,0.924764417981
170,1_28_2,28,2.0,815.828029026,1_I,training,03,1_B,171.0,11000,ignore,1.0,12500.0,2.61852585634
171,1_28_2,28,2.0,818.921905495,1_I,training,03,1_B,172.0,00010,ignore,1.0,12600.0,0.923357535381
172,1_28_2,28,2.0,822.343915264,1_I,training,03,1_B,173.0,10100,kill,1.0,12700.0,1.21794487582
173,1_28_2,28,2.0,826.547336447,1_I,training,03,1_B,174.0,11001,ignore,1.0,12800.0,2.01328184206
174,1_28_2,28,2.0,829.969315016,1_I,training,03,1_B,175.0,01000,ignore,1.0,12900.0,1.22291597048
175,1_28_2,28,2.0,833.25072602,1_I,training,03,1_B,176.0,10011,ignore,1.0,13000.0,0.86913569705
176,1_28_2,28,2.0,836.782170893,1_I,training,03,1_B,177.0,10001,kill,1.0,13100.0,1.37040669458
177,1_28_2,28,2.0,839.860384042,1_I,training,03,1_B,178.0,10111,ignore,1.0,13200.0,0.841319489204
178,1_28_2,28,2.0,842.97059135,1_I,training,03,1_B,179.0,01011,ignore,1.0,13300.0,0.899382236084
179,1_28_2,28,2.0,1004.4002739,1_I,test,03,2,0.0,00111,kill,1.0,100.0,3.26780361282
180,1_28_2,28,2.0,1009.91620941,1_I,test,03,2,1.0,11110,kill,0.0,0.0,3.27013008019
181,1_28_2,28,2.0,1013.49450343,1_I,test,03,2,2.0,11111,ignore,0.0,0.0,1.36852729319
182,1_28_2,28,2.0,1018.98733395,1_I,test,03,2,3.0,00001,ignore,0.0,0.0,3.20190017415
183,1_28_2,28,2.0,1024.33121596,1_I,test,03,2,4.0,11010,kill,0.0,0.0,3.10803396881
184,1_28_2,28,2.0,1031.98788817,1_I,test,03,2,5.0,01101,ignore,1.0,100.0,5.43747685643
185,1_28_2,28,2.0,1037.45715063,1_I,test,03,2,6.0,10010,kill,0.0,0.0,3.20213335457
186,1_28_2,28,2.0,1042.83488157,1_I,test,03,2,7.0,01001,ignore,0.0,0.0,3.17882803847
187,1_28_2,28,2.0,1052.66350669,1_I,test,03,2,8.0,10110,kill,0.0,0.0,7.64338461387
188,1_28_2,28,2.0,1060.14823871,1_I,test,03,2,9.0,01111,kill,1.0,100.0,5.30745701146
189,1_28_2,28,2.0,1064.27355389,1_I,test,03,2,10.0,10000,ignore,1.0,200.0,1.90023367306
190,1_28_2,28,2.0,1068.50808455,1_I,test,03,2,11.0,00101,kill,0.0,100.0,1.98472791375
191,1_28_2,28,2.0,1072.74569786,1_I,test,03,2,12.0,11100,kill,0.0,0.0,1.92896905515
192,1_28_2,28,2.0,1079.26168098,1_I,test,03,2,13.0,10001,ignore,0.0,0.0,4.33714687329
193,1_28_2,28,2.0,1083.66814484,1_I,test,03,2,14.0,00101,ignore,1.0,100.0,2.13513051946
194,1_28_2,28,2.0,1087.27767273,1_I,test,03,2,15.0,00100,ignore,1.0,200.0,1.38432814069
195,1_28_2,28,2.0,1091.15373897,1_I,test,03,2,16.0,11111,ignore,0.0,100.0,1.63823822336
196,1_28_2,28,2.0,1095.24766471,1_I,test,03,2,17.0,01010,ignore,1.0,200.0,1.81802197315
197,1_28_2,28,2.0,1098.90413986,1_I,test,03,2,18.0,01101,ignore,1.0,300.0,1.3955692435
198,1_28_2,28,2.0,1102.46681243,1_I,test,03,2,19.0,00011,ignore,0.0,200.0,1.32700516692
199,1_28_2,28,2.0,1107.62330688,1_I,test,03,2,20.0,11010,kill,0.0,100.0,2.97725751904
200,1_28_2,28,2.0,1113.80179048,1_I,test,03,2,21.0,11011,ignore,0.0,0.0,3.88876144247
201,1_28_2,28,2.0,1117.36444171,1_I,test,03,2,22.0,10011,ignore,0.0,0.0,1.3246298466
202,1_28_2,28,2.0,1122.16159568,1_I,test,03,2,23.0,10100,ignore,1.0,100.0,2.5654764886
203,1_28_2,28,2.0,1125.58365266,1_I,test,03,2,24.0,11000,ignore,1.0,200.0,1.19392852363
204,1_28_2,28,2.0,1130.42769026,1_I,test,03,2,25.0,01001,ignore,0.0,100.0,2.64376188994
205,1_28_2,28,2.0,1136.45914745,1_I,test,03,2,26.0,11100,ignore,1.0,200.0,3.7966949959
206,1_28_2,28,2.0,1140.45935353,1_I,test,03,2,27.0,10110,kill,0.0,100.0,1.78544896674
207,1_28_2,28,2.0,1144.16261748,1_I,test,03,2,28.0,11101,kill,0.0,0.0,1.50678275877
208,1_28_2,28,2.0,1149.53863364,1_I,test,03,2,29.0,10010,kill,0.0,0.0,3.17462299077
209,1_28_2,28,2.0,1154.24199325,1_I,test,03,2,30.0,00110,kill,0.0,0.0,2.49946425976
210,1_28_2,28,2.0,1158.99219831,1_I,test,03,2,31.0,10101,ignore,1.0,100.0,2.49687135912
211,1_28_2,28,2.0,1164.22682667,1_I,test,03,2,32.0,01110,kill,0.0,0.0,3.03446718683
212,1_28_2,28,2.0,1168.97706498,1_I,test,03,2,33.0,10111,kill,1.0,100.0,2.51103337518
213,1_28_2,28,2.0,1173.07105434,1_I,test,03,2,34.0,00010,ignore,1.0,200.0,1.82208046203
214,1_28_2,28,2.0,1177.6043388,1_I,test,03,2,35.0,01111,kill,1.0,300.0,2.27958332957
215,1_28_2,28,2.0,1181.72956613,1_I,test,03,2,36.0,11001,ignore,0.0,200.0,1.90610752081
216,1_28_2,28,2.0,1185.06100624,1_I,test,03,2,37.0,01100,ignore,1.0,300.0,1.1250713294
217,1_28_2,28,2.0,1190.43626949,1_I,test,03,2,38.0,00000,ignore,1.0,400.0,3.20851543712
218,1_28_2,28,2.0,1193.8919024,1_I,test,03,2,39.0,11110,ignore,1.0,500.0,1.24211928164
219,1_28_2,28,2.0,1197.59522259,1_I,test,03,2,40.0,00111,kill,1.0,600.0,1.50400717276
220,1_28_2,28,2.0,1201.92353488,1_I,test,03,2,41.0,01011,ignore,0.0,500.0,2.11764445076
221,1_28_2,28,2.0,1205.44072455,1_I,test,03,2,42.0,10000,ignore,1.0,600.0,1.280590357
222,1_28_2,28,2.0,1208.56591822,1_I,test,03,2,43.0,00001,kill,1.0,700.0,0.922910469391
223,1_28_2,28,2.0,1212.36292563,1_I,test,03,2,44.0,01000,ignore,1.0,800.0,1.59315270608
224,1_28_2,28,2.0,1216.30057819,1_I,test,03,2,45.0,10001,ignore,0.0,700.0,1.67843064648
225,1_28_2,28,2.0,1220.06648105,1_I,test,03,2,46.0,01011,kill,1.0,800.0,1.54863618188
226,1_28_2,28,2.0,1223.42916365,1_I,test,03,2,47.0,11100,ignore,1.0,900.0,1.18675288869
227,1_28_2,28,2.0,1227.63245921,1_I,test,03,2,48.0,10101,kill,0.0,800.0,1.85929285573
228,1_28_2,28,2.0,1230.92947524,1_I,test,03,2,49.0,00001,kill,1.0,900.0,1.09330419125
229,1_28_2,28,2.0,1234.99215315,1_I,test,03,2,50.0,11001,ignore,0.0,800.0,1.81492863776
230,1_28_2,28,2.0,1240.69554724,1_I,test,03,2,51.0,11000,ignore,1.0,900.0,3.47861719082
231,1_28_2,28,2.0,1244.16450633,1_I,test,03,2,52.0,01001,kill,1.0,1000.0,1.23603277991
232,1_28_2,28,2.0,1247.74587439,1_I,test,03,2,53.0,00110,ignore,1.0,1100.0,1.36323762809
233,1_28_2,28,2.0,1250.80855477,1_I,test,03,2,54.0,01010,ignore,1.0,1200.0,0.857085441741
234,1_28_2,28,2.0,1254.04305997,1_I,test,03,2,55.0,01000,ignore,1.0,1300.0,1.01096440632
235,1_28_2,28,2.0,1257.35578612,1_I,test,03,2,56.0,10010,ignore,1.0,1400.0,1.09770957706
236,1_28_2,28,2.0,1260.85592282,1_I,test,03,2,57.0,00011,kill,1.0,1500.0,1.24640479301
237,1_28_2,28,2.0,1264.34042782,1_I,test,03,2,58.0,11110,ignore,1.0,1600.0,1.2757165577
238,1_28_2,28,2.0,1268.13751323,1_I,test,03,2,59.0,10110,ignore,1.0,1700.0,1.56877673056
239,1_28_2,28,2.0,1271.66894825,1_I,test,03,2,60.0,00111,kill,1.0,1800.0,1.24143246676
240,1_28_2,28,2.0,1275.2160236,1_I,test,03,3,0.0,01111,kill,0.0,1700.0,1.34247020176
241,1_28_2,28,2.0,1279.98499927,1_I,test,03,3,1.0,11111,ignore,0.0,1600.0,2.52543514013
242,1_28_2,28,2.0,1284.00083378,1_I,test,03,3,2.0,01100,ignore,1.0,1700.0,1.65639879107
243,1_28_2,28,2.0,1287.14156269,1_I,test,03,3,3.0,01110,ignore,1.0,1800.0,0.961902505951
244,1_28_2,28,2.0,1291.51679022,1_I,test,03,3,4.0,11101,ignore,0.0,1700.0,2.15098432518
245,1_28_2,28,2.0,1294.64195515,1_I,test,03,3,5.0,00010,ignore,1.0,1800.0,0.914017181456
246,1_28_2,28,2.0,1298.56398134,1_I,test,03,3,6.0,10111,kill,0.0,1700.0,1.68197433209
247,1_28_2,28,2.0,1302.06419933,1_I,test,03,3,7.0,00100,ignore,1.0,1800.0,1.25442488593
248,1_28_2,28,2.0,1306.62690886,1_I,test,03,3,8.0,01101,kill,0.0,1700.0,2.36384480036
249,1_28_2,28,2.0,1310.53646072,1_I,test,03,3,9.0,10011,ignore,1.0,1800.0,1.67765146259
250,1_28_2,28,2.0,1314.02105356,1_I,test,03,3,10.0,11010,ignore,0.0,1700.0,1.24251092623
251,1_28_2,28,2.0,1317.39621583,1_I,test,03,3,11.0,00000,ignore,1.0,1800.0,1.14117432618
252,1_28_2,28,2.0,1320.88072082,1_I,test,03,3,12.0,10000,ignore,0.0,1700.0,1.1835971529
253,1_28_2,28,2.0,1325.20904707,1_I,test,03,3,13.0,00101,kill,0.0,1600.0,2.12436275649
254,1_28_2,28,2.0,1331.02500162,1_I,test,03,3,14.0,10100,kill,1.0,1700.0,3.5734990447
255,1_28_2,28,2.0,1334.84005506,1_I,test,03,3,15.0,11011,ignore,0.0,1600.0,1.59958199946
256,1_28_2,28,2.0,1337.88704913,1_I,test,03,3,16.0,00000,ignore,1.0,1700.0,0.842383990686
257,1_28_2,28,2.0,1341.65448367,1_I,test,03,3,17.0,00100,ignore,1.0,1800.0,1.48019895873
258,1_28_2,28,2.0,1344.47029987,1_I,test,03,3,18.0,10100,kill,1.0,1900.0,0.66270574683
259,1_28_2,28,2.0,1347.79849065,1_I,test,03,3,19.0,10001,kill,0.0,1800.0,1.06445509265
260,1_28_2,28,2.0,1351.18937329,1_I,test,03,3,20.0,10111,kill,0.0,1700.0,1.19842874162
261,1_28_2,28,2.0,1354.38005002,1_I,test,03,3,21.0,00011,ignore,1.0,1800.0,1.01661985269
262,1_28_2,28,2.0,1358.614648,1_I,test,03,3,22.0,10010,kill,1.0,1900.0,2.03976752568
263,1_28_2,28,2.0,1361.91168332,1_I,test,03,3,23.0,10110,ignore,0.0,1800.0,1.10812839046
264,1_28_2,28,2.0,1365.56812481,1_I,test,03,3,24.0,00111,ignore,1.0,1900.0,1.44856072667
265,1_28_2,28,2.0,1369.14642335,1_I,test,03,3,25.0,00010,ignore,1.0,2000.0,1.18358278439
266,1_28_2,28,2.0,1374.20918419,1_I,test,03,3,26.0,10000,kill,1.0,2100.0,2.94197461125
267,1_28_2,28,2.0,1377.25617743,1_I,test,03,3,27.0,01101,ignore,1.0,2200.0,0.893995686163
268,1_28_2,28,2.0,1380.38134236,1_I,test,03,3,28.0,01110,ignore,1.0,2300.0,0.892928310977
269,1_28_2,28,2.0,1384.72529622,1_I,test,03,3,29.0,11011,ignore,0.0,2200.0,2.16640255973
270,1_28_2,28,2.0,1387.70982831,1_I,test,03,3,30.0,01001,ignore,1.0,2300.0,0.7978165609
271,1_28_2,28,2.0,1390.77262486,1_I,test,03,3,31.0,01100,ignore,1.0,2400.0,0.873752915781
272,1_28_2,28,2.0,1394.42887299,1_I,test,03,3,32.0,11000,kill,1.0,2500.0,1.46085319404
273,1_28_2,28,2.0,1397.92907046,1_I,test,03,3,33.0,00001,ignore,1.0,2600.0,1.29580086392
274,1_28_2,28,2.0,1401.38236171,1_I,test,03,3,34.0,01010,ignore,1.0,2700.0,1.28608816026
275,1_28_2,28,2.0,1405.49190109,1_I,test,03,3,35.0,00110,ignore,1.0,2800.0,1.89306050129
276,1_28_2,28,2.0,1409.57023534,1_I,test,03,3,36.0,10011,ignore,1.0,2900.0,1.899160961
277,1_28_2,28,2.0,1412.86727477,1_I,test,03,3,37.0,10101,ignore,1.0,3000.0,1.07723034203
278,1_28_2,28,2.0,1416.03931266,1_I,test,03,3,38.0,00101,ignore,1.0,3100.0,0.96523189547
279,1_28_2,28,2.0,1420.57077231,1_I,test,03,3,39.0,11010,kill,1.0,3200.0,2.32611349811
280,1_28_2,28,2.0,1423.71156402,1_I,test,03,4,0.0,11101,kill,0.0,3100.0,0.908795253628
281,1_28_2,28,2.0,1427.11795563,1_I,test,03,4,1.0,01111,ignore,0.0,3000.0,1.18743395616
282,1_28_2,28,2.0,1432.74326876,1_I,test,03,4,2.0,11001,ignore,1.0,3100.0,3.40615473163
283,1_28_2,28,2.0,1438.00909075,1_I,test,03,4,3.0,11111,kill,0.0,3000.0,3.04825233735
284,1_28_2,28,2.0,1442.02495852,1_I,test,03,4,4.0,11100,ignore,1.0,3100.0,1.82109724527
285,1_28_2,28,2.0,1445.36886187,1_I,test,03,4,5.0,01000,kill,0.0,3000.0,1.17240038721
286,1_28_2,28,2.0,1448.88461592,1_I,test,03,4,6.0,01011,kill,1.0,3100.0,1.31049082016
287,1_28_2,28,2.0,1453.22860262,1_I,test,03,4,7.0,11110,kill,0.0,3000.0,2.17569734495
288,1_28_2,28,2.0,1457.99449152,1_I,test,03,4,8.0,11101,ignore,1.0,3100.0,2.56034692978
289,1_28_2,28,2.0,1462.30717662,1_I,test,03,4,9.0,01011,kill,1.0,3200.0,2.11077630197
290,1_28_2,28,2.0,1465.66669732,1_I,test,03,4,10.0,10011,kill,1.0,3300.0,1.20725798705
291,1_28_2,28,2.0,1468.87000191,1_I,test,03,4,11.0,01111,kill,1.0,3400.0,0.987764185622
292,1_28_2,28,2.0,1472.04203077,1_I,test,03,4,12.0,00010,kill,1.0,3500.0,0.970657856169
293,1_28_2,28,2.0,1475.432819,1_I,test,03,4,13.0,01101,ignore,1.0,3600.0,1.12458895792
294,1_28_2,28,2.0,1478.40173416,1_I,test,03,4,14.0,00110,kill,1.0,3700.0,0.750541692905
295,1_28_2,28,2.0,1482.69877564,1_I,test,03,4,15.0,11011,kill,1.0,3800.0,2.12404705975
296,1_28_2,28,2.0,1486.40210322,1_I,test,03,4,16.0,10010,kill,1.0,3900.0,1.37076549685
297,1_28_2,28,2.0,1489.68347687,1_I,test,03,4,17.0,11001,ignore,1.0,4000.0,1.07555168929
298,1_28_2,28,2.0,1493.08991486,1_I,test,03,5,0.0,10111,kill,1.0,4100.0,1.03122154521
299,1_28_2,28,2.0,1496.27757954,1_I,test,03,5,1.0,00001,ignore,0.0,4000.0,0.951246817374
300,1_28_2,28,2.0,1499.60583312,1_I,test,03,5,2.0,01001,ignore,0.0,3900.0,1.10579781779
301,1_28_2,28,2.0,1503.13731289,1_I,test,03,5,3.0,00000,ignore,1.0,4000.0,1.33100289751
302,1_28_2,28,2.0,1506.27811774,1_I,test,03,5,4.0,00101,kill,0.0,3900.0,0.894599984729
303,1_28_2,28,2.0,1511.32518981,1_I,test,03,5,5.0,01010,ignore,1.0,4000.0,2.81913738022
304,1_28_2,28,2.0,1514.37222287,1_I,test,03,5,6.0,01000,ignore,1.0,4100.0,0.91326509248
305,1_28_2,28,2.0,1517.96615189,1_I,test,03,5,7.0,00011,kill,1.0,4200.0,1.38853277786
306,1_28_2,28,2.0,1521.43504488,1_I,test,03,5,8.0,00100,ignore,1.0,4300.0,1.23100995861
307,1_28_2,28,2.0,1524.59143095,1_I,test,03,5,9.0,11110,ignore,1.0,4400.0,1.02652139964
308,1_28_2,28,2.0,1528.60727162,1_I,test,03,5,10.0,00111,ignore,0.0,4300.0,1.85269031915
309,1_28_2,28,2.0,1531.62305851,1_I,test,03,5,11.0,01110,ignore,1.0,4400.0,0.815632694852
310,1_28_2,28,2.0,1534.79508408,1_I,test,03,5,12.0,10001,kill,1.0,4500.0,0.987471478504
311,1_28_2,28,2.0,1537.82646614,1_I,test,03,5,13.0,11010,ignore,1.0,4600.0,0.84009652356
312,1_28_2,28,2.0,1540.88912846,1_I,test,03,5,14.0,11000,ignore,1.0,4700.0,0.909032949872
313,1_28_2,28,2.0,1543.93615742,1_I,test,03,5,15.0,10100,ignore,1.0,4800.0,0.863329586573
314,1_28_2,28,2.0,1547.13943656,1_I,test,03,5,16.0,10000,ignore,1.0,4900.0,1.01256752174
315,1_28_2,28,2.0,1551.29586285,1_I,test,03,5,17.0,11111,kill,1.0,5000.0,1.98040052843
316,1_28_2,28,2.0,1554.8585539,1_I,test,03,5,18.0,10101,kill,0.0,4900.0,1.34289140443
317,1_28_2,28,2.0,1557.78054766,1_I,test,03,5,19.0,01100,ignore,1.0,5000.0,0.750092163742
318,1_28_2,28,2.0,1560.90572901,1_I,test,03,5,20.0,11100,ignore,1.0,5100.0,0.709124662031
319,1_28_2,28,2.0,1563.95276167,1_I,test,03,5,21.0,10110,ignore,1.0,5200.0,0.865425336695
320,1_28_2,28,2.0,1567.53100396,1_I,test,03,5,22.0,01011,kill,1.0,5300.0,1.41805144913
321,1_28_2,28,2.0,1570.49990968,1_I,test,03,5,23.0,00011,kill,1.0,5400.0,0.79090120129
322,1_28_2,28,2.0,1573.46882074,1_I,test,03,5,24.0,11000,ignore,1.0,5500.0,0.820040543837
323,1_28_2,28,2.0,1577.07835437,1_I,test,03,5,25.0,01101,ignore,1.0,5600.0,1.37137143753
324,1_28_2,28,2.0,1579.90663505,1_I,test,03,5,26.0,11110,ignore,1.0,5700.0,0.64342566676
325,1_28_2,28,2.0,1583.59430999,1_I,test,03,5,27.0,11001,ignore,0.0,5600.0,1.4896164921
326,1_28_2,28,2.0,1588.07889298,1_I,test,03,5,28.0,10100,ignore,1.0,5700.0,2.29684278631
327,1_28_2,28,2.0,1591.56342015,1_I,test,03,5,29.0,00010,ignore,1.0,5800.0,1.35549710536
328,1_28_2,28,2.0,1594.5323661,1_I,test,03,5,30.0,01100,ignore,1.0,5900.0,0.793155826103
329,1_28_2,28,2.0,1597.50125663,1_I,test,03,5,31.0,10000,ignore,1.0,6000.0,0.725274459108
330,1_28_2,28,2.0,1600.65769853,1_I,test,03,5,32.0,10010,ignore,1.0,6100.0,0.949567343574
331,1_28_2,28,2.0,1604.01713958,1_I,test,03,5,33.0,01111,kill,1.0,6200.0,1.20295441241
332,1_28_2,28,2.0,1607.0798175,1_I,test,03,5,34.0,10110,ignore,1.0,6300.0,0.867714445938
333,1_28_2,28,2.0,1610.12687807,1_I,test,03,5,35.0,01110,ignore,1.0,6400.0,0.869657889833
334,1_28_2,28,2.0,1614.70522423,1_I,test,03,5,36.0,11111,kill,1.0,6500.0,2.37969491133
335,1_28_2,28,2.0,1617.70532645,1_I,test,03,5,37.0,00110,ignore,1.0,6600.0,0.817485001326
336,1_28_2,28,2.0,1622.59616681,1_I,test,03,6,0.0,00001,kill,0.0,6500.0,2.58368508819
337,1_28_2,28,2.0,1626.03391133,1_I,test,03,6,1.0,00101,ignore,1.0,6600.0,1.16254317738
338,1_28_2,28,2.0,1628.8777293,1_I,test,03,6,2.0,00100,ignore,1.0,6700.0,0.657536777233
339,1_28_2,28,2.0,1632.76856432,1_I,test,03,6,3.0,10011,kill,0.0,6600.0,1.67628193812
340,1_28_2,28,2.0,1637.55003239,1_I,test,03,6,4.0,01001,ignore,1.0,6700.0,2.629842907
341,1_28_2,28,2.0,1641.05017772,1_I,test,03,6,5.0,11011,kill,1.0,6800.0,1.27706186096
342,1_28_2,28,2.0,1644.09802815,1_I,test,03,6,6.0,11100,ignore,0.0,6700.0,0.848660567301
343,1_28_2,28,2.0,1652.39525108,1_I,test,03,6,7.0,10101,kill,0.0,6600.0,6.11202759411
344,1_28_2,28,2.0,1656.37984475,1_I,test,03,6,8.0,11010,ignore,0.0,6500.0,1.77661561603
345,1_28_2,28,2.0,1661.13008635,1_I,test,03,6,9.0,00111,ignore,1.0,6600.0,2.57542688849
346,1_28_2,28,2.0,1665.7240753,1_I,test,03,6,10.0,11101,kill,1.0,6700.0,2.43881928599
347,1_28_2,28,2.0,1669.13919147,1_I,test,03,6,11.0,00000,ignore,1.0,6800.0,1.21382357602
348,1_28_2,28,2.0,1672.51439068,1_I,test,03,6,12.0,10001,kill,0.0,6700.0,1.21949174878
349,1_28_2,28,2.0,1675.7176805,1_I,test,03,6,13.0,01000,ignore,1.0,6800.0,1.02672132722
350,1_28_2,28,2.0,1678.85845784,1_I,test,03,6,14.0,10111,kill,0.0,6700.0,0.945747371999
351,1_28_2,28,2.0,1682.09300204,1_I,test,03,6,15.0,01010,ignore,1.0,6800.0,1.05671498045
352,1_28_2,28,2.0,1687.15570623,1_I,test,03,6,16.0,00101,ignore,1.0,6900.0,2.86289278381
353,1_28_2,28,2.0,1690.37460846,1_I,test,03,6,17.0,00000,ignore,1.0,7000.0,1.064261323
354,1_28_2,28,2.0,1694.98429645,1_I,test,03,6,18.0,10111,kill,0.0,6900.0,2.42505589351
355,1_28_2,28,2.0,1698.39068313,1_I,test,03,6,19.0,00110,ignore,1.0,7000.0,1.19875757528
356,1_28_2,28,2.0,1701.59391177,1_I,test,03,6,20.0,10000,kill,1.0,7100.0,1.05269631288
357,1_28_2,28,2.0,1704.81283905,1_I,test,03,6,21.0,10101,kill,0.0,7000.0,0.991018858876
358,1_28_2,28,2.0,1710.50061867,1_I,test,03,6,22.0,11110,kill,1.0,7100.0,3.5720297617
359,1_28_2,28,2.0,1714.18828129,1_I,test,03,6,23.0,11101,ignore,0.0,7000.0,1.4649625885
360,1_28_2,28,2.0,1718.00100785,1_I,test,03,6,24.0,11011,kill,1.0,7100.0,1.58289317791
361,1_28_2,28,2.0,1721.45428884,1_I,test,03,6,25.0,10010,ignore,0.0,7000.0,1.29730996822
362,1_28_2,28,2.0,1724.78253791,1_I,test,03,6,26.0,00100,ignore,1.0,7100.0,1.09091901824
363,1_28_2,28,2.0,1730.37660897,1_I,test,03,6,27.0,10100,kill,1.0,7200.0,3.44590173087
364,1_28_2,28,2.0,1733.72048318,1_I,test,03,6,28.0,01000,ignore,1.0,7300.0,1.13978427526
365,1_28_2,28,2.0,1737.0175107,1_I,test,03,6,29.0,11001,ignore,0.0,7200.0,1.1391175763
366,1_28_2,28,2.0,1744.002207,1_I,test,03,6,30.0,01001,ignore,1.0,7300.0,4.82389910513
367,1_28_2,28,2.0,1748.99036653,1_I,test,03,6,31.0,11010,ignore,0.0,7200.0,2.77378707179
368,1_28_2,28,2.0,1751.85398431,1_I,test,03,6,32.0,11100,ignore,0.0,7100.0,0.744678108382
369,1_28_2,28,2.0,1754.9795142,1_I,test,03,6,33.0,11111,kill,1.0,7200.0,0.953083934279
370,1_28_2,28,2.0,1758.15118261,1_I,test,03,6,34.0,01100,ignore,1.0,7300.0,0.979756408562
371,1_28_2,28,2.0,1761.43565206,1_I,test,03,6,35.0,01011,ignore,1.0,7400.0,1.11293198932
372,1_28_2,28,2.0,1764.84528766,1_I,test,03,6,36.0,00111,ignore,1.0,7500.0,1.22622278091
373,1_28_2,28,2.0,1767.86097931,1_I,test,03,6,37.0,01010,ignore,1.0,7600.0,0.818702219565
374,1_28_2,28,2.0,1770.78346283,1_I,test,03,6,38.0,00010,ignore,1.0,7700.0,0.688800606926
375,1_28_2,28,2.0,1773.72466523,1_I,test,03,6,39.0,01110,ignore,1.0,7800.0,0.75348231154
376,1_28_2,28,2.0,1778.22490088,1_I,test,03,6,40.0,10110,kill,1.0,7900.0,2.34358684041
377,1_28_2,28,2.0,1781.26690455,1_I,test,03,6,41.0,00011,ignore,1.0,8000.0,0.790687315723
378,1_28_2,28,2.0,1784.11010345,1_I,test,03,6,42.0,00001,ignore,1.0,8100.0,0.656569160576
379,1_28_2,28,2.0,1787.26965961,1_I,test,03,7,0.0,01101,ignore,1.0,8200.0,0.994706640142
380,1_28_2,28,2.0,1792.12926899,1_I,test,03,7,1.0,11000,kill,0.0,8100.0,2.68672538325
381,1_28_2,28,2.0,1797.27013049,1_I,test,03,7,2.0,10001,kill,0.0,8000.0,2.9842829004
382,1_28_2,28,2.0,1800.69228025,1_I,test,03,7,3.0,10011,kill,1.0,8100.0,1.19871734345
383,1_28_2,28,2.0,1804.30813028,1_I,test,03,7,4.0,01111,ignore,0.0,8000.0,1.37549725315
384,1_28_2,28,2.0,1807.5269192,1_I,test,03,7,5.0,10011,ignore,0.0,7900.0,1.05650602123
385,1_28_2,28,2.0,1812.46467809,1_I,test,03,7,6.0,11110,kill,0.0,7800.0,2.7081574559
386,1_28_2,28,2.0,1817.41805761,1_I,test,03,7,7.0,11000,ignore,1.0,7900.0,2.83642228975
387,1_28_2,28,2.0,1820.93385107,1_I,test,03,7,8.0,00001,ignore,1.0,8000.0,1.33350794497
388,1_28_2,28,2.0,1824.43398202,1_I,test,03,7,9.0,11001,ignore,1.0,8100.0,1.31569140049
389,1_28_2,28,2.0,1828.24668518,1_I,test,03,7,10.0,10110,kill,0.0,8000.0,1.61378958422
390,1_28_2,28,2.0,1832.15313262,1_I,test,03,7,11.0,01101,ignore,1.0,8100.0,1.63958557927
391,1_28_2,28,2.0,1838.63781004,1_I,test,03,7,12.0,00100,ignore,1.0,8200.0,4.06520184475
392,1_28_2,28,2.0,1844.96935114,1_I,test,03,7,13.0,11111,ignore,1.0,8300.0,4.10177340282
393,1_28_2,28,2.0,1849.98523492,1_I,test,03,7,14.0,10010,ignore,0.0,8200.0,2.7930663308
394,1_28_2,28,2.0,1854.17285156,1_I,test,03,7,15.0,00011,ignore,0.0,8100.0,2.02629642979
395,1_28_2,28,2.0,1857.05435895,1_I,test,03,7,16.0,01000,ignore,1.0,8200.0,0.734235484313
396,1_28_2,28,2.0,1860.24480291,1_I,test,03,7,17.0,01111,kill,1.0,8300.0,0.945310158702
397,1_28_2,28,2.0,1864.24787408,1_I,test,03,7,18.0,00000,ignore,1.0,8400.0,1.79764413875
398,1_28_2,28,2.0,1867.54491761,1_I,test,03,7,19.0,00110,kill,1.0,8500.0,1.1137423734
399,1_28_2,28,2.0,1870.5294456,1_I,test,03,7,20.0,00010,kill,1.0,8600.0,0.853978969424
400,1_28_2,28,2.0,1873.5139313,1_I,test,03,7,21.0,01001,ignore,1.0,8700.0,0.755401534228
401,1_28_2,28,2.0,1878.05572232,1_I,test,03,7,22.0,11011,ignore,0.0,8600.0,2.31225609451
402,1_28_2,28,2.0,1880.9658325,1_I,test,03,7,23.0,11101,ignore,1.0,8700.0,0.823905673591
403,1_28_2,28,2.0,1885.62857643,1_I,test,03,7,24.0,11010,ignore,0.0,8600.0,2.47356234826
404,1_28_2,28,2.0,1888.36920302,1_I,test,03,7,25.0,10100,ignore,1.0,8700.0,0.606966593619
405,1_28_2,28,2.0,1891.50332487,1_I,test,03,7,26.0,01010,kill,1.0,8800.0,0.930639907845
406,1_28_2,28,2.0,1894.54855818,1_I,test,03,7,27.0,10111,kill,0.0,8700.0,0.852262137494
407,1_28_2,28,2.0,1897.84191722,1_I,test,03,7,28.0,11100,ignore,1.0,8800.0,1.14935780961
408,1_28_2,28,2.0,1901.65795387,1_I,test,03,7,29.0,01011,kill,1.0,8900.0,1.65806266478
409,1_28_2,28,2.0,1904.51921111,1_I,test,03,7,30.0,10101,ignore,1.0,9000.0,0.721174096283
410,1_28_2,28,2.0,1907.61492141,1_I,test,03,7,31.0,00101,ignore,1.0,9100.0,0.913411240774
411,1_28_2,28,2.0,1910.53696608,1_I,test,03,7,32.0,10001,ignore,1.0,9200.0,0.700258058476
412,1_28_2,28,2.0,1913.40345263,1_I,test,03,7,33.0,01100,ignore,1.0,9300.0,0.714570738648
413,1_28_2,28,2.0,1917.6751341,1_I,test,03,7,34.0,01110,kill,1.0,9400.0,2.13446340997
414,1_28_2,28,2.0,1920.53466999,1_I,test,03,7,35.0,10000,ignore,1.0,9500.0,0.671537455426
415,1_28_2,28,2.0,1924.70977207,1_I,test,03,7,36.0,00111,kill,1.0,9600.0,1.97813030352
416,1_28_2,28,2.0,1928.14745254,1_I,test,03,7,37.0,01010,kill,1.0,9700.0,1.2145600649
417,1_28_2,28,2.0,1932.5573706,1_I,test,03,8,0.0,01100,ignore,0.0,9600.0,2.2816010792
418,1_28_2,28,2.0,1935.6043819,1_I,test,03,8,1.0,00101,ignore,0.0,9500.0,0.7720382186
419,1_28_2,28,2.0,1939.04206115,1_I,test,03,8,2.0,11010,ignore,1.0,9600.0,1.22871920725
420,1_28_2,28,2.0,1942.04245485,1_I,test,03,8,3.0,11100,kill,0.0,9500.0,0.80217391483
421,1_28_2,28,2.0,1945.70212268,1_I,test,03,8,4.0,10001,kill,0.0,9400.0,1.40413657148
422,1_28_2,28,2.0,1949.61299808,1_I,test,03,8,5.0,00111,ignore,0.0,9300.0,1.74025999617
423,1_28_2,28,2.0,1952.51933796,1_I,test,03,8,6.0,01110,kill,1.0,9400.0,0.693460931194
424,1_28_2,28,2.0,1955.50392548,1_I,test,03,8,7.0,00100,kill,1.0,9500.0,0.75917757921
425,1_28_2,28,2.0,1958.55084729,1_I,test,03,8,8.0,01000,ignore,0.0,9400.0,0.72527404858
426,1_28_2,28,2.0,1961.80101828,1_I,test,03,8,9.0,10100,kill,0.0,9300.0,1.01145663049
427,1_28_2,28,2.0,1965.73875582,1_I,test,03,8,10.0,10010,ignore,1.0,9400.0,1.83887068421
428,1_28_2,28,2.0,1970.12957647,1_I,test,03,8,11.0,11111,kill,0.0,9300.0,2.22009604735
429,1_28_2,28,2.0,1973.41097229,1_I,test,03,8,12.0,10000,ignore,1.0,9400.0,1.04686269696
430,1_28_2,28,2.0,1976.72367258,1_I,test,03,8,13.0,00001,ignore,1.0,9500.0,1.18114465315
431,1_28_2,28,2.0,1979.91127813,1_I,test,03,8,14.0,00011,ignore,1.0,9600.0,1.0116540949
432,1_28_2,28,2.0,1983.42707159,1_I,test,03,8,15.0,01001,ignore,1.0,9700.0,1.26174954288
433,1_28_2,28,2.0,1986.63039466,1_I,test,03,8,16.0,01011,ignore,1.0,9800.0,0.976104753843
434,1_28_2,28,2.0,1989.73991228,1_I,test,03,8,17.0,11011,ignore,1.0,9900.0,0.903281439741
435,1_28_2,28,2.0,1992.88063379,1_I,test,03,8,18.0,10111,ignore,1.0,10000.0,0.981924001246
436,1_28_2,28,2.0,1996.05273285,1_I,test,03,8,19.0,11001,ignore,1.0,10100.0,0.999307437716
437,1_28_2,28,2.0,1999.59973472,1_I,test,03,8,20.0,01111,kill,1.0,10200.0,1.32874909376
438,1_28_2,28,2.0,2002.66241058,1_I,test,03,8,21.0,11000,ignore,1.0,10300.0,0.919901292427
439,1_28_2,28,2.0,2006.30315918,1_I,test,03,9,0.0,11110,ignore,1.0,10400.0,1.31497051171
440,1_28_2,28,2.0,2009.95961955,1_I,test,03,9,1.0,11101,ignore,0.0,10300.0,1.51306918808
441,1_28_2,28,2.0,2013.22537052,1_I,test,03,9,2.0,10011,ignore,1.0,10400.0,1.0270362029
442,1_28_2,28,2.0,2016.99119292,1_I,test,03,9,3.0,00000,ignore,0.0,10300.0,1.51669703212
443,1_28_2,28,2.0,2020.66324354,1_I,test,03,9,4.0,00110,kill,0.0,10200.0,1.50012480079
444,1_28_2,28,2.0,2023.96028379,1_I,test,03,9,5.0,00010,ignore,1.0,10300.0,1.07134417841
445,1_28_2,28,2.0,2027.21042809,1_I,test,03,9,6.0,10110,ignore,1.0,10400.0,1.07815567421
446,1_28_2,28,2.0,2030.30432303,1_I,test,03,9,7.0,10101,ignore,1.0,10500.0,0.884317877468
447,1_28_2,28,2.0,2033.38265934,1_I,test,03,9,8.0,01101,kill,1.0,10600.0,0.873705294427
448,1_28_2,28,2.0,2036.57027721,1_I,test,03,9,9.0,10000,ignore,0.0,10500.0,0.998033155956
449,1_28_2,28,2.0,2039.58606492,1_I,test,03,9,10.0,01011,ignore,1.0,10600.0,0.779632182512
450,1_28_2,28,2.0,2043.1018473,1_I,test,03,9,11.0,11001,kill,1.0,10700.0,1.37326397584
451,1_28_2,28,2.0,2046.16449606,1_I,test,03,9,12.0,11000,kill,1.0,10800.0,0.874342435307
452,1_28_2,28,2.0,2049.80534812,1_I,test,03,9,13.0,10100,ignore,1.0,10900.0,1.43838412534
453,1_28_2,28,2.0,2053.96172844,1_I,test,03,9,14.0,11100,kill,1.0,11000.0,2.01657305239
454,1_28_2,28,2.0,2057.27443078,1_I,test,03,9,15.0,11101,kill,1.0,11100.0,1.16491726611
455,1_28_2,28,2.0,2060.5871598,1_I,test,03,9,16.0,10101,ignore,1.0,11200.0,1.08441336649
456,1_28_2,28,2.0,2063.89975212,1_I,test,03,9,17.0,10110,ignore,1.0,11300.0,1.09233985883
457,1_28_2,28,2.0,2067.13423392,1_I,test,03,9,18.0,01110,ignore,1.0,11400.0,1.00062154078
458,1_28_2,28,2.0,2070.02506033,1_I,test,03,9,19.0,10010,ignore,1.0,11500.0,0.730867505077
459,1_28_2,28,2.0,2073.24392602,1_I,test,03,10,0.0,10011,ignore,0.0,11400.0,1.00677536925
460,1_28_2,28,2.0,2077.30659285,1_I,test,03,10,1.0,00101,ignore,0.0,11300.0,1.83088507571
461,1_28_2,28,2.0,2080.90055101,1_I,test,03,10,2.0,00100,kill,0.0,11200.0,1.44995898816
462,1_28_2,28,2.0,2083.76005077,1_I,test,03,10,3.0,00011,kill,1.0,11300.0,0.60361831977
463,1_28_2,28,2.0,2086.47895588,1_I,test,03,10,4.0,00010,ignore,0.0,11200.0,0.605117160847
464,1_28_2,28,2.0,2090.51040075,1_I,test,03,10,5.0,10111,ignore,0.0,11100.0,1.78364797638
465,1_28_2,28,2.0,2095.58875389,1_I,test,03,10,6.0,01101,ignore,1.0,11200.0,2.90902432876
466,1_28_2,28,2.0,2098.80770867,1_I,test,03,10,7.0,00110,kill,0.0,11100.0,1.08874732027
467,1_28_2,28,2.0,2102.58912419,1_I,test,03,10,8.0,01010,ignore,1.0,11200.0,1.64518888846
468,1_28_2,28,2.0,2105.82367988,1_I,test,03,10,9.0,11110,kill,0.0,11100.0,1.12221692184
469,1_28_2,28,2.0,2109.1676013,1_I,test,03,10,10.0,11011,kill,0.0,11000.0,1.18200922705
470,1_28_2,28,2.0,2112.4645771,1_I,test,03,10,11.0,10001,ignore,0.0,10900.0,1.12016222461
471,1_28_2,28,2.0,2115.77722566,1_I,test,03,10,12.0,01100,ignore,1.0,11000.0,1.17689978414
472,1_28_2,28,2.0,2118.9649162,1_I,test,03,10,13.0,01111,ignore,1.0,11100.0,1.04432193349
473,1_28_2,28,2.0,2122.18378805,1_I,test,03,10,14.0,01000,ignore,1.0,11200.0,1.07092543892
474,1_28_2,28,2.0,2125.46521753,1_I,test,03,10,15.0,00111,ignore,0.0,11100.0,1.10636475823
475,1_28_2,28,2.0,2129.41856625,1_I,test,03,10,16.0,00001,ignore,0.0,11000.0,1.72089083133
476,1_28_2,28,2.0,2133.38747484,1_I,test,03,10,17.0,11010,ignore,1.0,11100.0,1.82481088986
477,1_28_2,28,2.0,2136.98141002,1_I,test,03,10,18.0,00000,ignore,0.0,11000.0,1.43823181911
478,1_28_2,28,2.0,2139.84090362,1_I,test,03,10,19.0,01001,ignore,1.0,11100.0,0.673242382019
479,1_28_2,28,2.0,2142.84106742,1_I,test,03,10,20.0,11111,ignore,1.0,11200.0,0.840555494889
480,1_28_2,28,2.0,2145.84124149,1_I,test,03,10,21.0,11001,ignore,1.0,11300.0,0.809668530741
481,1_28_2,28,2.0,2148.84134905,1_I,test,03,10,22.0,00000,kill,1.0,11400.0,0.848348154796
482,1_28_2,28,2.0,2151.8883817,1_I,test,03,10,23.0,10111,kill,1.0,11500.0,0.814564088079
483,1_28_2,28,2.0,2154.93541313,1_I,test,03,10,24.0,11100,ignore,1.0,11600.0,0.824191812246
484,1_28_2,28,2.0,2157.79487676,1_I,test,03,10,25.0,00101,kill,1.0,11700.0,0.654951266113
485,1_28_2,28,2.0,2160.82632082,1_I,test,03,10,26.0,01011,ignore,1.0,11800.0,0.823158510962
486,1_28_2,28,2.0,2163.76398159,1_I,test,03,10,27.0,01001,ignore,1.0,11900.0,0.804475339939
487,1_28_2,28,2.0,2166.93595872,1_I,test,03,10,28.0,11011,ignore,1.0,12000.0,0.991067301289
488,1_28_2,28,2.0,2169.936141,1_I,test,03,11,0.0,10010,kill,1.0,12100.0,0.78180141731
489,1_28_2,28,2.0,2172.88938216,1_I,test,03,11,1.0,10001,kill,0.0,12000.0,0.761335729727
490,1_28_2,28,2.0,2176.592704,1_I,test,03,11,2.0,11000,ignore,1.0,12100.0,1.48980615646
491,1_28_2,28,2.0,2179.51469365,1_I,test,03,11,3.0,00001,kill,0.0,12000.0,0.740941474176
492,1_28_2,28,2.0,2183.29616706,1_I,test,03,11,4.0,00110,kill,1.0,12100.0,1.61673882396
493,1_28_2,28,2.0,2186.28063141,1_I,test,03,11,5.0,01101,ignore,1.0,12200.0,0.783295742569
494,1_28_2,28,2.0,2189.18702302,1_I,test,03,11,6.0,11010,ignore,0.0,12100.0,0.79875338789
495,1_28_2,28,2.0,2193.60911038,1_I,test,03,11,7.0,01100,ignore,1.0,12200.0,2.26929054856
496,1_28_2,28,2.0,2196.95310405,1_I,test,03,11,8.0,11110,ignore,0.0,12100.0,1.15694561559
497,1_28_2,28,2.0,2200.09383131,1_I,test,03,11,9.0,01000,ignore,1.0,12200.0,0.914446594703
498,1_28_2,28,2.0,2203.68773405,1_I,test,03,11,10.0,11111,kill,1.0,12300.0,1.40985975511
499,1_28_2,28,2.0,2206.73480119,1_I,test,03,11,11.0,11101,ignore,1.0,12400.0,0.911392259561
500,1_28_2,28,2.0,2209.89120081,1_I,test,03,11,12.0,10101,ignore,1.0,12500.0,0.92238376079
501,1_28_2,28,2.0,2213.18818687,1_I,test,03,11,13.0,00111,ignore,1.0,12600.0,1.04487943176
502,1_28_2,28,2.0,2216.26646898,1_I,test,03,11,14.0,10100,ignore,1.0,12700.0,0.883562914789
503,1_28_2,28,2.0,2219.48541227,1_I,test,03,11,15.0,00010,ignore,0.0,12600.0,1.02204499233
504,1_28_2,28,2.0,2223.28248454,1_I,test,03,11,16.0,01110,kill,1.0,12700.0,1.65452267392
505,1_28_2,28,2.0,2226.59510723,1_I,test,03,11,17.0,00100,ignore,1.0,12800.0,1.03380500369
506,1_28_2,28,2.0,2230.15776667,1_I,test,03,11,18.0,10011,kill,1.0,12900.0,1.36801248993
507,1_28_2,28,2.0,2233.45481308,1_I,test,03,11,19.0,01010,ignore,0.0,12800.0,1.10289004147
