,unique_id,pair_id,sbj_id,wall_time,condition,block,rule_id,rule_num,trial,stimulus,choice,correct,points,reaction_time
0,2_38_1,38,1.0,60.4277407526,2_ND,training,03,1_B,1.0,00111,kill,0.0,0.0,5.52479430449
1,2_38_1,38,1.0,65.1779610014,2_ND,training,03,1_B,2.0,10111,kill,0.0,0.0,2.4838584135
2,2_38_1,38,1.0,70.7406926937,2_ND,training,03,1_B,3.0,01000,ignore,1.0,100.0,3.3724371706
3,2_38_1,38,1.0,76.5379045455,2_ND,training,03,1_B,4.0,01010,kill,0.0,0.0,3.59867308843
4,2_38_1,38,1.0,80.3505412003,2_ND,training,03,1_B,5.0,11011,kill,0.0,0.0,1.63639535905
5,2_38_1,38,1.0,87.6477707048,2_ND,training,03,1_B,6.0,10100,kill,1.0,100.0,4.98868787569
6,2_38_1,38,1.0,92.6480552014,2_ND,training,03,1_B,7.0,00001,ignore,0.0,0.0,2.74263080067
7,2_38_1,38,1.0,99.8358828548,2_ND,training,03,1_B,8.0,01101,ignore,0.0,0.0,4.98710733935
8,2_38_1,38,1.0,104.211092738,2_ND,training,03,1_B,9.0,10110,kill,0.0,0.0,2.19565520826
9,2_38_1,38,1.0,108.726910827,2_ND,training,03,1_B,10.0,01110,ignore,1.0,100.0,2.27984976284
10,2_38_1,38,1.0,112.305232355,2_ND,training,03,1_B,11.0,00110,ignore,1.0,200.0,1.39293077415
11,2_38_1,38,1.0,115.727288514,2_ND,training,03,1_B,12.0,10001,ignore,0.0,100.0,1.22185926905
12,2_38_1,38,1.0,122.79012407,2_ND,training,03,1_B,13.0,01011,ignore,1.0,200.0,4.89243485522
13,2_38_1,38,1.0,129.696660183,2_ND,training,03,1_B,14.0,01100,ignore,0.0,100.0,4.71256899965
14,2_38_1,38,1.0,134.150042982,2_ND,training,03,1_B,15.0,10000,ignore,0.0,0.0,2.28432493857
15,2_38_1,38,1.0,141.228518048,2_ND,training,03,1_B,16.0,00100,ignore,0.0,0.0,4.90137248028
16,2_38_1,38,1.0,147.478774423,2_ND,training,03,1_B,17.0,10011,kill,0.0,0.0,4.07258069151
17,2_38_1,38,1.0,151.557098414,2_ND,training,03,1_B,18.0,01111,ignore,1.0,100.0,1.91573401339
18,2_38_1,38,1.0,156.823093237,2_ND,training,03,1_B,19.0,00000,ignore,0.0,0.0,3.08672546535
19,2_38_1,38,1.0,161.870168177,2_ND,training,03,1_B,20.0,11001,ignore,1.0,100.0,2.88883492714
20,2_38_1,38,1.0,165.260896464,2_ND,training,03,1_B,21.0,11000,ignore,1.0,200.0,1.2145785387
21,2_38_1,38,1.0,169.229830099,2_ND,training,03,1_B,22.0,11010,ignore,1.0,300.0,1.70606950583
22,2_38_1,38,1.0,172.980115621,2_ND,training,03,1_B,23.0,00011,ignore,1.0,400.0,1.48171298938
23,2_38_1,38,1.0,177.933408515,2_ND,training,03,1_B,24.0,11110,kill,0.0,300.0,2.62129200019
24,2_38_1,38,1.0,181.421256038,2_ND,training,03,1_B,25.0,11111,ignore,1.0,400.0,1.23103623246
25,2_38_1,38,1.0,185.2964729,2_ND,training,03,1_B,26.0,11101,ignore,0.0,300.0,1.61892899574
26,2_38_1,38,1.0,192.624900549,2_ND,training,03,1_B,27.0,11100,ignore,0.0,200.0,5.14526688896
27,2_38_1,38,1.0,196.375132703,2_ND,training,03,1_B,28.0,00010,ignore,1.0,300.0,1.5783884441
28,2_38_1,38,1.0,203.234806941,2_ND,training,03,1_B,29.0,10101,ignore,0.0,200.0,4.63061305925
29,2_38_1,38,1.0,206.8130829,2_ND,training,03,1_B,30.0,01001,ignore,1.0,300.0,1.38756023486
30,2_38_1,38,1.0,211.90716258,2_ND,training,03,1_B,31.0,10010,kill,0.0,200.0,2.87421558187
31,2_38_1,38,1.0,216.438588158,2_ND,training,03,1_B,32.0,00101,ignore,0.0,100.0,2.31741069559
32,2_38_1,38,1.0,222.220089889,2_ND,training,03,1_B,33.0,10101,kill,1.0,200.0,3.53929459637
33,2_38_1,38,1.0,226.532881314,2_ND,training,03,1_B,34.0,01100,ignore,0.0,100.0,2.01759280622
34,2_38_1,38,1.0,230.20484613,2_ND,training,03,1_B,35.0,01011,ignore,1.0,200.0,1.48197490683
35,2_38_1,38,1.0,233.486290387,2_ND,training,03,1_B,36.0,00011,ignore,1.0,300.0,1.03937998639
36,2_38_1,38,1.0,239.439714239,2_ND,training,03,1_B,37.0,10100,ignore,0.0,200.0,3.6695595271
37,2_38_1,38,1.0,242.517957766,2_ND,training,03,1_B,38.0,00001,ignore,0.0,100.0,0.724241978881
38,2_38_1,38,1.0,248.330735233,2_ND,training,03,1_B,39.0,10010,kill,0.0,0.0,3.59891530049
39,2_38_1,38,1.0,251.79969432,2_ND,training,03,1_B,40.0,01000,ignore,1.0,100.0,1.14974329627
40,2_38_1,38,1.0,255.596701729,2_ND,training,03,1_B,41.0,01110,kill,0.0,0.0,1.62833790799
41,2_38_1,38,1.0,259.518794424,2_ND,training,03,1_B,42.0,11111,kill,0.0,0.0,1.66706186917
42,2_38_1,38,1.0,266.144099755,2_ND,training,03,1_B,43.0,11110,kill,0.0,0.0,4.34253260215
43,2_38_1,38,1.0,270.332141705,2_ND,training,03,1_B,44.0,10001,ignore,0.0,0.0,1.07338368607
44,2_38_1,38,1.0,273.597607766,2_ND,training,03,1_B,45.0,00111,kill,0.0,0.0,0.955110715543
45,2_38_1,38,1.0,276.832167158,2_ND,training,03,1_B,46.0,00000,ignore,0.0,0.0,0.92721404403
46,2_38_1,38,1.0,280.44167082,2_ND,training,03,1_B,47.0,01101,ignore,0.0,0.0,1.36297283694
47,2_38_1,38,1.0,284.051228672,2_ND,training,03,1_B,48.0,00110,kill,0.0,0.0,1.26297948751
48,2_38_1,38,1.0,287.504538397,2_ND,training,03,1_B,49.0,11011,ignore,1.0,100.0,1.16983047619
49,2_38_1,38,1.0,290.770290186,2_ND,training,03,1_B,50.0,10011,ignore,1.0,200.0,1.01034779189
50,2_38_1,38,1.0,293.895481801,2_ND,training,03,1_B,51.0,01111,ignore,1.0,300.0,0.806781691395
51,2_38_1,38,1.0,298.380060693,2_ND,training,03,1_B,52.0,00010,ignore,1.0,400.0,2.25464985578
52,2_38_1,38,1.0,303.89593913,2_ND,training,03,1_B,53.0,11101,kill,1.0,500.0,3.22184654265
53,2_38_1,38,1.0,307.692975686,2_ND,training,03,1_B,54.0,11000,ignore,1.0,600.0,1.54554736231
54,2_38_1,38,1.0,311.333804347,2_ND,training,03,1_B,55.0,01001,ignore,1.0,700.0,1.3773577702
55,2_38_1,38,1.0,316.849731637,2_ND,training,03,1_B,56.0,10000,ignore,0.0,600.0,3.06600073402
56,2_38_1,38,1.0,321.193664143,2_ND,training,03,1_B,57.0,01010,ignore,1.0,700.0,2.0406891631
57,2_38_1,38,1.0,324.975140421,2_ND,training,03,1_B,58.0,10110,kill,0.0,600.0,1.47841028424
58,2_38_1,38,1.0,328.272119093,2_ND,training,03,1_B,59.0,00101,ignore,0.0,500.0,1.0121126557
59,2_38_1,38,1.0,331.428517063,2_ND,training,03,1_B,60.0,11001,ignore,1.0,600.0,0.926780525495
60,2_38_1,38,1.0,336.538160716,2_ND,training,03,1_B,61.0,10111,kill,0.0,500.0,2.85963646843
61,2_38_1,38,1.0,340.491444988,2_ND,training,03,1_B,62.0,11100,ignore,0.0,400.0,0.790674178797
62,2_38_1,38,1.0,343.788499197,2_ND,training,03,1_B,63.0,11010,ignore,1.0,500.0,0.989664523979
63,2_38_1,38,1.0,347.213678659,2_ND,training,03,1_B,64.0,00100,ignore,0.0,400.0,1.16426534619
64,2_38_1,38,1.0,351.135737281,2_ND,training,03,1_B,65.0,11000,ignore,1.0,500.0,1.65393192281
65,2_38_1,38,1.0,354.214032946,2_ND,training,03,1_B,66.0,01110,ignore,1.0,600.0,0.830198260835
66,2_38_1,38,1.0,357.448533632,2_ND,training,03,1_B,67.0,11100,ignore,0.0,500.0,0.864643279108
67,2_38_1,38,1.0,361.089324934,2_ND,training,03,1_B,68.0,10011,ignore,1.0,600.0,1.35412922301
68,2_38_1,38,1.0,364.480101253,2_ND,training,03,1_B,69.0,00000,ignore,0.0,500.0,1.16408553452
69,2_38_1,38,1.0,368.261571784,2_ND,training,03,1_B,70.0,10100,kill,1.0,600.0,1.39315328082
70,2_38_1,38,1.0,373.308685314,2_ND,training,03,1_B,71.0,11010,ignore,1.0,700.0,2.79892909427
71,2_38_1,38,1.0,379.105858576,2_ND,training,03,1_B,72.0,10001,ignore,0.0,600.0,3.53563555213
72,2_38_1,38,1.0,383.168557837,2_ND,training,03,1_B,73.0,00101,ignore,0.0,500.0,1.89296772175
73,2_38_1,38,1.0,387.262504506,2_ND,training,03,1_B,74.0,01100,ignore,0.0,400.0,1.85645897461
74,2_38_1,38,1.0,391.637693041,2_ND,training,03,1_B,75.0,01101,ignore,0.0,300.0,2.16761115686
75,2_38_1,38,1.0,395.606666086,2_ND,training,03,1_B,76.0,00110,kill,0.0,200.0,1.67647283407
76,2_38_1,38,1.0,399.563266611,2_ND,training,03,1_B,77.0,00001,ignore,0.0,100.0,0.445431675262
77,2_38_1,38,1.0,403.408793201,2_ND,training,03,1_B,78.0,10101,kill,1.0,200.0,1.54784057684
78,2_38_1,38,1.0,407.661194179,2_ND,training,03,1_B,79.0,10010,ignore,1.0,300.0,1.98224955068
79,2_38_1,38,1.0,410.973878866,2_ND,training,03,1_B,80.0,11011,ignore,1.0,400.0,1.06644862107
80,2_38_1,38,1.0,414.274020663,2_ND,training,03,1_B,81.0,01001,ignore,1.0,500.0,1.0984596134
81,2_38_1,38,1.0,417.789826437,2_ND,training,03,1_B,82.0,01011,ignore,1.0,600.0,1.02046979287
82,2_38_1,38,1.0,421.3837534,2_ND,training,03,1_B,83.0,11001,ignore,1.0,700.0,1.30767623391
83,2_38_1,38,1.0,426.462128297,2_ND,training,03,1_B,84.0,11111,kill,0.0,600.0,2.83922702331
84,2_38_1,38,1.0,429.524815652,2_ND,training,03,1_B,85.0,11110,ignore,1.0,700.0,0.838893263302
85,2_38_1,38,1.0,432.649890676,2_ND,training,03,1_B,86.0,01000,ignore,1.0,800.0,0.718907155602
86,2_38_1,38,1.0,435.665684134,2_ND,training,03,1_B,87.0,00010,ignore,1.0,900.0,0.758289605163
87,2_38_1,38,1.0,438.96274368,2_ND,training,03,1_B,88.0,00111,ignore,1.0,1000.0,0.938038459992
88,2_38_1,38,1.0,442.384821186,2_ND,training,03,1_B,89.0,01111,ignore,1.0,1100.0,1.07085195424
89,2_38_1,38,1.0,445.384945576,2_ND,training,03,1_B,90.0,10111,ignore,1.0,1200.0,0.699638570341
90,2_38_1,38,1.0,448.76010168,2_ND,training,03,1_B,91.0,00100,ignore,0.0,1100.0,1.10778641987
91,2_38_1,38,1.0,452.228975377,2_ND,training,03,1_B,92.0,00011,ignore,1.0,1200.0,1.10490368581
92,2_38_1,38,1.0,455.651436728,2_ND,training,03,1_B,93.0,01010,ignore,1.0,1300.0,1.18407993491
93,2_38_1,38,1.0,459.510991501,2_ND,training,03,1_B,94.0,10110,kill,0.0,1200.0,1.55477974713
94,2_38_1,38,1.0,462.698638111,2_ND,training,03,1_B,95.0,11101,ignore,0.0,1100.0,0.952214434034
95,2_38_1,38,1.0,465.901988274,2_ND,training,03,1_B,96.0,10000,kill,1.0,1200.0,0.911191921447
96,2_38_1,38,1.0,469.027085056,2_ND,training,03,1_B,97.0,00111,kill,0.0,1100.0,0.829219559897
97,2_38_1,38,1.0,471.933433557,2_ND,training,03,1_B,98.0,10001,kill,1.0,1200.0,0.655936124984
98,2_38_1,38,1.0,475.683617679,2_ND,training,03,1_B,99.0,10101,kill,1.0,1300.0,1.46255565746
99,2_38_1,38,1.0,478.730728746,2_ND,training,03,1_B,100.0,00110,kill,0.0,1200.0,0.795056574989
100,2_38_1,38,1.0,481.855788991,2_ND,training,03,1_B,101.0,01111,ignore,1.0,1300.0,0.883034153543
101,2_38_1,38,1.0,484.559062385,2_ND,training,03,1_B,102.0,01101,ignore,0.0,1200.0,0.42932949954
102,2_38_1,38,1.0,487.949870724,2_ND,training,03,1_B,103.0,01001,kill,0.0,1100.0,1.1187807948
103,2_38_1,38,1.0,490.981247039,2_ND,training,03,1_B,104.0,10110,ignore,1.0,1200.0,0.75300527694
104,2_38_1,38,1.0,493.71575963,2_ND,training,03,1_B,105.0,10011,ignore,1.0,1300.0,0.456027837145
105,2_38_1,38,1.0,497.106530201,2_ND,training,03,1_B,106.0,10000,ignore,0.0,1200.0,1.0430357464
106,2_38_1,38,1.0,500.216090517,2_ND,training,03,1_B,107.0,10010,ignore,1.0,1300.0,0.837651823858
107,2_38_1,38,1.0,503.481877611,2_ND,training,03,1_B,108.0,01100,ignore,0.0,1200.0,1.00176240064
108,2_38_1,38,1.0,506.657056048,2_ND,training,03,1_B,109.0,11010,ignore,1.0,1300.0,0.940439233098
109,2_38_1,38,1.0,510.735357049,2_ND,training,03,1_B,110.0,11101,ignore,0.0,1200.0,1.83815964813
110,2_38_1,38,1.0,513.48546235,2_ND,training,03,1_B,111.0,01000,ignore,1.0,1300.0,0.43787219578
111,2_38_1,38,1.0,516.782544475,2_ND,training,03,1_B,112.0,00000,ignore,0.0,1200.0,1.0274294896
112,2_38_1,38,1.0,520.892090011,2_ND,training,03,1_B,113.0,10111,kill,0.0,1100.0,1.79963109871
113,2_38_1,38,1.0,524.470469013,2_ND,training,03,1_B,114.0,01110,kill,0.0,1000.0,1.34606602455
114,2_38_1,38,1.0,527.32997288,2_ND,training,03,1_B,115.0,11001,ignore,1.0,1100.0,0.602986515767
115,2_38_1,38,1.0,530.236298392,2_ND,training,03,1_B,116.0,10100,ignore,0.0,1000.0,0.589787600549
116,2_38_1,38,1.0,534.017793144,2_ND,training,03,1_B,117.0,11100,kill,1.0,1100.0,1.48255991054
117,2_38_1,38,1.0,537.158522457,2_ND,training,03,1_B,118.0,11011,ignore,1.0,1200.0,0.891969315426
118,2_38_1,38,1.0,541.127579661,2_ND,training,03,1_B,119.0,00100,ignore,0.0,1100.0,1.66961084322
119,2_38_1,38,1.0,544.221344055,2_ND,training,03,1_B,120.0,11000,ignore,1.0,1200.0,0.802562685712
120,2_38_1,38,1.0,549.659105819,2_ND,training,03,1_B,121.0,00101,ignore,0.0,1100.0,3.13548070062
121,2_38_1,38,1.0,558.786015086,2_ND,training,03,1_B,122.0,01011,ignore,1.0,1200.0,6.83435158189
122,2_38_1,38,1.0,562.645591617,2_ND,training,03,1_B,123.0,00010,ignore,1.0,1300.0,1.53524308649
123,2_38_1,38,1.0,567.520877859,2_ND,training,03,1_B,124.0,00001,ignore,0.0,1200.0,2.56383190976
124,2_38_1,38,1.0,570.864728259,2_ND,training,03,1_B,125.0,00011,ignore,1.0,1300.0,1.05943062924
125,2_38_1,38,1.0,578.28733001,2_ND,training,03,1_B,126.0,01010,ignore,1.0,1400.0,5.15342615118
126,2_38_1,38,1.0,582.240671346,2_ND,training,03,1_B,127.0,11111,kill,0.0,1300.0,1.7007240088
127,2_38_1,38,1.0,586.028132726,2_ND,training,03,1_B,128.0,11110,ignore,1.0,1400.0,1.59476115838
128,2_38_1,38,1.0,589.465784057,2_ND,training,03,1_B,129.0,10100,ignore,0.0,1300.0,1.2002371215
129,2_38_1,38,1.0,592.500312002,2_ND,training,03,1_B,130.0,00001,ignore,0.0,1200.0,0.803212963518
130,2_38_1,38,1.0,595.73486893,2_ND,training,03,1_B,131.0,00000,kill,1.0,1300.0,0.950096515347
131,2_38_1,38,1.0,599.406907231,2_ND,training,03,1_B,132.0,11110,kill,0.0,1200.0,1.30505788047
132,2_38_1,38,1.0,602.157021563,2_ND,training,03,1_B,133.0,11111,ignore,1.0,1300.0,0.397630919724
133,2_38_1,38,1.0,605.282165967,2_ND,training,03,1_B,134.0,10011,ignore,1.0,1400.0,0.788681060905
134,2_38_1,38,1.0,608.391733672,2_ND,training,03,1_B,135.0,10010,kill,0.0,1300.0,0.874608458045
135,2_38_1,38,1.0,611.423119429,2_ND,training,03,1_B,136.0,01000,kill,0.0,1200.0,0.790444693133
136,2_38_1,38,1.0,614.563888563,2_ND,training,03,1_B,137.0,00010,ignore,1.0,1300.0,0.898173638954
137,2_38_1,38,1.0,617.705345333,2_ND,training,03,1_B,138.0,10111,ignore,1.0,1400.0,0.931272532905
138,2_38_1,38,1.0,620.752377989,2_ND,training,03,1_B,139.0,10101,ignore,0.0,1300.0,0.841560059149
139,2_38_1,38,1.0,624.002542406,2_ND,training,03,1_B,140.0,01001,ignore,1.0,1400.0,1.03455668214
140,2_38_1,38,1.0,627.065171876,2_ND,training,03,1_B,141.0,01111,ignore,1.0,1500.0,0.856477448415
141,2_38_1,38,1.0,630.252832855,2_ND,training,03,1_B,142.0,00011,ignore,1.0,1600.0,0.943389704427
142,2_38_1,38,1.0,633.331088288,2_ND,training,03,1_B,143.0,00110,ignore,1.0,1700.0,0.844973607096
143,2_38_1,38,1.0,636.534376049,2_ND,training,03,1_B,144.0,00111,ignore,1.0,1800.0,1.0014594303
144,2_38_1,38,1.0,641.409595785,2_ND,training,03,1_B,145.0,11010,ignore,1.0,1900.0,2.6693862839
145,2_38_1,38,1.0,644.144148198,2_ND,training,03,1_B,146.0,11100,ignore,0.0,1800.0,0.537933282481
146,2_38_1,38,1.0,647.722422515,2_ND,training,03,1_B,147.0,00100,ignore,0.0,1700.0,1.33764073958
147,2_38_1,38,1.0,650.613172559,2_ND,training,03,1_B,148.0,11001,kill,0.0,1600.0,0.674625043413
148,2_38_1,38,1.0,653.332125284,2_ND,training,03,1_B,149.0,11101,ignore,0.0,1500.0,0.522765470578
149,2_38_1,38,1.0,656.144702822,2_ND,training,03,1_B,150.0,01101,ignore,0.0,1400.0,0.588305591158
150,2_38_1,38,1.0,658.84794871,2_ND,training,03,1_B,151.0,01110,kill,0.0,1300.0,0.384120413057
151,2_38_1,38,1.0,661.738740629,2_ND,training,03,1_B,152.0,10000,ignore,0.0,1200.0,0.643440035272
152,2_38_1,38,1.0,664.801390626,2_ND,training,03,1_B,153.0,00101,ignore,0.0,1100.0,0.84092989726
153,2_38_1,38,1.0,667.817167662,2_ND,training,03,1_B,154.0,10110,kill,0.0,1000.0,0.727407977891
154,2_38_1,38,1.0,670.895380811,2_ND,training,03,1_B,155.0,01100,kill,1.0,1100.0,0.763259468233
155,2_38_1,38,1.0,673.520609373,2_ND,training,03,1_B,156.0,01010,kill,0.0,1000.0,0.416989000289
156,2_38_1,38,1.0,676.458210209,2_ND,training,03,1_B,157.0,01011,ignore,1.0,1100.0,0.739968931171
157,2_38_1,38,1.0,679.864564868,2_ND,training,03,1_B,158.0,10001,ignore,0.0,1000.0,1.1128223781
158,2_38_1,38,1.0,683.192849243,2_ND,training,03,1_B,159.0,11000,ignore,1.0,1100.0,1.07270877653
159,2_38_1,38,1.0,690.17756443,2_ND,training,03,1_B,160.0,11011,ignore,1.0,1200.0,4.70682775274
160,2_38_1,38,1.0,693.912185401,2_ND,training,03,1_B,161.0,10000,ignore,0.0,1100.0,1.44239950868
161,2_38_1,38,1.0,696.677892033,2_ND,training,03,1_B,162.0,00001,ignore,0.0,1000.0,0.50126648171
162,2_38_1,38,1.0,699.974969231,2_ND,training,03,1_B,163.0,00000,ignore,0.0,900.0,1.02279954448
163,2_38_1,38,1.0,703.365715581,2_ND,training,03,1_B,164.0,11001,kill,0.0,800.0,1.11853283533
164,2_38_1,38,1.0,706.412765068,2_ND,training,03,1_B,165.0,10011,ignore,1.0,900.0,0.783387701045
165,2_38_1,38,1.0,710.819297076,2_ND,training,03,1_B,166.0,01000,ignore,1.0,1000.0,1.95562716092
166,2_38_1,38,1.0,714.19445318,2_ND,training,03,1_B,167.0,01001,ignore,1.0,1100.0,0.931538966173
167,2_38_1,38,1.0,716.975839552,2_ND,training,03,1_B,168.0,11110,ignore,1.0,1200.0,0.448604242734
168,2_38_1,38,1.0,720.132180459,2_ND,training,03,1_B,169.0,11101,ignore,0.0,1100.0,0.74029612272
169,2_38_1,38,1.0,723.085438457,2_ND,training,03,1_B,170.0,00010,ignore,1.0,1200.0,0.689571580233
170,2_38_1,38,1.0,726.491926538,2_ND,training,03,1_B,171.0,01111,kill,0.0,1100.0,1.16058413339
171,2_38_1,38,1.0,731.804622309,2_ND,training,03,1_B,172.0,10110,ignore,1.0,1200.0,2.89808126995
172,2_38_1,38,1.0,734.882880205,2_ND,training,03,1_B,173.0,00111,ignore,1.0,1300.0,0.910230052195
173,2_38_1,38,1.0,738.608093495,2_ND,training,03,1_B,174.0,11010,ignore,1.0,1400.0,1.54783647155
174,2_38_1,38,1.0,742.592706461,2_ND,training,03,1_B,175.0,10010,ignore,1.0,1500.0,1.82761028654
175,2_38_1,38,1.0,746.639762928,2_ND,training,03,1_B,176.0,00101,ignore,0.0,1400.0,1.89345543011
176,2_38_1,38,1.0,749.968018566,2_ND,training,03,1_B,177.0,10100,kill,1.0,1500.0,1.18590678859
177,2_38_1,38,1.0,753.765113006,2_ND,training,03,1_B,178.0,01110,ignore,1.0,1600.0,1.66943226314
178,2_38_1,38,1.0,756.827745761,2_ND,training,03,1_B,179.0,10001,kill,1.0,1700.0,0.936747757076
179,2_38_1,38,1.0,759.999816494,2_ND,training,03,1_B,180.0,11000,kill,0.0,1600.0,1.0084626431
180,2_38_1,38,1.0,762.95302646,2_ND,training,03,1_B,181.0,11111,ignore,1.0,1700.0,0.793118467973
181,2_38_1,38,1.0,766.281324383,2_ND,training,03,1_B,182.0,00110,ignore,1.0,1800.0,1.14208118456
182,2_38_1,38,1.0,769.515835332,2_ND,training,03,1_B,183.0,01011,ignore,1.0,1900.0,1.03689136009
183,2_38_1,38,1.0,772.547231762,2_ND,training,03,1_B,184.0,01101,kill,1.0,2000.0,0.86611009893
184,2_38_1,38,1.0,777.25065623,2_ND,training,03,1_B,185.0,01010,ignore,1.0,2100.0,2.53520326518
185,2_38_1,38,1.0,780.782041166,2_ND,training,03,1_B,186.0,10101,kill,1.0,2200.0,1.32097613924
186,2_38_1,38,1.0,784.01661739,2_ND,training,03,1_B,187.0,00100,kill,1.0,2300.0,0.98472421899
187,2_38_1,38,1.0,786.922947417,2_ND,training,03,1_B,188.0,00011,ignore,1.0,2400.0,0.621420495738
188,2_38_1,38,1.0,790.204445453,2_ND,training,03,1_B,189.0,11100,kill,1.0,2500.0,1.08074611168
189,2_38_1,38,1.0,793.376447628,2_ND,training,03,1_B,190.0,01100,kill,1.0,2600.0,0.965683477278
190,2_38_1,38,1.0,796.314042306,2_ND,training,03,1_B,191.0,10111,ignore,1.0,2700.0,0.731227949465
191,2_38_1,38,1.0,799.142316828,2_ND,training,03,1_B,192.0,11011,ignore,1.0,2800.0,0.6658072928
192,2_38_1,38,1.0,801.892441013,2_ND,training,03,1_B,193.0,01111,ignore,1.0,2900.0,0.635839092371
193,2_38_1,38,1.0,805.017582132,2_ND,training,03,1_B,194.0,11111,ignore,1.0,3000.0,1.01080101581
194,2_38_1,38,1.0,808.189599907,2_ND,training,03,1_B,195.0,00100,kill,1.0,3100.0,1.01088147948
195,2_38_1,38,1.0,811.064765863,2_ND,training,03,1_B,196.0,00011,ignore,1.0,3200.0,0.667326249793
196,2_38_1,38,1.0,814.127410113,2_ND,training,03,1_B,197.0,00000,kill,1.0,3300.0,0.91199081072
197,2_38_1,38,1.0,818.190138931,2_ND,training,03,1_B,198.0,01000,kill,0.0,3200.0,1.91791433247
198,2_38_1,38,1.0,823.534161753,2_ND,training,03,1_B,199.0,11110,ignore,1.0,3300.0,3.12990038105
199,2_38_1,38,1.0,826.674869719,2_ND,training,03,1_B,200.0,01110,ignore,1.0,3400.0,0.902380328769
200,2_38_1,38,1.0,829.331260299,2_ND,training,03,1_B,201.0,11011,ignore,1.0,3500.0,0.50213433984
201,2_38_1,38,1.0,831.956421534,2_ND,training,03,1_B,202.0,00010,ignore,1.0,3600.0,0.409778059857
202,2_38_1,38,1.0,834.956531556,2_ND,training,03,1_B,203.0,11100,kill,1.0,3700.0,0.87432642468
203,2_38_1,38,1.0,837.92544097,2_ND,training,03,1_B,204.0,01010,ignore,1.0,3800.0,0.725615198109
204,2_38_1,38,1.0,840.784927184,2_ND,training,03,1_B,205.0,10110,ignore,1.0,3900.0,0.716498582444
205,2_38_1,38,1.0,990.620319457,2_ND,test,03,2,0.0,10011,ignore,0.0,0.0,14.6998824245
206,2_38_1,38,1.0,995.93314085,2_ND,test,03,2,1.0,10010,kill,0.0,0.0,3.16468983309
207,2_38_1,38,1.0,1012.24635389,2_ND,test,03,2,2.0,00001,kill,1.0,100.0,14.0542912177
208,2_38_1,38,1.0,1040.04463106,2_ND,test,03,2,3.0,00110,ignore,1.0,200.0,25.6886183321
209,2_38_1,38,1.0,1056.34224441,2_ND,test,03,2,4.0,10111,kill,1.0,300.0,14.0296976619
210,2_38_1,38,1.0,1090.15955986,2_ND,test,03,2,5.0,00101,,,200.0,
211,2_38_1,38,1.0,1098.70683925,2_ND,test,03,2,6.0,11000,kill,0.0,100.0,6.31407063232
212,2_38_1,38,1.0,1107.47287923,2_ND,test,03,2,7.0,10001,kill,1.0,200.0,6.52652057858
213,2_38_1,38,1.0,1114.11385034,2_ND,test,03,2,8.0,01101,kill,0.0,100.0,4.40675287227
214,2_38_1,38,1.0,1137.69319368,2_ND,test,03,2,9.0,10100,kill,0.0,0.0,21.3316400384
215,2_38_1,38,1.0,1146.0373142,2_ND,test,03,2,10.0,10000,kill,0.0,0.0,6.11341559238
216,2_38_1,38,1.0,1165.63192306,2_ND,test,03,2,11.0,01011,ignore,0.0,0.0,17.2888727779
217,2_38_1,38,1.0,1173.1947931,2_ND,test,03,2,12.0,11001,kill,1.0,100.0,5.333820768
218,2_38_1,38,1.0,1177.83567554,2_ND,test,03,2,13.0,11101,kill,0.0,0.0,2.39781114192
219,2_38_1,38,1.0,1199.51177069,2_ND,test,03,2,14.0,00111,kill,1.0,100.0,19.4042593196
220,2_38_1,38,1.0,1207.80905602,2_ND,test,03,2,15.0,10101,kill,0.0,0.0,6.10856273005
221,2_38_1,38,1.0,1214.5906374,2_ND,test,03,2,16.0,11010,ignore,1.0,100.0,4.55364668732
222,2_38_1,38,1.0,1219.68464852,2_ND,test,03,2,17.0,01001,kill,1.0,200.0,2.93898185544
223,2_38_1,38,1.0,1224.27854633,2_ND,test,03,2,18.0,01100,kill,0.0,100.0,2.38316962808
224,2_38_1,38,1.0,1237.07610672,2_ND,test,03,2,19.0,11110,ignore,1.0,200.0,10.5922167002
225,2_38_1,38,1.0,1254.56124968,2_ND,test,03,2,20.0,01010,ignore,1.0,300.0,15.3433589969
226,2_38_1,38,1.0,1262.98358336,2_ND,test,03,2,21.0,00100,ignore,1.0,400.0,6.20671321517
227,2_38_1,38,1.0,1276.21859597,2_ND,test,03,2,22.0,00101,kill,0.0,300.0,10.9648308087
228,2_38_1,38,1.0,1291.85999979,2_ND,test,03,2,23.0,11101,kill,0.0,200.0,13.3699990394
229,2_38_1,38,1.0,1300.12596587,2_ND,test,03,2,24.0,01111,ignore,0.0,100.0,5.96288613324
230,2_38_1,38,1.0,1305.42315104,2_ND,test,03,2,25.0,10110,ignore,1.0,200.0,3.10221061611
231,2_38_1,38,1.0,1314.61106942,2_ND,test,03,2,26.0,00000,ignore,1.0,300.0,6.94261667848
232,2_38_1,38,1.0,1320.29885643,2_ND,test,03,2,27.0,11010,ignore,1.0,400.0,3.48320731464
233,2_38_1,38,1.0,1335.34642647,2_ND,test,03,2,28.0,01101,ignore,1.0,500.0,12.8787617791
234,2_38_1,38,1.0,1345.50636156,2_ND,test,03,2,29.0,11111,kill,1.0,600.0,7.99690830672
235,2_38_1,38,1.0,1352.10040839,2_ND,test,03,2,30.0,00110,ignore,1.0,700.0,4.43064565525
236,2_38_1,38,1.0,1371.69518269,2_ND,test,03,2,31.0,10100,ignore,1.0,800.0,17.3807676234
237,2_38_1,38,1.0,1384.69574347,2_ND,test,03,2,32.0,01001,ignore,0.0,700.0,10.7772585043
238,2_38_1,38,1.0,1391.35230976,2_ND,test,03,2,33.0,00010,ignore,1.0,800.0,4.53130734576
239,2_38_1,38,1.0,1402.05600559,2_ND,test,03,2,34.0,10101,kill,0.0,700.0,8.51420881635
240,2_38_1,38,1.0,1416.61914576,2_ND,test,03,3,0.0,01000,ignore,1.0,800.0,12.3686993048
241,2_38_1,38,1.0,1423.61950333,2_ND,test,03,3,1.0,10000,ignore,0.0,700.0,4.79963315136
242,2_38_1,38,1.0,1429.86982908,2_ND,test,03,3,2.0,01011,kill,0.0,600.0,4.0532915798
243,2_38_1,38,1.0,1439.40156461,2_ND,test,03,3,3.0,01110,ignore,1.0,700.0,7.42876584334
244,2_38_1,38,1.0,1450.16766247,2_ND,test,03,3,4.0,11011,kill,1.0,800.0,8.53108894437
245,2_38_1,38,1.0,1456.77736606,2_ND,test,03,3,5.0,00011,kill,0.0,700.0,4.31862504013
246,2_38_1,38,1.0,1463.07453891,2_ND,test,03,3,6.0,10011,ignore,1.0,800.0,4.08192802443
247,2_38_1,38,1.0,1472.41874401,2_ND,test,03,3,7.0,10010,ignore,0.0,700.0,7.07683336057
248,2_38_1,38,1.0,1486.29441328,2_ND,test,03,3,8.0,11000,ignore,0.0,600.0,11.4377067526
249,2_38_1,38,1.0,1498.12310243,2_ND,test,03,3,9.0,01100,ignore,1.0,700.0,9.58399093224
250,2_38_1,38,1.0,1512.18635755,2_ND,test,03,3,10.0,11100,kill,1.0,800.0,11.812965899
251,2_38_1,38,1.0,1516.71774043,2_ND,test,03,3,11.0,11001,kill,1.0,900.0,2.36261321361
252,2_38_1,38,1.0,1521.17108505,2_ND,test,03,3,12.0,10001,kill,0.0,800.0,2.20807247642
253,2_38_1,38,1.0,1531.43727241,2_ND,test,03,3,13.0,00111,kill,0.0,700.0,8.08479597944
254,2_38_1,38,1.0,1538.28131453,2_ND,test,03,3,14.0,10111,kill,0.0,600.0,4.52929698565
255,2_38_1,38,1.0,1550.46944105,2_ND,test,03,3,15.0,00001,ignore,1.0,700.0,9.95422766784
256,2_38_1,38,1.0,1557.7822571,2_ND,test,03,3,16.0,01011,ignore,1.0,800.0,5.11884688995
257,2_38_1,38,1.0,1567.25145389,2_ND,test,03,3,17.0,00000,ignore,1.0,900.0,7.23638542425
258,2_38_1,38,1.0,1585.4242061,2_ND,test,03,3,18.0,10100,ignore,0.0,800.0,15.963451021
259,2_38_1,38,1.0,1590.62760881,2_ND,test,03,3,19.0,01001,ignore,1.0,900.0,2.99702202324
260,2_38_1,38,1.0,1600.65936404,2_ND,test,03,3,20.0,00011,ignore,1.0,1000.0,7.87078068642
261,2_38_1,38,1.0,1607.87842638,2_ND,test,03,3,21.0,10101,kill,0.0,900.0,5.01675163247
262,2_38_1,38,1.0,1616.22264543,2_ND,test,03,3,22.0,10010,ignore,0.0,800.0,6.17066877624
263,2_38_1,38,1.0,1625.4574105,2_ND,test,03,3,23.0,00111,ignore,1.0,900.0,7.07731039517
264,2_38_1,38,1.0,1632.48898346,2_ND,test,03,3,24.0,00010,ignore,1.0,1000.0,4.78610129719
265,2_38_1,38,1.0,1647.20848711,2_ND,test,03,3,25.0,10011,kill,0.0,900.0,12.2524802105
266,2_38_1,38,1.0,1655.89639523,2_ND,test,03,3,26.0,11001,ignore,0.0,800.0,6.5305314461
267,2_38_1,38,1.0,1676.25677927,2_ND,test,03,3,27.0,11101,ignore,0.0,700.0,17.997920671
268,2_38_1,38,1.0,1684.33526747,2_ND,test,03,3,28.0,10001,ignore,1.0,800.0,5.91938772075
269,2_38_1,38,1.0,1696.97652226,2_ND,test,03,3,29.0,11111,kill,1.0,900.0,10.4478472274
270,2_38_1,38,1.0,1705.86753381,2_ND,test,03,3,30.0,01000,ignore,1.0,1000.0,6.70359196381
271,2_38_1,38,1.0,1717.50878983,2_ND,test,03,3,31.0,10111,ignore,1.0,1100.0,9.4598872195
272,2_38_1,38,1.0,1724.80598937,2_ND,test,03,3,32.0,11110,ignore,0.0,1000.0,5.11545222634
273,2_38_1,38,1.0,1734.16581756,2_ND,test,03,3,33.0,00100,ignore,1.0,1100.0,7.14756790354
274,2_38_1,38,1.0,1738.24411938,2_ND,test,03,3,34.0,01101,ignore,1.0,1200.0,1.90595562511
275,2_38_1,38,1.0,1745.04135791,2_ND,test,03,3,35.0,00001,ignore,1.0,1300.0,4.58806255804
276,2_38_1,38,1.0,1778.73051609,2_ND,test,03,3,36.0,01110,,,1200.0,
277,2_38_1,38,1.0,1787.87151266,2_ND,test,03,3,37.0,01111,ignore,1.0,1300.0,6.78673392225
278,2_38_1,38,1.0,1799.05961003,2_ND,test,03,3,38.0,10000,ignore,0.0,1200.0,8.97232952992
279,2_38_1,38,1.0,1803.7941723,2_ND,test,03,3,39.0,01100,ignore,1.0,1300.0,2.54584212207
280,2_38_1,38,1.0,1817.04479445,2_ND,test,03,3,40.0,10110,ignore,0.0,1200.0,11.0199656634
281,2_38_1,38,1.0,1827.21716241,2_ND,test,03,3,41.0,11100,ignore,0.0,1100.0,8.01081743697
282,2_38_1,38,1.0,1836.72077794,2_ND,test,03,4,0.0,11010,ignore,0.0,1000.0,7.29289267707
283,2_38_1,38,1.0,1845.03369006,2_ND,test,03,4,1.0,01010,ignore,0.0,900.0,6.11972870607
284,2_38_1,38,1.0,1854.26850274,2_ND,test,03,4,2.0,00110,ignore,0.0,800.0,6.96442479562
285,2_38_1,38,1.0,1866.42533752,2_ND,test,03,4,3.0,11000,kill,0.0,700.0,9.87918996076
286,2_38_1,38,1.0,1876.89460778,2_ND,test,03,4,4.0,00101,ignore,1.0,800.0,8.31186444992
287,2_38_1,38,1.0,1883.78562919,2_ND,test,03,4,5.0,11011,ignore,0.0,700.0,4.68622618009
288,2_38_1,38,1.0,1893.05174101,2_ND,test,03,4,6.0,10001,kill,0.0,600.0,7.0261404288
289,2_38_1,38,1.0,1901.47390801,2_ND,test,03,4,7.0,01010,ignore,0.0,500.0,6.27025775469
290,2_38_1,38,1.0,1913.17766378,2_ND,test,03,4,8.0,01000,ignore,1.0,600.0,8.60228327973
291,2_38_1,38,1.0,1921.80311074,2_ND,test,03,4,9.0,00010,ignore,0.0,500.0,6.34181622919
292,2_38_1,38,1.0,1933.42860861,2_ND,test,03,4,10.0,11010,ignore,0.0,400.0,9.39658407099
293,2_38_1,38,1.0,1942.3196686,2_ND,test,03,4,11.0,00000,ignore,1.0,500.0,6.66283506344
294,2_38_1,38,1.0,1947.99182514,2_ND,test,03,4,12.0,11100,ignore,1.0,600.0,3.5194820603
295,2_38_1,38,1.0,1952.75763112,2_ND,test,03,4,13.0,10110,kill,0.0,500.0,2.53208037171
296,2_38_1,38,1.0,1972.66489551,2_ND,test,03,4,14.0,01100,ignore,1.0,600.0,17.6122570798
297,2_38_1,38,1.0,1983.0247824,2_ND,test,03,4,15.0,10100,ignore,1.0,700.0,7.95251288855
298,2_38_1,38,1.0,1989.58759086,2_ND,test,03,4,16.0,00011,kill,1.0,800.0,4.33719121041
299,2_38_1,38,1.0,1996.27539963,2_ND,test,03,4,17.0,01001,ignore,1.0,900.0,4.51452163939
300,2_38_1,38,1.0,2009.33930215,2_ND,test,03,4,18.0,10010,kill,1.0,1000.0,10.8038390201
301,2_38_1,38,1.0,2014.87078479,2_ND,test,03,4,19.0,11000,ignore,1.0,1100.0,3.27994213184
302,2_38_1,38,1.0,2025.3400723,2_ND,test,03,4,20.0,00001,ignore,1.0,1200.0,8.28296814049
303,2_38_1,38,1.0,2034.38736564,2_ND,test,03,4,21.0,00111,kill,1.0,1300.0,6.78669533253
304,2_38_1,38,1.0,2041.68462224,2_ND,test,03,4,22.0,01011,ignore,0.0,1200.0,5.08182169744
305,2_38_1,38,1.0,2055.3415227,2_ND,test,03,4,23.0,00100,ignore,1.0,1300.0,11.4282966088
306,2_38_1,38,1.0,2061.12300883,2_ND,test,03,4,24.0,10011,kill,1.0,1400.0,3.58643809511
307,2_38_1,38,1.0,2074.13931299,2_ND,test,03,4,25.0,10101,ignore,1.0,1500.0,10.7593261907
308,2_38_1,38,1.0,2082.4365856,2_ND,test,03,4,26.0,11011,kill,1.0,1600.0,6.09363918285
309,2_38_1,38,1.0,2087.35871032,2_ND,test,03,4,27.0,00101,ignore,1.0,1700.0,2.66724660718
310,2_38_1,38,1.0,2092.79648357,2_ND,test,03,4,28.0,01111,kill,1.0,1800.0,3.24200679672
311,2_38_1,38,1.0,2098.56235811,2_ND,test,03,4,29.0,00110,ignore,0.0,1700.0,3.54802490433
312,2_38_1,38,1.0,2110.73484142,2_ND,test,03,4,30.0,01110,ignore,0.0,1600.0,9.98053846615
313,2_38_1,38,1.0,2123.59485353,2_ND,test,03,4,31.0,11111,ignore,1.0,1700.0,10.3766278498
314,2_38_1,38,1.0,2131.84529998,2_ND,test,03,4,32.0,01101,kill,0.0,1600.0,6.0597992842
315,2_38_1,38,1.0,2148.78357572,2_ND,test,03,4,33.0,11001,kill,0.0,1500.0,14.7596090451
316,2_38_1,38,1.0,2168.09696118,2_ND,test,03,4,34.0,11110,kill,0.0,1400.0,17.1499801715
317,2_38_1,38,1.0,2179.7068918,2_ND,test,03,4,35.0,11101,kill,0.0,1300.0,9.40464603786
318,2_38_1,38,1.0,2186.56659723,2_ND,test,03,4,36.0,10111,ignore,1.0,1400.0,4.60842232916
319,2_38_1,38,1.0,2197.67651307,2_ND,test,03,4,37.0,10000,ignore,1.0,1500.0,8.9139510863
