,unique_id,pair_id,sbj_id,wall_time,condition,block,rule_id,rule_num,trial,stimulus,choice,correct,points,reaction_time
0,3_16_1,16,1.0,31.8737743479,3_D,training,01,1_A,1.0,00001,ignore,1.0,100.0,2.9112408481
1,3_16_1,16,1.0,35.4676750487,3_D,training,01,1_A,2.0,11011,kill,0.0,0.0,1.78973210448
2,3_16_1,16,1.0,40.1460904215,3_D,training,01,1_A,3.0,11000,kill,0.0,0.0,2.89180745443
3,3_16_1,16,1.0,44.08375776,3_D,training,01,1_A,4.0,10101,kill,0.0,0.0,2.13283548198
4,3_16_1,16,1.0,48.0058484277,3_D,training,01,1_A,5.0,10110,kill,1.0,100.0,2.11630176668
5,3_16_1,16,1.0,50.8092476039,3_D,training,01,1_A,6.0,01011,ignore,0.0,0.0,1.02022109526
6,3_16_1,16,1.0,55.1440069892,3_D,training,01,1_A,7.0,00011,kill,1.0,100.0,2.56183938585
7,3_16_1,16,1.0,59.2067100886,3_D,training,01,1_A,8.0,00100,ignore,1.0,200.0,2.23147810793
8,3_16_1,16,1.0,62.7849856892,3_D,training,01,1_A,9.0,10001,ignore,1.0,300.0,1.77086511188
9,3_16_1,16,1.0,67.3946070665,3_D,training,01,1_A,10.0,00110,ignore,0.0,200.0,2.80119611332
10,3_16_1,16,1.0,70.9416276558,3_D,training,01,1_A,11.0,01010,ignore,0.0,100.0,1.74919882794
11,3_16_1,16,1.0,74.3324376542,3_D,training,01,1_A,12.0,11001,ignore,1.0,200.0,1.58853753064
12,3_16_1,16,1.0,77.9419522299,3_D,training,01,1_A,13.0,11110,kill,1.0,300.0,1.8349867797
13,3_16_1,16,1.0,81.2859058504,3_D,training,01,1_A,14.0,10100,kill,0.0,200.0,1.54263082068
14,3_16_1,16,1.0,84.2547739976,3_D,training,01,1_A,15.0,11111,kill,1.0,300.0,1.1830745507
15,3_16_1,16,1.0,87.5986916969,3_D,training,01,1_A,16.0,10011,ignore,1.0,400.0,1.57395190145
16,3_16_1,16,1.0,90.942573475,3_D,training,01,1_A,17.0,01101,kill,0.0,300.0,1.55725814418
17,3_16_1,16,1.0,93.9114939004,3_D,training,01,1_A,18.0,01001,ignore,1.0,400.0,1.19788404622
18,3_16_1,16,1.0,98.0522788823,3_D,training,01,1_A,19.0,00111,kill,1.0,500.0,2.34804094509
19,3_16_1,16,1.0,101.583742044,3_D,training,01,1_A,20.0,00000,ignore,1.0,600.0,1.73844586733
20,3_16_1,16,1.0,104.958887173,3_D,training,01,1_A,21.0,10111,kill,1.0,700.0,1.59520829832
21,3_16_1,16,1.0,109.068462365,3_D,training,01,1_A,22.0,11100,ignore,1.0,800.0,2.34550496932
22,3_16_1,16,1.0,112.85623163,3_D,training,01,1_A,23.0,00010,ignore,0.0,700.0,2.02610576497
23,3_16_1,16,1.0,115.528223515,3_D,training,01,1_A,24.0,10000,ignore,1.0,800.0,0.894806236953
24,3_16_1,16,1.0,118.419019722,3_D,training,01,1_A,25.0,01000,ignore,1.0,900.0,1.08121536968
25,3_16_1,16,1.0,121.591048169,3_D,training,01,1_A,26.0,11010,kill,0.0,800.0,1.42898979195
26,3_16_1,16,1.0,124.419289773,3_D,training,01,1_A,27.0,10010,kill,0.0,700.0,1.05112330865
27,3_16_1,16,1.0,128.388234573,3_D,training,01,1_A,28.0,01111,kill,1.0,800.0,2.19117703657
28,3_16_1,16,1.0,131.29460232,3_D,training,01,1_A,29.0,00101,ignore,1.0,900.0,1.1006936649
29,3_16_1,16,1.0,135.544852806,3_D,training,01,1_A,30.0,11101,ignore,1.0,1000.0,2.47103144007
30,3_16_1,16,1.0,139.248129529,3_D,training,01,1_A,31.0,01110,kill,1.0,1100.0,1.94594878913
31,3_16_1,16,1.0,142.560804726,3_D,training,01,1_A,32.0,01100,ignore,1.0,1200.0,1.53825195675
32,3_16_1,16,1.0,145.982839908,3_D,training,01,1_A,33.0,01110,kill,1.0,1300.0,1.65965935113
33,3_16_1,16,1.0,148.748596185,3_D,training,01,1_A,34.0,10101,ignore,1.0,1400.0,0.991478326017
34,3_16_1,16,1.0,152.514356631,3_D,training,01,1_A,35.0,10000,ignore,1.0,1500.0,1.98300379867
35,3_16_1,16,1.0,155.498882913,3_D,training,01,1_A,36.0,00100,ignore,1.0,1600.0,1.18069380602
36,3_16_1,16,1.0,157.999036541,3_D,training,01,1_A,37.0,10001,ignore,1.0,1700.0,0.698716970091
37,3_16_1,16,1.0,160.530390977,3_D,training,01,1_A,38.0,11000,ignore,1.0,1800.0,0.749433278212
38,3_16_1,16,1.0,163.24927067,3_D,training,01,1_A,39.0,01100,ignore,1.0,1900.0,0.95062913495
39,3_16_1,16,1.0,165.561901607,3_D,training,01,1_A,40.0,01000,ignore,1.0,2000.0,0.535348429665
40,3_16_1,16,1.0,167.843359958,3_D,training,01,1_A,41.0,11001,ignore,1.0,2100.0,0.505223975379
41,3_16_1,16,1.0,170.652882423,3_D,training,01,1_A,42.0,00111,kill,1.0,2200.0,1.01943820455
42,3_16_1,16,1.0,174.731215434,3_D,training,01,1_A,43.0,11011,kill,0.0,2100.0,2.30545598813
43,3_16_1,16,1.0,177.090689277,3_D,training,01,1_A,44.0,00001,ignore,1.0,2200.0,0.587008953371
44,3_16_1,16,1.0,180.278354692,3_D,training,01,1_A,45.0,00010,kill,1.0,2300.0,1.41878879975
45,3_16_1,16,1.0,182.903495971,3_D,training,01,1_A,46.0,01001,ignore,1.0,2400.0,0.840150137978
46,3_16_1,16,1.0,185.231729877,3_D,training,01,1_A,47.0,00101,ignore,1.0,2500.0,0.540754577072
47,3_16_1,16,1.0,187.763072447,3_D,training,01,1_A,48.0,01101,ignore,1.0,2600.0,0.758358104027
48,3_16_1,16,1.0,190.594482817,3_D,training,01,1_A,49.0,01010,kill,1.0,2700.0,1.08813886897
49,3_16_1,16,1.0,193.39146043,3_D,training,01,1_A,50.0,01011,ignore,0.0,2600.0,1.0277334464
50,3_16_1,16,1.0,196.891626245,3_D,training,01,1_A,51.0,10010,kill,0.0,2500.0,1.72150418931
51,3_16_1,16,1.0,200.657436724,3_D,training,01,1_A,52.0,10011,kill,0.0,2400.0,2.00315208927
52,3_16_1,16,1.0,203.345054671,3_D,training,01,1_A,53.0,11100,ignore,1.0,2500.0,0.921227275001
53,3_16_1,16,1.0,205.985809505,3_D,training,01,1_A,54.0,11110,kill,1.0,2600.0,0.884523459783
54,3_16_1,16,1.0,208.579772747,3_D,training,01,1_A,55.0,10100,ignore,1.0,2700.0,0.815481543534
55,3_16_1,16,1.0,211.439223819,3_D,training,01,1_A,56.0,10110,kill,1.0,2800.0,1.09414028273
56,3_16_1,16,1.0,214.439362693,3_D,training,01,1_A,57.0,11101,ignore,1.0,2900.0,1.24164702758
57,3_16_1,16,1.0,217.892653849,3_D,training,01,1_A,58.0,00011,ignore,0.0,2800.0,1.67056465632
58,3_16_1,16,1.0,221.330316376,3_D,training,01,1_A,59.0,11010,ignore,1.0,2900.0,1.69105227439
59,3_16_1,16,1.0,224.033585081,3_D,training,01,1_A,60.0,01111,kill,1.0,3000.0,0.942092707603
60,3_16_1,16,1.0,226.752450342,3_D,training,01,1_A,61.0,00110,kill,1.0,3100.0,0.935402696403
61,3_16_1,16,1.0,229.221365315,3_D,training,01,1_A,62.0,10111,ignore,0.0,3000.0,0.697054008873
62,3_16_1,16,1.0,232.177800542,3_D,training,01,1_A,63.0,11111,kill,1.0,3100.0,1.20433383409
63,3_16_1,16,1.0,234.652923476,3_D,training,01,1_A,64.0,00000,ignore,1.0,3200.0,0.682526430981
64,3_16_1,16,1.0,237.059318163,3_D,training,01,1_A,65.0,00100,ignore,1.0,3300.0,0.613828653095
65,3_16_1,16,1.0,239.77819465,3_D,training,01,1_A,66.0,10001,ignore,1.0,3400.0,0.931768236125
66,3_16_1,16,1.0,243.825258216,3_D,training,01,1_A,67.0,01111,kill,1.0,3500.0,2.29374085131
67,3_16_1,16,1.0,246.716014012,3_D,training,01,1_A,68.0,11101,ignore,1.0,3600.0,1.12021782387
68,3_16_1,16,1.0,249.263082389,3_D,training,01,1_A,69.0,11100,ignore,1.0,3700.0,0.794454144605
69,3_16_1,16,1.0,252.810040437,3_D,training,01,1_A,70.0,10111,ignore,0.0,3600.0,1.77021917091
70,3_16_1,16,1.0,256.028948675,3_D,training,01,1_A,71.0,00001,ignore,1.0,3700.0,1.44151251535
71,3_16_1,16,1.0,258.544658447,3_D,training,01,1_A,72.0,10000,ignore,1.0,3800.0,0.758596403
72,3_16_1,16,1.0,261.107302212,3_D,training,01,1_A,73.0,01000,ignore,1.0,3900.0,0.791291471396
73,3_16_1,16,1.0,264.48247396,3_D,training,01,1_A,74.0,11111,kill,1.0,4000.0,1.60708283567
74,3_16_1,16,1.0,267.111082281,3_D,training,01,1_A,75.0,01001,ignore,1.0,4100.0,0.877586810748
75,3_16_1,16,1.0,270.579899113,3_D,training,01,1_A,76.0,11010,ignore,1.0,4200.0,1.71472277138
76,3_16_1,16,1.0,273.142505994,3_D,training,01,1_A,77.0,10110,kill,1.0,4300.0,0.788736893555
77,3_16_1,16,1.0,276.643163802,3_D,training,01,1_A,78.0,10011,kill,0.0,4200.0,1.72389038632
78,3_16_1,16,1.0,279.190150074,3_D,training,01,1_A,79.0,01101,ignore,1.0,4300.0,0.773058232186
79,3_16_1,16,1.0,281.705913086,3_D,training,01,1_A,80.0,11011,ignore,1.0,4400.0,0.74935726629
80,3_16_1,16,1.0,284.11229302,3_D,training,01,1_A,81.0,11001,ignore,1.0,4500.0,0.63860276619
81,3_16_1,16,1.0,287.06549309,3_D,training,01,1_A,82.0,01110,kill,1.0,4600.0,1.19744529387
82,3_16_1,16,1.0,290.018780717,3_D,training,01,1_A,83.0,10010,ignore,1.0,4700.0,1.18826035975
83,3_16_1,16,1.0,293.050209562,3_D,training,01,1_A,84.0,11110,kill,1.0,4800.0,1.27605573181
84,3_16_1,16,1.0,295.987821736,3_D,training,01,1_A,85.0,10101,ignore,1.0,4900.0,1.1678336795
85,3_16_1,16,1.0,298.878540327,3_D,training,01,1_A,86.0,01011,ignore,0.0,4800.0,1.11262272557
86,3_16_1,16,1.0,302.363067892,3_D,training,01,1_A,87.0,00000,ignore,1.0,4900.0,1.70576234504
87,3_16_1,16,1.0,305.035092812,3_D,training,01,1_A,88.0,01100,ignore,1.0,5000.0,0.88373126803
88,3_16_1,16,1.0,307.519562967,3_D,training,01,1_A,89.0,10100,ignore,1.0,5100.0,0.710710175845
89,3_16_1,16,1.0,311.394760694,3_D,training,01,1_A,90.0,01010,kill,1.0,5200.0,2.09795819793
90,3_16_1,16,1.0,314.144891229,3_D,training,01,1_A,91.0,11000,ignore,1.0,5300.0,0.971555184653
91,3_16_1,16,1.0,316.879421039,3_D,training,01,1_A,92.0,00010,kill,1.0,5400.0,0.947157282455
92,3_16_1,16,1.0,319.504545641,3_D,training,01,1_A,93.0,00110,kill,1.0,5500.0,0.851401185144
93,3_16_1,16,1.0,322.379692052,3_D,training,01,1_A,94.0,00101,ignore,1.0,5600.0,1.08805515964
94,3_16_1,16,1.0,327.145498683,3_D,training,01,1_A,95.0,00111,kill,1.0,5700.0,2.99495178214
95,3_16_1,16,1.0,330.989474434,3_D,training,01,1_A,96.0,00011,kill,1.0,5800.0,2.04819284064
96,3_16_1,16,1.0,333.58333312,3_D,training,01,1_A,97.0,00111,kill,1.0,5900.0,0.827871486614
97,3_16_1,16,1.0,336.052205436,3_D,training,01,1_A,98.0,01000,ignore,1.0,6000.0,0.698216317738
98,3_16_1,16,1.0,338.66168826,3_D,training,01,1_A,99.0,11000,ignore,1.0,6100.0,0.845609525801
99,3_16_1,16,1.0,341.411828417,3_D,training,01,1_A,100.0,00001,ignore,1.0,6200.0,0.978586768408
100,3_16_1,16,1.0,344.568200012,3_D,training,01,1_A,101.0,01010,kill,1.0,6300.0,1.39529085304
101,3_16_1,16,1.0,347.427723247,3_D,training,01,1_A,102.0,10000,ignore,1.0,6400.0,1.08982331879
102,3_16_1,16,1.0,350.052844963,3_D,training,01,1_A,103.0,11100,ignore,1.0,6500.0,0.853393210629
103,3_16_1,16,1.0,353.021782387,3_D,training,01,1_A,104.0,11011,ignore,1.0,6600.0,1.20305542263
104,3_16_1,16,1.0,355.72497957,3_D,training,01,1_A,105.0,11001,ignore,1.0,6700.0,0.945400669418
105,3_16_1,16,1.0,358.631386124,3_D,training,01,1_A,106.0,10111,kill,1.0,6800.0,1.12261107683
106,3_16_1,16,1.0,361.085850814,3_D,training,01,1_A,107.0,11110,kill,1.0,6900.0,0.684939568921
107,3_16_1,16,1.0,363.586032665,3_D,training,01,1_A,108.0,10110,kill,1.0,7000.0,0.720157142619
108,3_16_1,16,1.0,366.929941705,3_D,training,01,1_A,109.0,10010,ignore,1.0,7100.0,1.5782550742
109,3_16_1,16,1.0,369.664413464,3_D,training,01,1_A,110.0,00100,ignore,1.0,7200.0,0.961316026136
110,3_16_1,16,1.0,372.586478153,3_D,training,01,1_A,111.0,11010,ignore,1.0,7300.0,1.17892083599
111,3_16_1,16,1.0,375.852227374,3_D,training,01,1_A,112.0,11111,kill,1.0,7400.0,1.50718264542
112,3_16_1,16,1.0,379.133619014,3_D,training,01,1_A,113.0,00110,kill,1.0,7500.0,1.50989373726
113,3_16_1,16,1.0,382.593231026,3_D,training,01,1_A,114.0,00011,kill,1.0,7600.0,1.67112913302
114,3_16_1,16,1.0,385.124580652,3_D,training,01,1_A,115.0,10100,ignore,1.0,7700.0,0.762183395917
115,3_16_1,16,1.0,387.843448157,3_D,training,01,1_A,116.0,01111,kill,1.0,7800.0,0.972409597129
116,3_16_1,16,1.0,390.468569873,3_D,training,01,1_A,117.0,01001,ignore,1.0,7900.0,0.852599735979
117,3_16_1,16,1.0,393.187424549,3_D,training,01,1_A,118.0,11101,ignore,1.0,8000.0,0.961764720974
118,3_16_1,16,1.0,396.437599345,3_D,training,01,1_A,119.0,01011,kill,1.0,8100.0,1.49086670267
119,3_16_1,16,1.0,399.359625867,3_D,training,01,1_A,120.0,00010,kill,1.0,8200.0,1.15816990236
120,3_16_1,16,1.0,401.80298512,3_D,training,01,1_A,121.0,00000,ignore,1.0,8300.0,0.679074463456
121,3_16_1,16,1.0,404.58436778,3_D,training,01,1_A,122.0,10001,ignore,1.0,8400.0,1.01100537151
122,3_16_1,16,1.0,407.912644022,3_D,training,01,1_A,123.0,10011,ignore,1.0,8500.0,1.57022250646
123,3_16_1,16,1.0,410.725282655,3_D,training,01,1_A,124.0,01101,ignore,1.0,8600.0,1.03395872649
124,3_16_1,16,1.0,413.194183517,3_D,training,01,1_A,125.0,01100,ignore,1.0,8700.0,0.694955823285
125,3_16_1,16,1.0,415.584898259,3_D,training,01,1_A,126.0,10101,ignore,1.0,8800.0,0.618124449153
126,3_16_1,16,1.0,417.944348049,3_D,training,01,1_A,127.0,00101,ignore,1.0,8900.0,0.592938524638
127,3_16_1,16,1.0,421.272663419,3_D,training,01,1_A,128.0,01110,kill,1.0,9000.0,1.56894024629
128,3_16_1,16,1.0,424.24158609,3_D,training,01,1_A,129.0,00011,kill,1.0,9100.0,1.2088284799
129,3_16_1,16,1.0,426.97606298,3_D,training,01,1_A,130.0,01101,ignore,1.0,9200.0,0.951078150516
130,3_16_1,16,1.0,429.618591105,3_D,training,01,1_A,131.0,10110,ignore,0.0,9100.0,0.888777882265
131,3_16_1,16,1.0,432.556242728,3_D,training,01,1_A,132.0,10111,kill,1.0,9200.0,1.15627152869
132,3_16_1,16,1.0,435.665782641,3_D,training,01,1_A,133.0,11010,ignore,1.0,9300.0,1.35675697866
133,3_16_1,16,1.0,438.150231949,3_D,training,01,1_A,134.0,11110,kill,1.0,9400.0,0.742077441071
134,3_16_1,16,1.0,441.244127197,3_D,training,01,1_A,135.0,01010,kill,1.0,9500.0,1.33690664197
135,3_16_1,16,1.0,443.728640971,3_D,training,01,1_A,136.0,01000,ignore,1.0,9600.0,0.731179191847
136,3_16_1,16,1.0,446.713142237,3_D,training,01,1_A,137.0,00101,ignore,1.0,9700.0,1.2120642785
137,3_16_1,16,1.0,449.978930265,3_D,training,01,1_A,138.0,00111,kill,1.0,9800.0,1.48257274373
138,3_16_1,16,1.0,452.635309878,3_D,training,01,1_A,139.0,11101,ignore,1.0,9900.0,0.902363489648
139,3_16_1,16,1.0,455.322942258,3_D,training,01,1_A,140.0,01011,kill,1.0,10000.0,0.913947449782
140,3_16_1,16,1.0,458.043132435,3_D,training,01,1_A,141.0,01111,kill,1.0,10100.0,0.947750303727
141,3_16_1,16,1.0,460.824504832,3_D,training,01,1_A,142.0,00010,kill,1.0,10200.0,1.02109346836
142,3_16_1,16,1.0,463.512092631,3_D,training,01,1_A,143.0,10100,ignore,1.0,10300.0,0.898484957339
143,3_16_1,16,1.0,466.840390041,3_D,training,01,1_A,144.0,01100,ignore,1.0,10400.0,1.56582792697
144,3_16_1,16,1.0,469.621769493,3_D,training,01,1_A,145.0,01110,kill,1.0,10500.0,1.01418343954
145,3_16_1,16,1.0,472.2781552,3_D,training,01,1_A,146.0,01001,ignore,1.0,10600.0,0.883953530738
146,3_16_1,16,1.0,475.387663041,3_D,training,01,1_A,147.0,11011,ignore,1.0,10700.0,1.36033338764
147,3_16_1,16,1.0,478.044052596,3_D,training,01,1_A,148.0,11000,ignore,1.0,10800.0,0.889237161042
148,3_16_1,16,1.0,480.466041274,3_D,training,01,1_A,149.0,00000,ignore,1.0,10900.0,0.660889974512
149,3_16_1,16,1.0,483.044290895,3_D,training,01,1_A,150.0,11001,ignore,1.0,11000.0,0.809693732896
150,3_16_1,16,1.0,485.747524,3_D,training,01,1_A,151.0,00001,ignore,1.0,11100.0,0.920055023649
151,3_16_1,16,1.0,488.247689494,3_D,training,01,1_A,152.0,10001,ignore,1.0,11200.0,0.738758574593
152,3_16_1,16,1.0,490.794677049,3_D,training,01,1_A,153.0,11100,ignore,1.0,11300.0,0.780413427874
153,3_16_1,16,1.0,493.732289543,3_D,training,01,1_A,154.0,00110,kill,1.0,11400.0,1.18912343181
154,3_16_1,16,1.0,496.654334989,3_D,training,01,1_A,155.0,10010,ignore,1.0,11500.0,1.14869118377
155,3_16_1,16,1.0,499.685711555,3_D,training,01,1_A,156.0,00100,ignore,1.0,11600.0,1.25292341206
156,3_16_1,16,1.0,502.763988118,3_D,training,01,1_A,157.0,11111,kill,1.0,11700.0,1.32227418687
157,3_16_1,16,1.0,505.576602697,3_D,training,01,1_A,158.0,10011,ignore,1.0,11800.0,1.04366066996
158,3_16_1,16,1.0,508.483028495,3_D,training,01,1_A,159.0,10101,ignore,1.0,11900.0,1.13748856614
159,3_16_1,16,1.0,511.114434183,3_D,training,01,1_A,160.0,10000,ignore,1.0,12000.0,0.86692782267
160,3_16_1,16,1.0,513.802005624,3_D,training,01,1_A,161.0,11101,ignore,1.0,12100.0,0.927425934882
161,3_16_1,16,1.0,516.677146904,3_D,training,01,1_A,162.0,00111,kill,1.0,12200.0,1.10605009988
162,3_16_1,16,1.0,520.474228431,3_D,training,01,1_A,163.0,00010,kill,1.0,12300.0,2.03705051938
163,3_16_1,16,1.0,523.099312942,3_D,training,01,1_A,164.0,01110,kill,1.0,12400.0,0.849633025991
164,3_16_1,16,1.0,526.693260148,3_D,training,01,1_A,165.0,00101,ignore,1.0,12500.0,1.82211414489
165,3_16_1,16,1.0,529.146481386,3_D,training,01,1_A,166.0,01000,ignore,1.0,12600.0,0.691856012254
166,3_16_1,16,1.0,532.11537904,3_D,training,01,1_A,167.0,00110,kill,1.0,12700.0,1.2165486611
167,3_16_1,16,1.0,534.974885277,3_D,training,01,1_A,168.0,01101,ignore,1.0,12800.0,1.10391471014
168,3_16_1,16,1.0,538.459454857,3_D,training,01,1_A,169.0,01001,ignore,1.0,12900.0,1.69806301099
169,3_16_1,16,1.0,541.068923248,3_D,training,01,1_A,170.0,10100,ignore,1.0,13000.0,0.860149932712
170,3_16_1,16,1.0,543.725305427,3_D,training,01,1_A,171.0,10101,ignore,1.0,13100.0,0.864530721003
171,3_16_1,16,1.0,546.319161226,3_D,training,01,1_A,172.0,01100,ignore,1.0,13200.0,0.845680085389
172,3_16_1,16,1.0,549.225544047,3_D,training,01,1_A,173.0,10011,ignore,1.0,13300.0,1.13930675845
173,3_16_1,16,1.0,552.100705852,3_D,training,01,1_A,174.0,11111,kill,1.0,13400.0,1.10857324663
174,3_16_1,16,1.0,555.475891713,3_D,training,01,1_A,175.0,11010,ignore,1.0,13500.0,1.61599707755
175,3_16_1,16,1.0,558.413499396,3_D,training,01,1_A,176.0,11011,ignore,1.0,13600.0,1.16593723019
176,3_16_1,16,1.0,561.288654467,3_D,training,01,1_A,177.0,01011,kill,1.0,13700.0,1.11827358647
177,3_16_1,16,1.0,563.929384284,3_D,training,01,1_A,178.0,00000,ignore,1.0,13800.0,0.847839529535
178,3_16_1,16,1.0,566.679527969,3_D,training,01,1_A,179.0,01010,kill,1.0,13900.0,0.980983870078
179,3_16_1,16,1.0,569.476537975,3_D,training,01,1_A,180.0,11110,kill,1.0,14000.0,1.06137786199
180,3_16_1,16,1.0,572.054783748,3_D,training,01,1_A,181.0,10111,kill,1.0,14100.0,0.802242319591
181,3_16_1,16,1.0,575.180060694,3_D,training,01,1_A,182.0,00001,ignore,1.0,14200.0,1.36945417668
182,3_16_1,16,1.0,577.711311536,3_D,training,01,1_A,183.0,10000,ignore,1.0,14300.0,0.761519173608
183,3_16_1,16,1.0,580.508378951,3_D,training,01,1_A,184.0,11100,ignore,1.0,14400.0,1.0261881914
184,3_16_1,16,1.0,584.008575877,3_D,training,01,1_A,185.0,10110,kill,1.0,14500.0,1.74457845777
185,3_16_1,16,1.0,586.774284686,3_D,training,01,1_A,186.0,11000,ignore,1.0,14600.0,1.01831053403
186,3_16_1,16,1.0,590.149440719,3_D,training,01,1_A,187.0,10010,ignore,1.0,14700.0,1.6087130829
187,3_16_1,16,1.0,593.196488249,3_D,training,01,1_A,188.0,00011,kill,1.0,14800.0,1.27924727031
188,3_16_1,16,1.0,596.634140193,3_D,training,01,1_A,189.0,11001,ignore,1.0,14900.0,1.66667104991
189,3_16_1,16,1.0,600.791451513,3_D,training,01,1_A,190.0,01111,kill,1.0,15000.0,2.40721766863
190,3_16_1,16,1.0,603.432209234,3_D,training,01,1_A,191.0,10001,ignore,1.0,15100.0,0.860346537382
191,3_16_1,16,1.0,606.119802484,3_D,training,01,1_A,192.0,00100,ignore,1.0,15200.0,0.888170749073
192,3_16_1,16,1.0,608.963679131,3_D,training,01,1_A,193.0,00111,kill,1.0,15300.0,1.06725900372
193,3_16_1,16,1.0,611.776315199,3_D,training,01,1_A,194.0,11100,ignore,1.0,15400.0,1.05564265032
194,3_16_1,16,1.0,615.057737949,3_D,training,01,1_A,195.0,01110,kill,1.0,15500.0,1.52528342504
195,3_16_1,16,1.0,617.77661219,3_D,training,01,1_A,196.0,00101,ignore,1.0,15600.0,0.925718392835
196,3_16_1,16,1.0,620.792366222,3_D,training,01,1_A,197.0,11111,kill,1.0,15700.0,1.23160928462
197,3_16_1,16,1.0,623.49561857,3_D,training,01,1_A,198.0,11101,ignore,1.0,15800.0,0.941111929318
198,3_16_1,16,1.0,626.120764981,3_D,training,01,1_A,199.0,01011,kill,1.0,15900.0,0.862904643207
199,3_16_1,16,1.0,629.464691982,3_D,training,01,1_A,200.0,10011,ignore,1.0,16000.0,1.58023427066
200,3_16_1,16,1.0,632.136697016,3_D,training,01,1_A,201.0,01100,ignore,1.0,16100.0,0.907434799734
201,3_16_1,16,1.0,634.543038463,3_D,training,01,1_A,202.0,01000,ignore,1.0,16200.0,0.630158066306
202,3_16_1,16,1.0,637.340040771,3_D,training,01,1_A,203.0,10110,kill,1.0,16300.0,1.04436209641
203,3_16_1,16,1.0,640.012076915,3_D,training,01,1_A,204.0,01111,kill,1.0,16400.0,0.914716870029
204,3_16_1,16,1.0,642.559068318,3_D,training,01,1_A,205.0,00110,kill,1.0,16500.0,0.764609683596
205,3_16_1,16,1.0,645.277952823,3_D,training,01,1_A,206.0,00000,ignore,1.0,16600.0,0.949113707418
206,3_16_1,16,1.0,647.699883128,3_D,training,01,1_A,207.0,10100,ignore,1.0,16700.0,0.62942039788
207,3_16_1,16,1.0,650.184382469,3_D,training,01,1_A,208.0,11010,ignore,1.0,16800.0,0.731950536447
208,3_16_1,16,1.0,653.294025655,3_D,training,01,1_A,209.0,00010,kill,1.0,16900.0,1.33317981277
209,3_16_1,16,1.0,656.122155967,3_D,training,01,1_A,210.0,11000,ignore,1.0,17000.0,1.0465157675
210,3_16_1,16,1.0,659.284913205,3_D,training,01,1_A,211.0,00011,kill,1.0,17100.0,1.39617188572
211,3_16_1,16,1.0,661.956920164,3_D,training,01,1_A,212.0,00100,ignore,1.0,17200.0,0.8897807906
212,3_16_1,16,1.0,664.394537148,3_D,training,01,1_A,213.0,00001,ignore,1.0,17300.0,0.669394008593
213,3_16_1,16,1.0,667.347778271,3_D,training,01,1_A,214.0,10010,ignore,1.0,17400.0,1.17748077893
214,3_16_1,16,1.0,670.129159007,3_D,training,01,1_A,215.0,10000,ignore,1.0,17500.0,1.0010882213
215,3_16_1,16,1.0,672.754290985,3_D,training,01,1_A,216.0,11011,ignore,1.0,17600.0,0.872806398602
216,3_16_1,16,1.0,675.207517354,3_D,training,01,1_A,217.0,10001,ignore,1.0,17700.0,0.676432327582
217,3_16_1,16,1.0,677.754498495,3_D,training,01,1_A,218.0,01101,ignore,1.0,17800.0,0.785387558164
218,3_16_1,16,1.0,680.160890295,3_D,training,01,1_A,219.0,11001,ignore,1.0,17900.0,0.649974085387
219,3_16_1,16,1.0,682.489156274,3_D,training,01,1_A,220.0,10101,ignore,1.0,18000.0,0.550566208629
220,3_16_1,16,1.0,685.379874224,3_D,training,01,1_A,221.0,10111,kill,1.0,18100.0,1.13652959718
221,3_16_1,16,1.0,688.17691085,3_D,training,01,1_A,222.0,01010,kill,1.0,18200.0,1.03448631978
222,3_16_1,16,1.0,690.927020217,3_D,training,01,1_A,223.0,11110,kill,1.0,18300.0,1.01713699978
223,3_16_1,16,1.0,693.692780343,3_D,training,01,1_A,224.0,01001,ignore,1.0,18400.0,1.00740298377
224,3_16_1,16,1.0,696.364770303,3_D,training,01,1_A,225.0,10100,ignore,1.0,18500.0,0.910468541329
225,3_16_1,16,1.0,698.692994908,3_D,training,01,1_A,226.0,11101,ignore,1.0,18600.0,0.545796380422
226,3_16_1,16,1.0,701.443167138,3_D,training,01,1_A,227.0,11110,kill,1.0,18700.0,1.00368866287
227,3_16_1,16,1.0,704.240185161,3_D,training,01,1_A,228.0,00111,kill,1.0,18800.0,1.01793400241
228,3_16_1,16,1.0,706.724664297,3_D,training,01,1_A,229.0,01000,ignore,1.0,18900.0,0.729166319212
229,3_16_1,16,1.0,709.412374612,3_D,training,01,1_A,230.0,10011,ignore,1.0,19000.0,0.91487017677
230,3_16_1,16,1.0,711.928126078,3_D,training,01,1_A,231.0,11100,ignore,1.0,19100.0,0.766126394035
231,3_16_1,16,1.0,714.418901695,3_D,training,01,1_A,232.0,00100,ignore,1.0,19200.0,0.701175971768
232,3_16_1,16,1.0,717.575293817,3_D,training,01,1_A,233.0,01011,kill,1.0,19300.0,1.39317278247
233,3_16_1,16,1.0,720.637977031,3_D,training,01,1_A,234.0,01101,ignore,1.0,19400.0,1.30455025959
234,3_16_1,16,1.0,723.500589814,3_D,training,01,1_A,235.0,00110,kill,1.0,19500.0,1.08262592
235,3_16_1,16,1.0,726.016332941,3_D,training,01,1_A,236.0,10001,ignore,1.0,19600.0,0.734537186829
236,3_16_1,16,1.0,728.657100604,3_D,training,01,1_A,237.0,11011,ignore,1.0,19700.0,0.871766606841
237,3_16_1,16,1.0,731.969756557,3_D,training,01,1_A,238.0,00001,ignore,1.0,19800.0,1.53211006526
238,3_16_1,16,1.0,735.032400963,3_D,training,01,1_A,239.0,01110,kill,1.0,19900.0,1.32610910052
239,3_16_1,16,1.0,738.454444484,3_D,training,01,1_A,240.0,10111,kill,1.0,20000.0,1.63959284552
240,3_16_1,16,1.0,741.204544551,3_D,training,01,1_A,241.0,01010,kill,1.0,20100.0,1.00551872202
241,3_16_1,16,1.0,744.064085105,3_D,training,01,1_A,242.0,01100,ignore,1.0,20200.0,1.09241702513
242,3_16_1,16,1.0,746.782958063,3_D,training,01,1_A,243.0,01111,kill,1.0,20300.0,0.952172465597
243,3_16_1,16,1.0,749.501834229,3_D,training,01,1_A,244.0,10010,ignore,1.0,20400.0,0.969750142081
244,3_16_1,16,1.0,752.158258423,3_D,training,01,1_A,245.0,01001,ignore,1.0,20500.0,0.906023928681
245,3_16_1,16,1.0,755.439649421,3_D,training,01,1_A,246.0,10000,ignore,1.0,20600.0,1.50113151922
246,3_16_1,16,1.0,758.377260633,3_D,training,01,1_A,247.0,11111,kill,1.0,20700.0,1.16778236344
247,3_16_1,16,1.0,763.143106072,3_D,training,01,1_A,248.0,00011,kill,1.0,20800.0,2.99142219907
248,3_16_1,16,1.0,766.111999877,3_D,training,01,1_A,249.0,10101,ignore,1.0,20900.0,1.19784876643
249,3_16_1,16,1.0,768.518382377,3_D,training,01,1_A,250.0,11000,ignore,1.0,21000.0,0.636195080584
250,3_16_1,16,1.0,771.627855899,3_D,training,01,1_A,251.0,00010,kill,1.0,21100.0,1.36247070173
251,3_16_1,16,1.0,774.721755638,3_D,training,01,1_A,252.0,11010,ignore,1.0,21200.0,1.35649622891
252,3_16_1,16,1.0,777.909456973,3_D,training,01,1_A,253.0,10110,kill,1.0,21300.0,1.39653911631
253,3_16_1,16,1.0,780.862676287,3_D,training,01,1_A,254.0,11001,ignore,1.0,21400.0,1.21181988574
254,3_16_1,16,1.0,783.58157362,3_D,training,01,1_A,255.0,00000,ignore,1.0,21500.0,0.913433326961
255,3_16_1,16,1.0,786.14417537,3_D,training,01,1_A,256.0,00101,ignore,1.0,21600.0,0.778335768708
256,3_16_1,16,1.0,788.472444556,3_D,training,01,1_A,257.0,00000,ignore,1.0,21700.0,0.579801612093
257,3_16_1,16,1.0,791.144451194,3_D,training,01,1_A,258.0,00010,kill,1.0,21800.0,0.907665722025
258,3_16_1,16,1.0,793.89436524,3_D,training,01,1_A,259.0,01100,ignore,1.0,21900.0,0.999611601535
259,3_16_1,16,1.0,796.722614541,3_D,training,01,1_A,260.0,01110,kill,1.0,22000.0,1.08773507569
260,3_16_1,16,1.0,800.019613321,3_D,training,01,1_A,261.0,11111,kill,1.0,22100.0,1.53162224192
261,3_16_1,16,1.0,802.644744337,3_D,training,01,1_A,262.0,01001,ignore,1.0,22200.0,0.87764101334
262,3_16_1,16,1.0,805.957424665,3_D,training,01,1_A,263.0,00011,kill,1.0,22300.0,1.53713358726
263,3_16_1,16,1.0,808.457531146,3_D,training,01,1_A,264.0,11000,ignore,1.0,22400.0,0.763946102736
264,3_16_1,16,1.0,811.332650295,3_D,training,01,1_A,265.0,11001,ignore,1.0,22500.0,1.11720332579
265,3_16_1,16,1.0,814.348422929,3_D,training,01,1_A,266.0,10010,ignore,1.0,22600.0,1.25559954483
266,3_16_1,16,1.0,817.223620977,3_D,training,01,1_A,267.0,00111,kill,1.0,22700.0,1.11717413978
267,3_16_1,16,1.0,819.648760781,3_D,training,01,1_A,268.0,00001,ignore,1.0,22800.0,0.663225496897
268,3_16_1,16,1.0,822.977062361,3_D,training,01,1_A,269.0,10111,kill,1.0,22900.0,1.55570455033
269,3_16_1,16,1.0,825.617776141,3_D,training,01,1_A,270.0,11100,ignore,1.0,23000.0,0.909093270799
270,3_16_1,16,1.0,828.477307395,3_D,training,01,1_A,271.0,11011,ignore,1.0,23100.0,1.11313492404
271,3_16_1,16,1.0,831.102423658,3_D,training,01,1_A,272.0,00100,ignore,1.0,23200.0,0.803727598934
272,3_16_1,16,1.0,833.602530459,3_D,training,01,1_A,273.0,10000,ignore,1.0,23300.0,0.728354883944
273,3_16_1,16,1.0,835.946426991,3_D,training,01,1_A,274.0,10100,ignore,1.0,23400.0,0.562381091058
274,3_16_1,16,1.0,838.508985764,3_D,training,01,1_A,275.0,10001,ignore,1.0,23500.0,0.811771392062
275,3_16_1,16,1.0,840.752936241,3_D,training,01,1_A,276.0,10101,ignore,1.0,23600.0,0.457612930622
276,3_16_1,16,1.0,948.992486045,3_D,test,01,2,0.0,10110,ignore,0.0,0.0,6.13754020293
277,3_16_1,16,1.0,955.742823769,3_D,test,01,2,1.0,11010,ignore,1.0,100.0,4.99113065968
278,3_16_1,16,1.0,961.790001514,3_D,test,01,2,2.0,01101,ignore,1.0,200.0,4.2675690169
279,3_16_1,16,1.0,975.290630777,3_D,test,01,2,3.0,01111,kill,0.0,100.0,11.7578074185
280,3_16_1,16,1.0,983.947283328,3_D,test,01,2,4.0,01010,ignore,1.0,200.0,6.90253956789
281,3_16_1,16,1.0,989.74452201,3_D,test,01,2,5.0,01011,ignore,1.0,300.0,4.06214182991
282,3_16_1,16,1.0,993.885331688,3_D,test,01,2,6.0,00101,ignore,1.0,400.0,2.36869598182
283,3_16_1,16,1.0,998.698055955,3_D,test,01,2,7.0,11101,ignore,0.0,300.0,3.0559402835
284,3_16_1,16,1.0,1003.88636667,3_D,test,01,2,8.0,11110,kill,0.0,200.0,3.46066046341
285,3_16_1,16,1.0,1008.35532911,3_D,test,01,2,9.0,10011,kill,1.0,300.0,2.72000094935
286,3_16_1,16,1.0,1014.43375417,3_D,test,01,2,10.0,01000,ignore,1.0,400.0,4.30518273009
287,3_16_1,16,1.0,1023.49670679,3_D,test,01,2,11.0,00110,ignore,1.0,500.0,7.33008096392
288,3_16_1,16,1.0,1029.15328942,3_D,test,01,2,12.0,11001,ignore,0.0,400.0,3.9037984151
289,3_16_1,16,1.0,1034.40353061,3_D,test,01,2,13.0,00010,ignore,1.0,500.0,3.50574451271
290,3_16_1,16,1.0,1038.731854,3_D,test,01,2,14.0,00111,ignore,1.0,600.0,2.53740748676
291,3_16_1,16,1.0,1043.70084049,3_D,test,01,2,15.0,10001,kill,1.0,700.0,3.2096995701
292,3_16_1,16,1.0,1063.45179465,3_D,test,01,2,16.0,00000,kill,0.0,600.0,17.9994201285
293,3_16_1,16,1.0,1070.60837087,3_D,test,01,2,17.0,00100,kill,0.0,500.0,5.36852311083
294,3_16_1,16,1.0,1074.81174349,3_D,test,01,2,18.0,10101,kill,1.0,600.0,2.46215504379
295,3_16_1,16,1.0,1078.89002839,3_D,test,01,2,19.0,11110,kill,0.0,500.0,2.31452481966
296,3_16_1,16,1.0,1083.78085924,3_D,test,01,2,20.0,11111,ignore,0.0,400.0,3.13173090369
297,3_16_1,16,1.0,1091.87501459,3_D,test,01,2,21.0,00001,ignore,1.0,500.0,6.340505181
298,3_16_1,16,1.0,1105.98504906,3_D,test,01,2,22.0,11100,kill,0.0,400.0,12.3454764248
299,3_16_1,16,1.0,1114.26671685,3_D,test,01,2,23.0,01101,ignore,1.0,500.0,6.54734804992
300,3_16_1,16,1.0,1125.7359952,3_D,test,01,2,24.0,10110,ignore,0.0,400.0,9.72915445237
301,3_16_1,16,1.0,1129.47055773,3_D,test,01,2,25.0,00110,ignore,1.0,500.0,1.97213986707
302,3_16_1,16,1.0,1137.49025732,3_D,test,01,2,26.0,00101,ignore,1.0,600.0,6.2686017527
303,3_16_1,16,1.0,1144.84998967,3_D,test,01,2,27.0,11000,kill,0.0,500.0,5.62979853313
304,3_16_1,16,1.0,1167.55421863,3_D,test,01,2,28.0,11010,ignore,1.0,600.0,20.9776643621
305,3_16_1,16,1.0,1172.43050522,3_D,test,01,2,29.0,01000,ignore,1.0,700.0,3.13108528345
306,3_16_1,16,1.0,1178.25888185,3_D,test,01,2,30.0,11101,kill,1.0,800.0,4.06763585607
307,3_16_1,16,1.0,1184.91547571,3_D,test,01,2,31.0,10111,kill,1.0,900.0,4.91868680908
308,3_16_1,16,1.0,1189.91569572,3_D,test,01,2,32.0,10000,ignore,0.0,800.0,3.2711810264
309,3_16_1,16,1.0,1195.43159633,3_D,test,01,2,33.0,00011,ignore,1.0,900.0,3.74562466404
310,3_16_1,16,1.0,1200.96311562,3_D,test,01,2,34.0,10010,kill,1.0,1000.0,3.78580642554
311,3_16_1,16,1.0,1219.16709184,3_D,test,01,2,35.0,01110,kill,0.0,900.0,16.4555689476
312,3_16_1,16,1.0,1224.49545179,3_D,test,01,2,36.0,01111,kill,0.0,800.0,3.60209619709
313,3_16_1,16,1.0,1229.60507317,3_D,test,01,2,37.0,10100,kill,1.0,900.0,3.32633168395
314,3_16_1,16,1.0,1236.4022708,3_D,test,01,2,38.0,10011,kill,1.0,1000.0,5.02272724357
315,3_16_1,16,1.0,1243.08075385,3_D,test,01,2,39.0,01100,ignore,1.0,1100.0,4.93832290121
316,3_16_1,16,1.0,1247.2581894,3_D,test,01,2,40.0,01001,ignore,1.0,1200.0,2.41680832039
317,3_16_1,16,1.0,1252.24282217,3_D,test,01,2,41.0,01011,ignore,1.0,1300.0,3.24728121075
318,3_16_1,16,1.0,1255.93050233,3_D,test,01,2,42.0,11011,kill,1.0,1400.0,1.92312308287
319,3_16_1,16,1.0,1259.61815428,3_D,test,01,2,43.0,01010,ignore,1.0,1500.0,1.92477225289
320,3_16_1,16,1.0,1265.93095808,3_D,test,01,2,44.0,01110,ignore,1.0,1600.0,4.59179738365
321,3_16_1,16,1.0,1271.49376606,3_D,test,01,2,45.0,00100,ignore,1.0,1700.0,3.77975209209
322,3_16_1,16,1.0,1276.97481728,3_D,test,01,2,46.0,01001,ignore,1.0,1800.0,3.74664232575
323,3_16_1,16,1.0,1281.39688518,3_D,test,01,3,0.0,11000,kill,0.0,1700.0,2.69140795886
324,3_16_1,16,1.0,1286.13149645,3_D,test,01,3,1.0,11111,kill,0.0,1600.0,2.97376209616
325,3_16_1,16,1.0,1292.88181012,3_D,test,01,3,2.0,11010,kill,1.0,1700.0,5.03061484343
326,3_16_1,16,1.0,1304.02295688,3_D,test,01,3,3.0,00110,ignore,1.0,1800.0,9.40188079792
327,3_16_1,16,1.0,1314.69532947,3_D,test,01,3,4.0,10010,kill,1.0,1900.0,8.9149298317
328,3_16_1,16,1.0,1319.08616961,3_D,test,01,3,5.0,00000,ignore,0.0,1800.0,2.61521835627
329,3_16_1,16,1.0,1325.77398513,3_D,test,01,3,6.0,11101,kill,0.0,1700.0,4.91565980271
330,3_16_1,16,1.0,1330.64924219,3_D,test,01,3,7.0,01000,kill,1.0,1800.0,3.13217703273
331,3_16_1,16,1.0,1335.52445018,3_D,test,01,3,8.0,00101,ignore,1.0,1900.0,3.0833392133
332,3_16_1,16,1.0,1343.3998474,3_D,test,01,3,9.0,11011,kill,1.0,2000.0,6.10124050172
333,3_16_1,16,1.0,1351.94713611,3_D,test,01,3,10.0,10111,ignore,1.0,2100.0,6.78889853916
334,3_16_1,16,1.0,1357.93180191,3_D,test,01,3,11.0,10101,ignore,1.0,2200.0,4.19891036752
335,3_16_1,16,1.0,1364.72898639,3_D,test,01,3,12.0,10110,ignore,1.0,2300.0,5.06014788007
336,3_16_1,16,1.0,1368.68230128,3_D,test,01,3,13.0,10000,kill,0.0,2200.0,2.17326067406
337,3_16_1,16,1.0,1374.83882779,3_D,test,01,3,14.0,00111,ignore,1.0,2300.0,4.36390274066
338,3_16_1,16,1.0,1387.23005056,3_D,test,01,3,15.0,01100,ignore,1.0,2400.0,10.658582676
339,3_16_1,16,1.0,1392.55915491,3_D,test,01,3,16.0,11100,ignore,1.0,2500.0,3.55180934029
340,3_16_1,16,1.0,1396.55935088,3_D,test,01,3,17.0,01101,ignore,1.0,2600.0,2.26328797421
341,3_16_1,16,1.0,1400.70019263,3_D,test,01,3,18.0,10001,kill,0.0,2500.0,2.39591819193
342,3_16_1,16,1.0,1405.70038795,3_D,test,01,3,19.0,01111,ignore,1.0,2600.0,3.24259060172
343,3_16_1,16,1.0,1409.93499698,3_D,test,01,3,20.0,00011,kill,1.0,2700.0,2.49502907697
344,3_16_1,16,1.0,1413.41955437,3_D,test,01,3,21.0,10100,ignore,1.0,2800.0,1.73847024246
345,3_16_1,16,1.0,1417.93533823,3_D,test,01,3,22.0,11110,ignore,1.0,2900.0,2.78019308952
346,3_16_1,16,1.0,1422.85752736,3_D,test,01,3,23.0,00001,kill,1.0,3000.0,3.17968865261
347,3_16_1,16,1.0,1433.57673452,3_D,test,01,3,24.0,01011,kill,1.0,3100.0,8.94606906116
348,3_16_1,16,1.0,1438.78013343,3_D,test,01,3,25.0,01010,kill,1.0,3200.0,3.47868843836
349,3_16_1,16,1.0,1450.67128565,3_D,test,01,3,26.0,11001,ignore,1.0,3300.0,10.1533933389
350,3_16_1,16,1.0,1457.28100485,3_D,test,01,3,27.0,00010,kill,1.0,3400.0,4.8355801217
351,3_16_1,16,1.0,1461.34365791,3_D,test,01,3,28.0,10011,kill,1.0,3500.0,2.3102896407
352,3_16_1,16,1.0,1464.34380705,3_D,test,01,4,0.0,01011,kill,0.0,3400.0,1.23231006962
353,3_16_1,16,1.0,1470.86291683,3_D,test,01,4,1.0,01001,kill,0.0,3300.0,4.7908937719
354,3_16_1,16,1.0,1474.70687173,3_D,test,01,4,2.0,10110,ignore,0.0,3200.0,2.07582974869
355,3_16_1,16,1.0,1482.14471355,3_D,test,01,4,3.0,10101,kill,1.0,3300.0,5.66233804971
356,3_16_1,16,1.0,1488.47317324,3_D,test,01,4,4.0,01000,ignore,1.0,3400.0,4.59298759562
357,3_16_1,16,1.0,1493.6296324,3_D,test,01,4,5.0,11111,kill,0.0,3300.0,3.36504356092
358,3_16_1,16,1.0,1510.41171873,3_D,test,01,4,6.0,00010,ignore,1.0,3400.0,15.0441760757
359,3_16_1,16,1.0,1514.30248639,3_D,test,01,4,7.0,00011,ignore,0.0,3300.0,2.1182033476
360,3_16_1,16,1.0,1518.88085308,3_D,test,01,4,8.0,11100,ignore,1.0,3400.0,2.8077142157
361,3_16_1,16,1.0,1523.78734719,3_D,test,01,4,9.0,00100,ignore,0.0,3300.0,3.1413917943
362,3_16_1,16,1.0,1528.41254812,3_D,test,01,4,10.0,10010,ignore,1.0,3400.0,2.85244835359
363,3_16_1,16,1.0,1532.02212364,3_D,test,01,4,11.0,11000,ignore,1.0,3500.0,1.86525716405
364,3_16_1,16,1.0,1534.75660213,3_D,test,01,4,12.0,10000,ignore,1.0,3600.0,0.989488866337
365,3_16_1,16,1.0,1538.14980506,3_D,test,01,4,13.0,01101,kill,0.0,3500.0,1.60443524746
366,3_16_1,16,1.0,1543.02504096,3_D,test,01,4,14.0,01010,ignore,1.0,3600.0,3.16443174515
367,3_16_1,16,1.0,1549.88474284,3_D,test,01,4,15.0,11001,kill,0.0,3500.0,5.12511465933
368,3_16_1,16,1.0,1556.697563,3_D,test,01,4,16.0,00001,kill,1.0,3600.0,5.02715678213
369,3_16_1,16,1.0,1563.22910634,3_D,test,01,4,17.0,10011,kill,1.0,3700.0,4.76630567954
370,3_16_1,16,1.0,1572.85455712,3_D,test,01,4,18.0,00111,ignore,0.0,3600.0,7.8508854587
371,3_16_1,16,1.0,1585.16768101,3_D,test,01,4,19.0,11101,kill,0.0,3500.0,10.5635648885
372,3_16_1,16,1.0,1591.23043318,3_D,test,01,4,20.0,10001,kill,1.0,3600.0,4.2840498125
373,3_16_1,16,1.0,1597.38698118,3_D,test,01,4,21.0,01110,ignore,1.0,3700.0,4.39694900338
374,3_16_1,16,1.0,1604.76234568,3_D,test,01,4,22.0,01100,ignore,1.0,3800.0,5.62644502831
375,3_16_1,16,1.0,1611.70018108,3_D,test,01,4,23.0,11110,ignore,1.0,3900.0,5.17297554918
376,3_16_1,16,1.0,1617.35667231,3_D,test,01,4,24.0,11011,kill,0.0,3800.0,3.9154109198
377,3_16_1,16,1.0,1624.86329561,3_D,test,01,4,25.0,11010,ignore,1.0,3900.0,5.75536124585
378,3_16_1,16,1.0,1637.19203049,3_D,test,01,4,26.0,00000,ignore,1.0,4000.0,10.5523606673
379,3_16_1,16,1.0,1644.75488048,3_D,test,01,4,27.0,01111,ignore,1.0,4100.0,5.82662129899
380,3_16_1,16,1.0,1650.84042436,3_D,test,01,4,28.0,00101,kill,1.0,4200.0,4.30846343025
381,3_16_1,16,1.0,1655.73128439,3_D,test,01,4,29.0,10100,ignore,0.0,4100.0,3.15824174485
382,3_16_1,16,1.0,1667.24746114,3_D,test,01,4,30.0,10111,ignore,0.0,4000.0,9.75809190194
383,3_16_1,16,1.0,1671.77892462,3_D,test,01,4,31.0,00110,ignore,0.0,3900.0,2.75920161184
384,3_16_1,16,1.0,1681.99816994,3_D,test,01,4,32.0,11110,kill,0.0,3800.0,8.47200131369
385,3_16_1,16,1.0,1686.67025836,3_D,test,01,4,33.0,01100,ignore,1.0,3900.0,2.89399640531
386,3_16_1,16,1.0,1691.88927212,3_D,test,01,4,34.0,01110,kill,0.0,3800.0,3.4638292304
387,3_16_1,16,1.0,1702.93665834,3_D,test,01,4,35.0,00001,ignore,0.0,3700.0,9.29108973512
388,3_16_1,16,1.0,1708.03063537,3_D,test,01,4,36.0,10000,ignore,1.0,3800.0,3.31943544631
389,3_16_1,16,1.0,1712.14020415,3_D,test,01,4,37.0,11100,ignore,1.0,3900.0,2.36930664299
390,3_16_1,16,1.0,1716.68729433,3_D,test,01,4,38.0,00011,kill,1.0,4000.0,2.80919115619
391,3_16_1,16,1.0,1720.68751628,3_D,test,01,4,39.0,00100,ignore,0.0,3900.0,2.22201734996
392,3_16_1,16,1.0,1732.09427242,3_D,test,01,4,40.0,11111,ignore,1.0,4000.0,9.66016738017
393,3_16_1,16,1.0,1736.36015923,3_D,test,01,4,41.0,00111,kill,1.0,4100.0,2.47332623033
394,3_16_1,16,1.0,1741.90741652,3_D,test,01,4,42.0,10011,ignore,0.0,4000.0,3.81331857141
395,3_16_1,16,1.0,1746.92454422,3_D,test,01,4,43.0,10100,ignore,0.0,3900.0,3.21636616834
396,3_16_1,16,1.0,1752.98879899,3_D,test,01,4,44.0,00000,kill,0.0,3800.0,4.27614681783
397,3_16_1,16,1.0,1756.94208822,3_D,test,01,4,45.0,10001,ignore,0.0,3700.0,2.20682330468
398,3_16_1,16,1.0,1765.08313812,3_D,test,01,4,46.0,00010,ignore,1.0,3800.0,6.36390338211
399,3_16_1,16,1.0,1768.03638084,3_D,test,01,4,47.0,01010,ignore,1.0,3900.0,1.22602641751
400,3_16_1,16,1.0,1775.80238248,3_D,test,01,4,48.0,01000,ignore,1.0,4000.0,5.99935470049
401,3_16_1,16,1.0,1780.7244539,3_D,test,01,4,49.0,11000,ignore,1.0,4100.0,3.16301542176
402,3_16_1,16,1.0,1785.55594285,3_D,test,01,4,50.0,11011,kill,0.0,4000.0,3.1077396813
403,3_16_1,16,1.0,1790.39996094,3_D,test,01,4,51.0,10111,kill,1.0,4100.0,3.06909643957
404,3_16_1,16,1.0,1798.55657628,3_D,test,01,4,52.0,10101,ignore,0.0,4000.0,6.40832224692
405,3_16_1,16,1.0,1802.11926046,3_D,test,01,4,53.0,00101,kill,1.0,4100.0,1.78631445458
406,3_16_1,16,1.0,1806.44760886,3_D,test,01,4,54.0,10010,ignore,1.0,4200.0,2.54430981817
407,3_16_1,16,1.0,1810.65093787,3_D,test,01,4,55.0,11010,ignore,1.0,4300.0,2.46623242585
408,3_16_1,16,1.0,1815.65115211,3_D,test,01,4,56.0,01001,ignore,1.0,4400.0,3.26217537778
409,3_16_1,16,1.0,1820.4951285,3_D,test,01,4,57.0,11001,ignore,1.0,4500.0,3.08118682511
410,3_16_1,16,1.0,1823.88591862,3_D,test,01,4,58.0,01011,ignore,1.0,4600.0,1.65275156738
411,3_16_1,16,1.0,1828.94865603,3_D,test,01,4,59.0,10110,ignore,0.0,4500.0,3.29719827116
412,3_16_1,16,1.0,1832.95121735,3_D,test,01,4,60.0,01101,kill,0.0,4400.0,2.25157283738
413,3_16_1,16,1.0,1839.35780479,3_D,test,01,4,61.0,00110,kill,1.0,4500.0,4.63086526582
414,3_16_1,16,1.0,1844.17058262,3_D,test,01,4,62.0,01111,ignore,1.0,4600.0,3.05045844489
415,3_16_1,16,1.0,1848.40507426,3_D,test,01,4,63.0,11101,kill,0.0,4500.0,2.50289230169
416,3_16_1,16,1.0,1853.62407455,3_D,test,01,4,64.0,01010,ignore,1.0,4600.0,3.44955181832
417,3_16_1,16,1.0,1858.93684083,3_D,test,01,4,65.0,01101,ignore,1.0,4700.0,3.56498506061
418,3_16_1,16,1.0,1864.20273213,3_D,test,01,4,66.0,11101,ignore,1.0,4800.0,3.48290533598
419,3_16_1,16,1.0,1870.15610347,3_D,test,01,4,67.0,11000,ignore,1.0,4900.0,4.18861347842
420,3_16_1,16,1.0,1875.56262613,3_D,test,01,4,68.0,00100,ignore,0.0,4800.0,3.65814841376
421,3_16_1,16,1.0,1881.10977725,3_D,test,01,4,69.0,11111,ignore,1.0,4900.0,3.77287253218
422,3_16_1,16,1.0,1886.360055,3_D,test,01,4,70.0,00000,ignore,1.0,5000.0,3.49967863314
423,3_16_1,16,1.0,1889.28203373,3_D,test,01,5,0.0,01000,ignore,1.0,5100.0,1.16538077161
424,3_16_1,16,1.0,1897.52478438,3_D,test,01,5,1.0,00111,ignore,1.0,5200.0,6.46889605033
425,3_16_1,16,1.0,1903.40006164,3_D,test,01,5,2.0,01110,kill,0.0,5100.0,4.15066268283
426,3_16_1,16,1.0,1911.5410737,3_D,test,01,5,3.0,11100,ignore,1.0,5200.0,6.4062994318
427,3_16_1,16,1.0,1916.3850703,3_D,test,01,5,4.0,00110,ignore,1.0,5300.0,3.07280017652
428,3_16_1,16,1.0,1925.35424249,3_D,test,01,5,5.0,11001,ignore,0.0,5200.0,7.22055003124
429,3_16_1,16,1.0,1928.76069331,3_D,test,01,5,6.0,10101,kill,1.0,5300.0,1.62872891391
430,3_16_1,16,1.0,1938.93330419,3_D,test,01,5,7.0,01111,ignore,1.0,5400.0,8.45210607544
431,3_16_1,16,1.0,1943.48037513,3_D,test,01,5,8.0,11011,kill,1.0,5500.0,2.81284101128
432,3_16_1,16,1.0,1947.51184439,3_D,test,01,5,9.0,01001,ignore,1.0,5600.0,2.24969306579
433,3_16_1,16,1.0,1955.4497311,3_D,test,01,5,10.0,10100,kill,1.0,5700.0,6.18184553095
434,3_16_1,16,1.0,1960.69993958,3_D,test,01,5,11.0,01100,ignore,1.0,5800.0,3.48979355547
435,3_16_1,16,1.0,1967.8096421,3_D,test,01,5,12.0,10111,kill,1.0,5900.0,5.37270023849
436,3_16_1,16,1.0,1980.49774915,3_D,test,01,5,13.0,10011,ignore,0.0,5800.0,10.9208019931
437,3_16_1,16,1.0,1988.07626722,3_D,test,01,5,14.0,10110,kill,1.0,5900.0,5.80370707251
438,3_16_1,16,1.0,1995.84227366,3_D,test,01,5,15.0,00010,ignore,1.0,6000.0,6.03138105642
439,3_16_1,16,1.0,1999.42056081,3_D,test,01,5,16.0,11110,kill,0.0,5900.0,1.81822567009
440,3_16_1,16,1.0,2008.90538087,3_D,test,01,5,17.0,00101,ignore,1.0,6000.0,7.74483856608
441,3_16_1,16,1.0,2014.28062703,3_D,test,01,5,18.0,01011,ignore,1.0,6100.0,3.61305410125
442,3_16_1,16,1.0,2020.85909154,3_D,test,01,5,19.0,11010,kill,0.0,6000.0,4.82640801659
443,3_16_1,16,1.0,2027.96878893,3_D,test,01,5,20.0,00001,ignore,1.0,6100.0,5.38227709905
444,3_16_1,16,1.0,2032.14088088,3_D,test,01,5,21.0,00011,ignore,1.0,6200.0,2.41106060042
445,3_16_1,16,1.0,2037.42234019,3_D,test,01,5,22.0,10001,ignore,0.0,6100.0,3.53824393861
446,3_16_1,16,1.0,2046.12588985,3_D,test,01,5,23.0,10010,kill,1.0,6200.0,6.95457405742
447,3_16_1,16,1.0,2054.29815083,3_D,test,01,5,24.0,10000,kill,1.0,6300.0,6.38975577402
448,3_16_1,16,1.0,2059.7827714,3_D,test,01,5,25.0,10110,ignore,0.0,6200.0,3.7379330274
449,3_16_1,16,1.0,2065.48933203,3_D,test,01,5,26.0,10100,ignore,0.0,6100.0,3.97807392849
450,3_16_1,16,1.0,2070.98958925,3_D,test,01,5,27.0,10101,kill,1.0,6200.0,3.72789849169
451,3_16_1,16,1.0,2075.55229011,3_D,test,01,5,28.0,11011,kill,1.0,6300.0,2.81753001669
452,3_16_1,16,1.0,2079.81815607,3_D,test,01,5,29.0,11010,kill,0.0,6200.0,2.51024461085
453,3_16_1,16,1.0,2085.80277344,3_D,test,01,5,30.0,10001,kill,1.0,6300.0,4.24058318141
454,3_16_1,16,1.0,2089.52171343,3_D,test,01,5,31.0,11101,kill,1.0,6400.0,1.94754439802
455,3_16_1,16,1.0,2093.60003906,3_D,test,01,5,32.0,00001,ignore,1.0,6500.0,2.29111635533
456,3_16_1,16,1.0,2098.53779524,3_D,test,01,5,33.0,00000,ignore,1.0,6600.0,3.16584935143
457,3_16_1,16,1.0,2102.61610067,3_D,test,01,5,34.0,00110,ignore,1.0,6700.0,2.30765969239
458,3_16_1,16,1.0,2107.33504772,3_D,test,01,5,35.0,11000,kill,0.0,6600.0,2.98319783754
459,3_16_1,16,1.0,2113.2416002,3_D,test,01,5,36.0,11001,ignore,0.0,6500.0,4.14100467874
460,3_16_1,16,1.0,2117.20119169,3_D,test,01,5,37.0,00101,ignore,1.0,6600.0,2.19565789119
461,3_16_1,16,1.0,2124.06090223,3_D,test,01,5,38.0,10111,ignore,0.0,6500.0,5.11541431949
462,3_16_1,16,1.0,2127.57669186,3_D,test,01,5,39.0,00111,ignore,1.0,6600.0,1.74654867393
463,3_16_1,16,1.0,2132.7487976,3_D,test,01,5,40.0,11100,kill,0.0,6500.0,3.43722024727
464,3_16_1,16,1.0,2137.43979728,3_D,test,01,5,41.0,10011,kill,1.0,6600.0,2.95337614804
465,3_16_1,16,1.0,2142.01819571,3_D,test,01,5,42.0,10000,ignore,0.0,6500.0,2.80078526408
466,3_16_1,16,1.0,2146.42776398,3_D,test,01,5,43.0,01011,ignore,1.0,6600.0,2.69545455129
467,3_16_1,16,1.0,2151.1936261,3_D,test,01,5,44.0,01101,ignore,1.0,6700.0,3.0272209272
468,3_16_1,16,1.0,2154.72504917,3_D,test,01,5,45.0,01100,ignore,1.0,6800.0,1.80139207654
469,3_16_1,16,1.0,2159.24088787,3_D,test,01,5,46.0,10010,kill,1.0,6900.0,2.76042742433
470,3_16_1,16,1.0,2162.83479691,3_D,test,01,5,47.0,00100,ignore,1.0,7000.0,1.80646466953
471,3_16_1,16,1.0,2165.66313601,3_D,test,01,5,48.0,01000,ignore,1.0,7100.0,1.06977605669
472,3_16_1,16,1.0,2168.72575957,3_D,test,01,5,49.0,00010,ignore,1.0,7200.0,1.32272512678
