,unique_id,pair_id,sbj_id,wall_time,condition,block,rule_id,rule_num,trial,stimulus,choice,correct,points,reaction_time
0,1_13_1,13,1.0,12.1182856484,1_I,training,03,1_A,1.0,11010,ignore,0.0,0.0,3.60376914655
1,1_13_1,13,1.0,21.3530941347,1_I,training,03,1_A,2.0,00110,ignore,1.0,100.0,2.77367755348
2,1_13_1,13,1.0,30.4160437919,1_I,training,03,1_A,3.0,00011,kill,0.0,0.0,2.63295281424
3,1_13_1,13,1.0,40.1196194563,1_I,training,03,1_A,4.0,01000,ignore,0.0,0.0,3.28542503889
4,1_13_1,13,1.0,50.7295313445,1_I,training,03,1_A,5.0,01011,ignore,0.0,0.0,4.19408649759
5,1_13_1,13,1.0,53.9484055679,1_I,training,03,1_A,6.0,11011,kill,0.0,0.0,1.08048990859
6,1_13_1,13,1.0,64.7770652367,1_I,training,03,1_A,7.0,10100,ignore,1.0,100.0,4.4054291606
7,1_13_1,13,1.0,68.8085105073,1_I,training,03,1_A,8.0,11110,ignore,0.0,0.0,1.90450567618
8,1_13_1,13,1.0,73.5587308586,1_I,training,03,1_A,9.0,00001,kill,0.0,0.0,2.61346255136
9,1_13_1,13,1.0,81.5278512966,1_I,training,03,1_A,10.0,01101,ignore,0.0,0.0,1.51606501626
10,1_13_1,13,1.0,89.4657772972,1_I,training,03,1_A,11.0,00000,kill,0.0,0.0,1.48504710612
11,1_13_1,13,1.0,93.7940894534,1_I,training,03,1_A,12.0,11001,kill,0.0,0.0,2.186909634
12,1_13_1,13,1.0,103.87268313,1_I,training,03,1_A,13.0,11000,ignore,0.0,0.0,3.53585496512
13,1_13_1,13,1.0,107.607247146,1_I,training,03,1_A,14.0,01110,ignore,0.0,0.0,1.61273919971
14,1_13_1,13,1.0,112.576241141,1_I,training,03,1_A,15.0,01010,ignore,0.0,0.0,2.8458427601
15,1_13_1,13,1.0,121.811056607,1_I,training,03,1_A,16.0,10011,ignore,1.0,100.0,2.79806542432
16,1_13_1,13,1.0,129.78018156,1_I,training,03,1_A,17.0,11111,ignore,1.0,200.0,1.51810985996
17,1_13_1,13,1.0,133.139727975,1_I,training,03,1_A,18.0,10001,kill,0.0,100.0,1.20138118292
18,1_13_1,13,1.0,136.327377382,1_I,training,03,1_A,19.0,00101,ignore,1.0,200.0,1.04720629029
19,1_13_1,13,1.0,144.452796789,1_I,training,03,1_A,20.0,10110,ignore,1.0,300.0,1.70652285024
20,1_13_1,13,1.0,154.21887135,1_I,training,03,1_A,21.0,01100,kill,1.0,400.0,3.3648500359
21,1_13_1,13,1.0,157.609644634,1_I,training,03,1_A,22.0,10101,ignore,1.0,500.0,1.2608651565
22,1_13_1,13,1.0,160.437916764,1_I,training,03,1_A,23.0,01111,ignore,0.0,400.0,0.683375597268
23,1_13_1,13,1.0,167.828906397,1_I,training,03,1_A,24.0,00111,ignore,1.0,500.0,0.957887550428
24,1_13_1,13,1.0,176.82935921,1_I,training,03,1_A,25.0,10010,kill,0.0,400.0,2.62424755212
25,1_13_1,13,1.0,180.0638754,1_I,training,03,1_A,26.0,11100,kill,1.0,500.0,1.14575084271
26,1_13_1,13,1.0,188.657986036,1_I,training,03,1_A,27.0,00100,kill,0.0,400.0,2.18020364689
27,1_13_1,13,1.0,191.939408009,1_I,training,03,1_A,28.0,11101,ignore,1.0,500.0,1.09136522567
28,1_13_1,13,1.0,196.361550206,1_I,training,03,1_A,29.0,01001,kill,1.0,600.0,2.28934969372
29,1_13_1,13,1.0,201.08048334,1_I,training,03,1_A,30.0,00010,kill,0.0,500.0,2.60796926618
30,1_13_1,13,1.0,208.502697379,1_I,training,03,1_A,31.0,10111,ignore,1.0,600.0,0.994680368474
31,1_13_1,13,1.0,216.549951701,1_I,training,03,1_A,32.0,10000,kill,0.0,500.0,1.63402675744
32,1_13_1,13,1.0,219.909523159,1_I,training,03,1_A,33.0,00011,ignore,1.0,600.0,1.18233880691
33,1_13_1,13,1.0,225.597300445,1_I,training,03,1_A,34.0,11000,ignore,0.0,500.0,3.5594993684
34,1_13_1,13,1.0,233.101369811,1_I,training,03,1_A,35.0,10101,ignore,1.0,600.0,1.064502277
35,1_13_1,13,1.0,241.299095236,1_I,training,03,1_A,36.0,10100,ignore,1.0,700.0,1.74751496685
36,1_13_1,13,1.0,245.971152145,1_I,training,03,1_A,37.0,11111,ignore,1.0,800.0,2.55746766162
37,1_13_1,13,1.0,249.658862926,1_I,training,03,1_A,38.0,01110,ignore,0.0,700.0,1.56937012164
38,1_13_1,13,1.0,258.096802679,1_I,training,03,1_A,39.0,00110,ignore,1.0,800.0,1.96304050728
39,1_13_1,13,1.0,265.440847528,1_I,training,03,1_A,40.0,10000,kill,0.0,700.0,0.927967804693
40,1_13_1,13,1.0,272.925633538,1_I,training,03,1_A,41.0,10011,ignore,1.0,800.0,1.08900961171
41,1_13_1,13,1.0,275.81633149,1_I,training,03,1_A,42.0,01111,ignore,0.0,700.0,0.762862173594
42,1_13_1,13,1.0,283.410482769,1_I,training,03,1_A,43.0,00101,ignore,1.0,800.0,1.18493581178
43,1_13_1,13,1.0,290.770177796,1_I,training,03,1_A,44.0,01101,ignore,0.0,700.0,0.94298864108
44,1_13_1,13,1.0,299.95815111,1_I,training,03,1_A,45.0,01001,ignore,0.0,600.0,2.65702745165
45,1_13_1,13,1.0,304.098936607,1_I,training,03,1_A,46.0,00000,ignore,1.0,700.0,2.02916478337
46,1_13_1,13,1.0,307.645996544,1_I,training,03,1_A,47.0,10110,ignore,1.0,800.0,1.42112695889
47,1_13_1,13,1.0,315.536990488,1_I,training,03,1_A,48.0,01010,kill,1.0,900.0,1.47682626793
48,1_13_1,13,1.0,319.302827353,1_I,training,03,1_A,49.0,00111,ignore,1.0,1000.0,1.65494032349
49,1_13_1,13,1.0,322.646714969,1_I,training,03,1_A,50.0,00010,kill,0.0,900.0,1.23095567398
50,1_13_1,13,1.0,326.193799127,1_I,training,03,1_A,51.0,00100,ignore,1.0,1000.0,1.40353580201
51,1_13_1,13,1.0,329.506452075,1_I,training,03,1_A,52.0,11010,kill,1.0,1100.0,1.20209837665
52,1_13_1,13,1.0,334.20978758,1_I,training,03,1_A,53.0,01000,ignore,0.0,1000.0,2.57936403349
53,1_13_1,13,1.0,342.819583699,1_I,training,03,1_A,54.0,11110,ignore,0.0,900.0,2.22326605999
54,1_13_1,13,1.0,346.007239674,1_I,training,03,1_A,55.0,10010,ignore,1.0,1000.0,1.09823090846
55,1_13_1,13,1.0,349.773021529,1_I,training,03,1_A,56.0,11101,ignore,1.0,1100.0,1.64893551948
56,1_13_1,13,1.0,357.82032963,1_I,training,03,1_A,57.0,00001,kill,0.0,1000.0,1.61088935717
57,1_13_1,13,1.0,362.883051854,1_I,training,03,1_A,58.0,10001,kill,0.0,900.0,2.94570552034
58,1_13_1,13,1.0,366.555079616,1_I,training,03,1_A,59.0,01100,ignore,0.0,800.0,1.51765909939
59,1_13_1,13,1.0,374.055465718,1_I,training,03,1_A,60.0,11100,ignore,0.0,700.0,1.0855780019
60,1_13_1,13,1.0,377.196253679,1_I,training,03,1_A,61.0,10111,ignore,1.0,800.0,1.03392691685
61,1_13_1,13,1.0,380.212002383,1_I,training,03,1_A,62.0,11001,kill,0.0,700.0,0.907837938029
62,1_13_1,13,1.0,387.618576508,1_I,training,03,1_A,63.0,11011,ignore,1.0,800.0,0.99994416809
63,1_13_1,13,1.0,390.821889639,1_I,training,03,1_A,64.0,01011,ignore,0.0,700.0,1.0560942377
64,1_13_1,13,1.0,394.353340452,1_I,training,03,1_A,65.0,01010,ignore,0.0,600.0,1.41909812581
65,1_13_1,13,1.0,397.634707414,1_I,training,03,1_A,66.0,01100,ignore,0.0,500.0,1.18341808699
66,1_13_1,13,1.0,405.38509444,1_I,training,03,1_A,67.0,00000,kill,0.0,400.0,1.32974079625
67,1_13_1,13,1.0,413.354218573,1_I,training,03,1_A,68.0,10110,ignore,1.0,500.0,1.54410741403
68,1_13_1,13,1.0,421.542096644,1_I,training,03,1_A,69.0,01101,ignore,0.0,400.0,1.63521729081
69,1_13_1,13,1.0,430.089400435,1_I,training,03,1_A,70.0,00011,ignore,1.0,500.0,2.12407040896
70,1_13_1,13,1.0,433.323922372,1_I,training,03,1_A,71.0,01001,kill,1.0,600.0,1.06438281313
71,1_13_1,13,1.0,439.605514304,1_I,training,03,1_A,72.0,10010,kill,0.0,500.0,4.19023696951
72,1_13_1,13,1.0,447.137078423,1_I,training,03,1_A,73.0,10101,ignore,1.0,600.0,1.10290190457
73,1_13_1,13,1.0,450.246646493,1_I,training,03,1_A,74.0,01000,ignore,0.0,500.0,0.971655863603
74,1_13_1,13,1.0,454.949941356,1_I,training,03,1_A,75.0,01110,ignore,0.0,400.0,2.47776063136
75,1_13_1,13,1.0,462.950335464,1_I,training,03,1_A,76.0,11100,ignore,0.0,300.0,1.57800436228
76,1_13_1,13,1.0,470.02879736,1_I,training,03,1_A,77.0,11001,ignore,1.0,400.0,0.679161519662
77,1_13_1,13,1.0,472.982085757,1_I,training,03,1_A,78.0,11010,kill,1.0,500.0,0.843361113814
78,1_13_1,13,1.0,475.763481661,1_I,training,03,1_A,79.0,10000,kill,0.0,400.0,0.64089777711
79,1_13_1,13,1.0,484.763916411,1_I,training,03,1_A,80.0,10100,ignore,1.0,500.0,2.52503219572
80,1_13_1,13,1.0,487.795337871,1_I,training,03,1_A,81.0,01011,ignore,0.0,400.0,0.901975587498
81,1_13_1,13,1.0,491.186104998,1_I,training,03,1_A,82.0,00010,ignore,1.0,500.0,1.27641803814
82,1_13_1,13,1.0,498.670826144,1_I,training,03,1_A,83.0,01111,ignore,0.0,400.0,1.08098541679
83,1_13_1,13,1.0,501.827220766,1_I,training,03,1_A,84.0,10011,ignore,1.0,500.0,1.02129207355
84,1_13_1,13,1.0,505.014882078,1_I,training,03,1_A,85.0,00101,kill,0.0,400.0,1.08254255233
85,1_13_1,13,1.0,512.218373378,1_I,training,03,1_A,86.0,00111,ignore,1.0,500.0,0.800239995106
86,1_13_1,13,1.0,520.687503874,1_I,training,03,1_A,87.0,00100,ignore,1.0,600.0,2.0395096973
87,1_13_1,13,1.0,524.765826191,1_I,training,03,1_A,88.0,10001,kill,0.0,500.0,1.95790848739
88,1_13_1,13,1.0,532.688065478,1_I,training,03,1_A,89.0,11011,ignore,1.0,600.0,1.51295197676
89,1_13_1,13,1.0,538.032066811,1_I,training,03,1_A,90.0,11000,ignore,0.0,500.0,3.20790325315
90,1_13_1,13,1.0,541.032201465,1_I,training,03,1_A,91.0,00110,ignore,1.0,600.0,0.912343080518
91,1_13_1,13,1.0,544.298018419,1_I,training,03,1_A,92.0,11101,kill,0.0,500.0,1.16724079112
92,1_13_1,13,1.0,548.641978699,1_I,training,03,1_A,93.0,11110,ignore,0.0,400.0,2.24701884286
93,1_13_1,13,1.0,555.892302709,1_I,training,03,1_A,94.0,10111,ignore,1.0,500.0,0.830577659108
94,1_13_1,13,1.0,564.830239383,1_I,training,03,1_A,95.0,00001,kill,0.0,400.0,2.49016024169
95,1_13_1,13,1.0,567.736652787,1_I,training,03,1_A,96.0,11111,ignore,1.0,500.0,0.774820054986
96,1_13_1,13,1.0,570.986776048,1_I,training,03,1_A,97.0,00100,ignore,1.0,600.0,1.10880941326
97,1_13_1,13,1.0,578.190266528,1_I,training,03,1_A,98.0,01111,ignore,0.0,500.0,0.778909742381
98,1_13_1,13,1.0,581.143520851,1_I,training,03,1_A,99.0,01110,ignore,0.0,400.0,0.84252240358
99,1_13_1,13,1.0,588.690765525,1_I,training,03,1_A,100.0,00101,ignore,1.0,500.0,1.12484138195
100,1_13_1,13,1.0,599.847547275,1_I,training,03,1_A,101.0,01011,ignore,0.0,400.0,4.73749806538
101,1_13_1,13,1.0,607.129130586,1_I,training,03,1_A,102.0,11011,ignore,1.0,500.0,0.863172410169
102,1_13_1,13,1.0,610.379278069,1_I,training,03,1_A,103.0,10001,kill,0.0,400.0,1.10789475521
103,1_13_1,13,1.0,614.457607365,1_I,training,03,1_A,104.0,01101,kill,1.0,500.0,1.95358356703
104,1_13_1,13,1.0,622.207993569,1_I,training,03,1_A,105.0,01000,ignore,0.0,400.0,1.32801452287
105,1_13_1,13,1.0,626.973843571,1_I,training,03,1_A,106.0,00111,ignore,1.0,500.0,2.63129427809
106,1_13_1,13,1.0,630.92718739,1_I,training,03,1_A,107.0,11010,kill,1.0,600.0,1.79746564182
107,1_13_1,13,1.0,634.5523496,1_I,training,03,1_A,108.0,11101,ignore,1.0,700.0,1.50904661677
108,1_13_1,13,1.0,637.865021021,1_I,training,03,1_A,109.0,10010,kill,0.0,600.0,1.20984094885
109,1_13_1,13,1.0,641.052665091,1_I,training,03,1_A,110.0,10000,ignore,1.0,700.0,1.05337161103
110,1_13_1,13,1.0,644.709103023,1_I,training,03,1_A,111.0,00011,ignore,1.0,800.0,1.53001437261
111,1_13_1,13,1.0,653.021992436,1_I,training,03,1_A,112.0,10011,kill,0.0,700.0,1.89338157867
112,1_13_1,13,1.0,660.991103021,1_I,training,03,1_A,113.0,10101,ignore,1.0,800.0,1.54596300397
113,1_13_1,13,1.0,669.304026096,1_I,training,03,1_A,114.0,11111,ignore,1.0,900.0,1.90045827324
114,1_13_1,13,1.0,673.272951944,1_I,training,03,1_A,115.0,11100,ignore,0.0,800.0,1.83443416617
115,1_13_1,13,1.0,682.076901477,1_I,training,03,1_A,116.0,11110,ignore,0.0,700.0,2.38104867927
116,1_13_1,13,1.0,685.983310775,1_I,training,03,1_A,117.0,11000,ignore,0.0,600.0,1.79275195073
117,1_13_1,13,1.0,694.311848722,1_I,training,03,1_A,118.0,11001,ignore,1.0,700.0,1.94163635938
118,1_13_1,13,1.0,703.39042844,1_I,training,03,1_A,119.0,00110,ignore,1.0,800.0,2.64716614057
119,1_13_1,13,1.0,707.640610407,1_I,training,03,1_A,120.0,10100,ignore,1.0,900.0,2.1374269618
120,1_13_1,13,1.0,715.941040272,1_I,training,03,1_A,121.0,10111,ignore,1.0,1000.0,1.87693415488
121,1_13_1,13,1.0,720.519376341,1_I,training,03,1_A,122.0,00001,kill,0.0,900.0,2.45550668895
122,1_13_1,13,1.0,724.644600336,1_I,training,03,1_A,123.0,00000,kill,0.0,800.0,1.96910606954
123,1_13_1,13,1.0,732.426224494,1_I,training,03,1_A,124.0,01010,ignore,0.0,700.0,1.38781624569
124,1_13_1,13,1.0,741.0985191,1_I,training,03,1_A,125.0,01001,ignore,0.0,600.0,2.2718907271
125,1_13_1,13,1.0,745.504943382,1_I,training,03,1_A,126.0,01100,ignore,0.0,500.0,2.31418052509
126,1_13_1,13,1.0,748.692646157,1_I,training,03,1_A,127.0,00010,ignore,1.0,600.0,1.07199483719
127,1_13_1,13,1.0,756.849267391,1_I,training,03,1_A,128.0,10110,ignore,1.0,700.0,1.7261457139
128,1_13_1,13,1.0,760.849466908,1_I,training,03,1_A,129.0,00010,ignore,1.0,800.0,1.87980949824
129,1_13_1,13,1.0,770.09989396,1_I,training,03,1_A,130.0,11010,kill,1.0,900.0,2.84035440126
130,1_13_1,13,1.0,773.490700087,1_I,training,03,1_A,131.0,10101,ignore,1.0,1000.0,1.22564302144
131,1_13_1,13,1.0,776.725204371,1_I,training,03,1_A,132.0,01011,ignore,0.0,900.0,1.12998243347
132,1_13_1,13,1.0,781.287947328,1_I,training,03,1_A,133.0,11100,kill,1.0,1000.0,2.41998815214
133,1_13_1,13,1.0,787.678835149,1_I,training,03,1_A,134.0,11101,kill,0.0,900.0,4.25322644807
134,1_13_1,13,1.0,795.491736672,1_I,training,03,1_A,135.0,10111,ignore,1.0,1000.0,1.39600711528
135,1_13_1,13,1.0,803.492105327,1_I,training,03,1_A,136.0,11111,ignore,1.0,1100.0,1.57878888272
136,1_13_1,13,1.0,811.523617924,1_I,training,03,1_A,137.0,10110,ignore,1.0,1200.0,1.61030476423
137,1_13_1,13,1.0,815.180018088,1_I,training,03,1_A,138.0,10010,kill,0.0,1100.0,1.51113374493
138,1_13_1,13,1.0,824.886861151,1_I,training,03,1_A,139.0,01001,kill,1.0,1200.0,3.21486787337
139,1_13_1,13,1.0,832.559049429,1_I,training,03,1_A,140.0,01110,ignore,0.0,1100.0,1.26864016047
140,1_13_1,13,1.0,836.528051635,1_I,training,03,1_A,141.0,11000,ignore,0.0,1000.0,1.83673189558
141,1_13_1,13,1.0,844.200266187,1_I,training,03,1_A,142.0,01111,ignore,0.0,900.0,1.20631861218
142,1_13_1,13,1.0,932.746802289,1_I,test,03,2,0.0,11011,ignore,0.0,0.0,2.48805546079
143,1_13_1,13,1.0,936.215733679,1_I,test,03,2,1.0,00101,ignore,1.0,100.0,1.32850838895
144,1_13_1,13,1.0,943.922320571,1_I,test,03,2,2.0,11110,ignore,1.0,200.0,1.29346852866
145,1_13_1,13,1.0,952.063398365,1_I,test,03,2,3.0,10000,kill,0.0,100.0,1.72913928953
146,1_13_1,13,1.0,954.844749112,1_I,test,03,2,4.0,10001,ignore,0.0,0.0,0.659406055217
147,1_13_1,13,1.0,962.282621128,1_I,test,03,2,5.0,01000,ignore,1.0,100.0,1.01073040043
148,1_13_1,13,1.0,969.689204695,1_I,test,03,2,6.0,00110,ignore,1.0,200.0,1.01849514119
149,1_13_1,13,1.0,973.064420582,1_I,test,03,2,7.0,00111,ignore,0.0,100.0,1.26553984736
150,1_13_1,13,1.0,977.595867289,1_I,test,03,2,8.0,10100,kill,0.0,0.0,2.40814891356
151,1_13_1,13,1.0,985.377486932,1_I,test,03,2,9.0,00000,ignore,1.0,100.0,1.37253431302
152,1_13_1,13,1.0,990.768382964,1_I,test,03,2,10.0,01101,ignore,1.0,200.0,3.2421856879
153,1_13_1,13,1.0,994.112254981,1_I,test,03,2,11.0,01010,ignore,1.0,300.0,1.24294352397
154,1_13_1,13,1.0,997.306192457,1_I,test,03,2,12.0,00100,ignore,1.0,400.0,1.07102352617
155,1_13_1,13,1.0,1004.7753365,1_I,test,03,2,13.0,01100,ignore,1.0,500.0,1.00989990078
156,1_13_1,13,1.0,1012.47882349,1_I,test,03,2,14.0,11001,kill,1.0,600.0,1.29741494152
157,1_13_1,13,1.0,1019.85417855,1_I,test,03,2,15.0,00011,ignore,0.0,500.0,0.964111166259
158,1_13_1,13,1.0,1022.76057553,1_I,test,03,2,16.0,00001,ignore,0.0,400.0,0.789437341613
159,1_13_1,13,1.0,1030.93285392,1_I,test,03,2,17.0,10011,ignore,0.0,300.0,1.73906135886
160,1_13_1,13,1.0,1040.10514503,1_I,test,03,2,18.0,00011,ignore,0.0,200.0,2.71943644255
161,1_13_1,13,1.0,1043.01154612,1_I,test,03,2,19.0,10111,ignore,0.0,100.0,0.782962482188
162,1_13_1,13,1.0,1050.52755407,1_I,test,03,2,20.0,01001,ignore,0.0,0.0,1.09730065032
163,1_13_1,13,1.0,1058.79354222,1_I,test,03,2,21.0,10100,ignore,1.0,100.0,1.84772872917
164,1_13_1,13,1.0,1068.70031278,1_I,test,03,2,22.0,10101,ignore,1.0,200.0,3.47536560664
165,1_13_1,13,1.0,1071.54415421,1_I,test,03,2,23.0,00111,ignore,0.0,100.0,0.711484911221
166,1_13_1,13,1.0,1074.73178104,1_I,test,03,2,24.0,00110,ignore,1.0,200.0,1.07700657215
167,1_13_1,13,1.0,1077.88822411,1_I,test,03,2,25.0,01101,ignore,1.0,300.0,1.03772923412
168,1_13_1,13,1.0,1087.4355513,1_I,test,03,2,26.0,01010,kill,0.0,200.0,3.13895248663
169,1_13_1,13,1.0,1090.95135727,1_I,test,03,2,27.0,00010,ignore,1.0,300.0,1.412096558
170,1_13_1,13,1.0,1100.42057151,1_I,test,03,2,28.0,10110,kill,0.0,200.0,3.06451254022
171,1_13_1,13,1.0,1103.49881214,1_I,test,03,2,29.0,01100,ignore,1.0,300.0,0.984550982128
172,1_13_1,13,1.0,1111.01478232,1_I,test,03,2,30.0,11001,kill,1.0,400.0,1.08992180659
173,1_13_1,13,1.0,1119.65579587,1_I,test,03,2,31.0,10000,ignore,1.0,500.0,2.21747637304
174,1_13_1,13,1.0,1127.18742362,1_I,test,03,2,32.0,11110,ignore,1.0,600.0,1.12864493081
175,1_13_1,13,1.0,1134.71909611,1_I,test,03,2,33.0,11011,kill,1.0,700.0,1.13047055216
176,1_13_1,13,1.0,1137.7036044,1_I,test,03,2,34.0,00000,ignore,1.0,800.0,0.877524495224
177,1_13_1,13,1.0,1145.82898152,1_I,test,03,2,35.0,11100,ignore,1.0,900.0,1.6796360909
178,1_13_1,13,1.0,1154.01686206,1_I,test,03,2,36.0,01111,kill,1.0,1000.0,1.76503181803
179,1_13_1,13,1.0,1163.97048545,1_I,test,03,2,37.0,11111,kill,1.0,1100.0,3.53331625534
180,1_13_1,13,1.0,1171.62712248,1_I,test,03,2,38.0,00100,ignore,1.0,1200.0,1.23364833204
181,1_13_1,13,1.0,1179.37746189,1_I,test,03,3,0.0,00001,kill,0.0,1100.0,1.32691594793
182,1_13_1,13,1.0,1183.50266413,1_I,test,03,3,1.0,01000,ignore,1.0,1200.0,2.01050953597
183,1_13_1,13,1.0,1191.48744131,1_I,test,03,3,2.0,00101,ignore,1.0,1300.0,1.54777097258
184,1_13_1,13,1.0,1195.0501038,1_I,test,03,3,3.0,10011,ignore,1.0,1400.0,1.45467906299
185,1_13_1,13,1.0,1197.76897454,1_I,test,03,3,4.0,01011,ignore,1.0,1500.0,0.615871123531
186,1_13_1,13,1.0,1205.26931835,1_I,test,03,3,5.0,10001,ignore,1.0,1600.0,1.08024112817
187,1_13_1,13,1.0,1212.81658191,1_I,test,03,3,6.0,11000,kill,1.0,1700.0,1.15593318727
188,1_13_1,13,1.0,1220.41067572,1_I,test,03,3,7.0,01110,kill,0.0,1600.0,1.16917027624
189,1_13_1,13,1.0,1225.6609636,1_I,test,03,3,8.0,10010,kill,1.0,1700.0,3.14262548735
190,1_13_1,13,1.0,1228.70794123,1_I,test,03,3,9.0,11010,kill,1.0,1800.0,0.95192256771
191,1_13_1,13,1.0,1231.50498772,1_I,test,03,3,10.0,11101,ignore,0.0,1700.0,0.684033674852
192,1_13_1,13,1.0,1239.44286076,1_I,test,03,3,11.0,11011,kill,1.0,1800.0,1.53819621057
193,1_13_1,13,1.0,1248.63079918,1_I,test,03,3,12.0,01010,kill,0.0,1700.0,2.76010547305
194,1_13_1,13,1.0,1257.11556384,1_I,test,03,3,13.0,00100,ignore,1.0,1800.0,2.03073341372
195,1_13_1,13,1.0,1261.56887749,1_I,test,03,3,14.0,10101,kill,0.0,1700.0,2.30842450151
196,1_13_1,13,1.0,1264.97529972,1_I,test,03,3,15.0,10011,kill,0.0,1600.0,1.15535475226
197,1_13_1,13,1.0,1268.80363548,1_I,test,03,3,16.0,01000,ignore,1.0,1700.0,1.62377954935
198,1_13_1,13,1.0,1281.05422756,1_I,test,03,3,17.0,11100,ignore,0.0,1600.0,5.83656645249
199,1_13_1,13,1.0,1288.53893147,1_I,test,03,3,18.0,01001,ignore,1.0,1700.0,1.09188782877
200,1_13_1,13,1.0,1296.10183412,1_I,test,03,3,19.0,11110,kill,1.0,1800.0,1.14538341948
201,1_13_1,13,1.0,1299.43008716,1_I,test,03,3,20.0,00110,ignore,1.0,1900.0,1.21556454066
202,1_13_1,13,1.0,1302.38340142,1_I,test,03,3,21.0,11010,kill,1.0,2000.0,0.860112739405
203,1_13_1,13,1.0,1309.89934738,1_I,test,03,3,22.0,10000,kill,1.0,2100.0,1.10595623846
204,1_13_1,13,1.0,1313.04015628,1_I,test,03,3,23.0,11101,kill,1.0,2200.0,0.994112607215
205,1_13_1,13,1.0,1323.58747937,1_I,test,03,3,24.0,11001,kill,1.0,2300.0,4.14773862291
206,1_13_1,13,1.0,1326.55639906,1_I,test,03,3,25.0,10100,kill,1.0,2400.0,0.827925232862
207,1_13_1,13,1.0,1329.7284533,1_I,test,03,3,26.0,01011,ignore,1.0,2500.0,1.05993309202
208,1_13_1,13,1.0,1332.74420323,1_I,test,03,3,27.0,00101,ignore,1.0,2600.0,0.916192198065
209,1_13_1,13,1.0,1335.88499201,1_I,test,03,4,0.0,11111,kill,0.0,2500.0,1.01442762235
210,1_13_1,13,1.0,1343.74473446,1_I,test,03,4,1.0,10111,ignore,1.0,2600.0,1.45300944257
211,1_13_1,13,1.0,1346.55737037,1_I,test,03,4,2.0,10010,ignore,0.0,2500.0,0.686004212846
212,1_13_1,13,1.0,1354.87025198,1_I,test,03,4,3.0,10001,kill,0.0,2400.0,1.90812859238
213,1_13_1,13,1.0,1362.2768573,1_I,test,03,4,4.0,00111,ignore,0.0,2300.0,0.990470806685
214,1_13_1,13,1.0,1365.18328056,1_I,test,03,4,5.0,01101,ignore,1.0,2400.0,0.718997997851
215,1_13_1,13,1.0,1368.29275544,1_I,test,03,4,6.0,01111,ignore,0.0,2300.0,0.996423473541
216,1_13_1,13,1.0,1377.99638078,1_I,test,03,4,7.0,10110,ignore,1.0,2400.0,3.27689137779
217,1_13_1,13,1.0,1387.66872013,1_I,test,03,4,8.0,01100,kill,0.0,2300.0,3.24077921641
218,1_13_1,13,1.0,1391.49700622,1_I,test,03,4,9.0,00001,kill,0.0,2200.0,1.55502132081
219,1_13_1,13,1.0,1399.4349314,1_I,test,03,4,10.0,01110,ignore,0.0,2100.0,1.52605851759
220,1_13_1,13,1.0,1402.99756639,1_I,test,03,4,11.0,00010,ignore,0.0,2000.0,1.44089309708
221,1_13_1,13,1.0,1410.48235363,1_I,test,03,4,12.0,00000,ignore,1.0,2100.0,1.05383468746
222,1_13_1,13,1.0,1417.87333464,1_I,test,03,4,13.0,11000,ignore,1.0,2200.0,0.954460045905
223,1_13_1,13,1.0,1423.36109452,1_I,test,03,4,14.0,00011,ignore,0.0,2100.0,3.25673605834
224,1_13_1,13,1.0,1430.68028308,1_I,test,03,4,15.0,00001,ignore,1.0,2200.0,0.897089063802
225,1_13_1,13,1.0,1433.6648862,1_I,test,03,4,16.0,10000,ignore,1.0,2300.0,0.890496793155
226,1_13_1,13,1.0,1436.47746505,1_I,test,03,4,17.0,01000,ignore,1.0,2400.0,0.731902148009
227,1_13_1,13,1.0,1439.41511435,1_I,test,03,4,18.0,11100,ignore,1.0,2500.0,0.816035909771
228,1_13_1,13,1.0,1443.08714992,1_I,test,03,4,19.0,00110,kill,1.0,2600.0,1.54777918315
229,1_13_1,13,1.0,1450.66563624,1_I,test,03,4,20.0,00010,kill,1.0,2700.0,1.19112535372
230,1_13_1,13,1.0,1453.6345198,1_I,test,03,4,21.0,10110,kill,0.0,2600.0,0.879193294588
231,1_13_1,13,1.0,1460.96304133,1_I,test,03,4,22.0,11001,ignore,1.0,2700.0,0.949595280233
232,1_13_1,13,1.0,1464.32257994,1_I,test,03,4,23.0,00111,kill,1.0,2800.0,1.22414541257
233,1_13_1,13,1.0,1471.60413575,1_I,test,03,4,24.0,01101,ignore,1.0,2900.0,0.857837178551
234,1_13_1,13,1.0,1478.83891796,1_I,test,03,4,25.0,00101,ignore,1.0,3000.0,0.816181236948
235,1_13_1,13,1.0,1482.47967452,1_I,test,03,4,26.0,10001,kill,0.0,2900.0,1.52973849729
236,1_13_1,13,1.0,1490.23008535,1_I,test,03,4,27.0,11101,ignore,1.0,3000.0,1.33459981452
237,1_13_1,13,1.0,1493.27707406,1_I,test,03,4,28.0,01010,kill,1.0,3100.0,0.90544250278
238,1_13_1,13,1.0,1501.1212119,1_I,test,03,4,29.0,10101,ignore,1.0,3200.0,1.45476527403
239,1_13_1,13,1.0,1504.1994517,1_I,test,03,4,30.0,01110,ignore,0.0,3100.0,1.00022209605
240,1_13_1,13,1.0,1508.027785,1_I,test,03,4,31.0,01001,kill,0.0,3000.0,1.7021470243
241,1_13_1,13,1.0,1516.63755813,1_I,test,03,4,32.0,10011,ignore,0.0,2900.0,2.19130147056
242,1_13_1,13,1.0,1524.99734798,1_I,test,03,4,33.0,01011,kill,1.0,3000.0,1.9326716431
243,1_13_1,13,1.0,1529.68505261,1_I,test,03,4,34.0,00100,ignore,1.0,3100.0,2.56856261159
244,1_13_1,13,1.0,1537.31043158,1_I,test,03,4,35.0,00000,kill,0.0,3000.0,1.20446179065
245,1_13_1,13,1.0,1540.70121923,1_I,test,03,4,36.0,10111,ignore,1.0,3100.0,1.25328802738
246,1_13_1,13,1.0,1543.51385473,1_I,test,03,4,37.0,01111,ignore,0.0,3000.0,0.734141171805
247,1_13_1,13,1.0,1546.7952455,1_I,test,03,4,38.0,10100,ignore,1.0,3100.0,1.16229350917
248,1_13_1,13,1.0,1550.07666706,1_I,test,03,4,39.0,10010,kill,1.0,3200.0,1.19776196147
249,1_13_1,13,1.0,1554.10813122,1_I,test,03,4,40.0,11000,ignore,1.0,3300.0,1.94853652659
250,1_13_1,13,1.0,1563.67106425,1_I,test,03,4,41.0,11110,ignore,1.0,3400.0,3.18079603988
251,1_13_1,13,1.0,1572.14022513,1_I,test,03,4,42.0,00011,kill,1.0,3500.0,2.07191396303
252,1_13_1,13,1.0,1576.54669046,1_I,test,03,4,43.0,11011,kill,1.0,3600.0,2.28508881584
253,1_13_1,13,1.0,1583.69084763,1_I,test,03,4,44.0,01100,ignore,1.0,3700.0,0.729230837442
254,1_13_1,13,1.0,1592.64434622,1_I,test,03,4,45.0,11010,ignore,0.0,3600.0,2.53449611496
255,1_13_1,13,1.0,1600.33227253,1_I,test,03,4,46.0,11111,kill,0.0,3500.0,1.27467000673
256,1_13_1,13,1.0,1607.801371,1_I,test,03,4,47.0,11101,ignore,1.0,3600.0,1.06786286533
257,1_13_1,13,1.0,1616.42679308,1_I,test,03,4,48.0,01001,ignore,1.0,3700.0,2.20921078722
258,1_13_1,13,1.0,1623.91151833,1_I,test,03,4,49.0,11000,kill,0.0,3600.0,1.11315444954
259,1_13_1,13,1.0,1627.92731999,1_I,test,03,4,50.0,01000,kill,0.0,3500.0,1.89577126652
260,1_13_1,13,1.0,1635.08388252,1_I,test,03,4,51.0,10000,ignore,1.0,3600.0,0.723164864651
261,1_13_1,13,1.0,1642.36551017,1_I,test,03,4,52.0,10010,ignore,0.0,3500.0,0.816276479617
262,1_13_1,13,1.0,1645.88131162,1_I,test,03,4,53.0,10101,ignore,1.0,3600.0,1.41754755873
263,1_13_1,13,1.0,1650.39722967,1_I,test,03,4,54.0,10011,ignore,0.0,3500.0,2.44083233883
264,1_13_1,13,1.0,1653.95982689,1_I,test,03,4,55.0,00010,ignore,0.0,3400.0,1.43674347249
265,1_13_1,13,1.0,1661.55395805,1_I,test,03,4,56.0,00000,ignore,1.0,3500.0,1.16036073982
266,1_13_1,13,1.0,1667.17921181,1_I,test,03,4,57.0,01100,kill,0.0,3400.0,3.54052678228
267,1_13_1,13,1.0,1670.30433522,1_I,test,03,4,58.0,01011,kill,1.0,3500.0,1.03895384138
268,1_13_1,13,1.0,1678.27346018,1_I,test,03,4,59.0,10111,ignore,1.0,3600.0,1.54122427062
269,1_13_1,13,1.0,1686.27388015,1_I,test,03,4,60.0,00011,ignore,0.0,3500.0,1.59568131967
270,1_13_1,13,1.0,1691.41477197,1_I,test,03,4,61.0,01101,ignore,1.0,3600.0,2.99916375294
271,1_13_1,13,1.0,1699.14949076,1_I,test,03,4,62.0,01010,kill,1.0,3700.0,1.37820535715
272,1_13_1,13,1.0,1709.32182909,1_I,test,03,4,63.0,11010,ignore,0.0,3600.0,3.7637604105
273,1_13_1,13,1.0,1712.44701326,1_I,test,03,4,64.0,10100,kill,0.0,3500.0,0.998558633563
274,1_13_1,13,1.0,1720.00987978,1_I,test,03,4,65.0,00101,ignore,1.0,3600.0,1.14306721628
275,1_13_1,13,1.0,1723.3069351,1_I,test,03,4,66.0,00110,ignore,0.0,3500.0,1.19827471188
276,1_13_1,13,1.0,1731.74483668,1_I,test,03,4,67.0,11110,kill,0.0,3400.0,2.08536822171
277,1_13_1,13,1.0,1735.41685335,1_I,test,03,4,68.0,00001,kill,0.0,3300.0,1.54720608502
278,1_13_1,13,1.0,1742.97510225,1_I,test,03,4,69.0,11100,ignore,1.0,3400.0,1.14644053101
279,1_13_1,13,1.0,1745.85021735,1_I,test,03,4,70.0,00111,ignore,0.0,3300.0,0.68660317429
280,1_13_1,13,1.0,1754.35067694,1_I,test,03,4,71.0,10110,ignore,1.0,3400.0,2.10174749772
281,1_13_1,13,1.0,1759.13213525,1_I,test,03,5,0.0,01110,ignore,1.0,3500.0,2.6913456024
282,1_13_1,13,1.0,1765.11678393,1_I,test,03,5,1.0,11111,kill,1.0,3600.0,3.8683364513
283,1_13_1,13,1.0,1775.39850026,1_I,test,03,5,2.0,11011,ignore,0.0,3500.0,3.87165721835
284,1_13_1,13,1.0,1778.44553823,1_I,test,03,5,3.0,01111,ignore,0.0,3400.0,0.905996306062
285,1_13_1,13,1.0,1781.63322048,1_I,test,03,5,4.0,00100,ignore,1.0,3500.0,0.98123349931
286,1_13_1,13,1.0,1789.03712411,1_I,test,03,5,5.0,10001,kill,1.0,3600.0,0.994554746677
287,1_13_1,13,1.0,1792.17791372,1_I,test,03,5,6.0,11001,kill,1.0,3700.0,1.01074230577
288,1_13_1,13,1.0,1795.67802518,1_I,test,03,5,7.0,10101,ignore,1.0,3800.0,1.3757212477
289,1_13_1,13,1.0,1798.97509076,1_I,test,03,5,8.0,00001,ignore,0.0,3700.0,1.18422806021
290,1_13_1,13,1.0,1802.14713474,1_I,test,03,5,9.0,01011,ignore,0.0,3600.0,1.07306221194
291,1_13_1,13,1.0,1809.69434534,1_I,test,03,5,10.0,11011,kill,1.0,3700.0,1.11286913206
292,1_13_1,13,1.0,1818.13228345,1_I,test,03,5,11.0,11101,kill,0.0,3600.0,2.03520242967
293,1_13_1,13,1.0,1821.49182165,1_I,test,03,5,12.0,00010,ignore,1.0,3700.0,1.2478177318
294,1_13_1,13,1.0,1829.35159201,1_I,test,03,5,13.0,00110,ignore,1.0,3800.0,1.46868999866
295,1_13_1,13,1.0,1834.00805663,1_I,test,03,5,14.0,11010,ignore,1.0,3900.0,2.52105581426
296,1_13_1,13,1.0,1842.27401809,1_I,test,03,5,15.0,01110,kill,0.0,3800.0,1.8668199581
297,1_13_1,13,1.0,1845.35235641,1_I,test,03,5,16.0,01010,ignore,1.0,3900.0,0.984823573217
298,1_13_1,13,1.0,1852.83705006,1_I,test,03,5,17.0,10001,kill,1.0,4000.0,1.06319269029
299,1_13_1,13,1.0,1856.27469176,1_I,test,03,5,18.0,10000,ignore,1.0,4100.0,1.35379285458
300,1_13_1,13,1.0,1866.52524485,1_I,test,03,5,19.0,10100,ignore,1.0,4200.0,3.80665696998
301,1_13_1,13,1.0,1870.1972759,1_I,test,03,5,20.0,00111,kill,1.0,4300.0,1.54378268579
302,1_13_1,13,1.0,1873.2286797,1_I,test,03,5,21.0,10011,kill,1.0,4400.0,0.940762343676
303,1_13_1,13,1.0,1876.01006986,1_I,test,03,5,22.0,01101,kill,0.0,4300.0,0.669694316188
304,1_13_1,13,1.0,1883.99478628,1_I,test,03,5,23.0,10010,kill,0.0,4200.0,1.6020420521
305,1_13_1,13,1.0,1887.27623043,1_I,test,03,5,24.0,00011,ignore,0.0,4100.0,1.19801197348
306,1_13_1,13,1.0,1890.60450522,1_I,test,03,5,25.0,11110,ignore,1.0,4200.0,1.20148094141
307,1_13_1,13,1.0,1899.13616746,1_I,test,03,5,26.0,00000,kill,0.0,4100.0,2.15166327775
308,1_13_1,13,1.0,1908.96473394,1_I,test,03,5,27.0,10110,ignore,1.0,4200.0,3.44168500704
309,1_13_1,13,1.0,1918.26208278,1_I,test,03,5,28.0,11111,kill,1.0,4300.0,2.87970276076
310,1_13_1,13,1.0,1921.40286664,1_I,test,03,5,29.0,01100,ignore,1.0,4400.0,1.02873372818
311,1_13_1,13,1.0,1924.30927389,1_I,test,03,5,30.0,00100,ignore,1.0,4500.0,0.77641003283
312,1_13_1,13,1.0,1931.65333639,1_I,test,03,5,31.0,01111,ignore,0.0,4400.0,0.948104239818
313,1_13_1,13,1.0,1939.57562576,1_I,test,03,5,32.0,11000,kill,0.0,4300.0,1.46884271535
314,1_13_1,13,1.0,1942.99764439,1_I,test,03,5,33.0,01000,ignore,1.0,4400.0,1.29275749287
315,1_13_1,13,1.0,1946.41969134,1_I,test,03,5,34.0,00101,ignore,1.0,4500.0,1.31328967771
316,1_13_1,13,1.0,1953.71688419,1_I,test,03,5,35.0,01001,ignore,0.0,4400.0,0.890927027283
317,1_13_1,13,1.0,1957.51398938,1_I,test,03,5,36.0,10111,ignore,0.0,4300.0,1.70700234781
318,1_13_1,13,1.0,1960.51409858,1_I,test,03,5,37.0,11100,kill,0.0,4200.0,0.876864364996
319,1_13_1,13,1.0,1963.8111264,1_I,test,03,5,38.0,11001,ignore,0.0,4100.0,1.1875122902
320,1_13_1,13,1.0,1971.23338765,1_I,test,03,5,39.0,11111,ignore,0.0,4000.0,1.02374826706
321,1_13_1,13,1.0,1978.49930682,1_I,test,03,5,40.0,01111,ignore,0.0,3900.0,0.834737957447
322,1_13_1,13,1.0,1985.71841382,1_I,test,03,5,41.0,00101,kill,0.0,3800.0,0.837198666767
323,1_13_1,13,1.0,1989.3468463,1_I,test,03,5,42.0,00111,kill,1.0,3900.0,1.47377316562
324,1_13_1,13,1.0,1994.2064311,1_I,test,03,5,43.0,11101,kill,0.0,3800.0,2.75823181984
325,1_13_1,13,1.0,1997.26907163,1_I,test,03,5,44.0,11010,ignore,1.0,3900.0,0.967601071151
326,1_13_1,13,1.0,2000.31608292,1_I,test,03,5,45.0,00110,ignore,1.0,4000.0,0.92070842483
327,1_13_1,13,1.0,2007.61332954,1_I,test,03,5,46.0,01011,ignore,0.0,3900.0,0.91093496691
328,1_13_1,13,1.0,2010.26969891,1_I,test,03,5,47.0,10010,ignore,1.0,4000.0,0.554168242071
329,1_13_1,13,1.0,2013.08235248,1_I,test,03,5,48.0,00001,kill,1.0,4100.0,0.658995115939
330,1_13_1,13,1.0,2020.33271713,1_I,test,03,5,49.0,01100,ignore,1.0,4200.0,0.833579855847
331,1_13_1,13,1.0,2028.00492388,1_I,test,03,5,50.0,11011,kill,1.0,4300.0,1.28045230415
332,1_13_1,13,1.0,2031.00505361,1_I,test,03,5,51.0,10001,kill,1.0,4400.0,0.89808377496
333,1_13_1,13,1.0,2038.38041975,1_I,test,03,5,52.0,01101,kill,0.0,4300.0,0.961313823365
334,1_13_1,13,1.0,2045.99020027,1_I,test,03,5,53.0,01010,kill,0.0,4200.0,1.21033686758
335,1_13_1,13,1.0,2055.52189001,1_I,test,03,5,54.0,11100,kill,0.0,4100.0,3.11434087762
336,1_13_1,13,1.0,2062.77219226,1_I,test,03,5,55.0,00011,ignore,0.0,4000.0,0.815354432048
337,1_13_1,13,1.0,2070.27256358,1_I,test,03,5,56.0,10111,ignore,0.0,3900.0,1.07838718034
338,1_13_1,13,1.0,2078.0229855,1_I,test,03,5,57.0,10011,ignore,0.0,3800.0,1.36536607054
339,1_13_1,13,1.0,2081.21062547,1_I,test,03,5,58.0,01000,ignore,1.0,3900.0,1.0924638006
340,1_13_1,13,1.0,2088.83596256,1_I,test,03,5,59.0,11000,ignore,1.0,4000.0,1.25545438759
341,1_13_1,13,1.0,2097.71137571,1_I,test,03,5,60.0,00100,ignore,1.0,4100.0,2.42733127987
342,1_13_1,13,1.0,2101.3991103,1_I,test,03,5,61.0,00010,ignore,1.0,4200.0,1.5536846392
343,1_13_1,13,1.0,2104.10235878,1_I,test,03,5,62.0,10000,ignore,1.0,4300.0,0.590096076043
344,1_13_1,13,1.0,2111.63395984,1_I,test,03,5,63.0,10100,ignore,1.0,4400.0,1.12667890863
345,1_13_1,13,1.0,2119.63433794,1_I,test,03,5,64.0,10110,ignore,1.0,4500.0,1.61941562875
346,1_13_1,13,1.0,2122.43134338,1_I,test,03,5,65.0,00000,ignore,1.0,4600.0,0.6911243274
347,1_13_1,13,1.0,2129.99420539,1_I,test,03,5,66.0,11001,kill,1.0,4700.0,1.1685856833
348,1_13_1,13,1.0,2138.11956814,1_I,test,03,5,67.0,10101,kill,0.0,4600.0,1.74434445333
349,1_13_1,13,1.0,2145.88555977,1_I,test,03,5,68.0,01001,ignore,0.0,4500.0,1.40046258379
350,1_13_1,13,1.0,2153.94845894,1_I,test,03,5,69.0,11110,kill,0.0,4400.0,1.67373966648
351,1_13_1,13,1.0,2157.58926722,1_I,test,03,5,70.0,01110,ignore,1.0,4500.0,1.53626713598
352,1_13_1,13,1.0,2166.18342548,1_I,test,03,5,71.0,01001,kill,1.0,4600.0,2.19398427593
353,1_13_1,13,1.0,2169.41795357,1_I,test,03,5,72.0,01111,kill,1.0,4700.0,1.12586565118
354,1_13_1,13,1.0,2172.33996789,1_I,test,03,5,73.0,10100,ignore,1.0,4800.0,0.756106512505
