,unique_id,pair_id,sbj_id,wall_time,condition,block,rule_id,rule_num,trial,stimulus,choice,correct,points,reaction_time
0,2_25_1,25,1.0,22.1205221536,2_ND,training,05,1_A,1.0,10100,kill,0.0,0.0,2.89059514749
1,2_25_1,25,1.0,29.0114675331,2_ND,training,05,1_A,2.0,10110,kill,0.0,0.0,4.74821235735
2,2_25_1,25,1.0,34.0741975533,2_ND,training,05,1_A,3.0,01010,ignore,0.0,0.0,2.92303907749
3,2_25_1,25,1.0,41.4495449389,2_ND,training,05,1_A,4.0,01001,ignore,1.0,100.0,5.2284295397
4,2_25_1,25,1.0,50.1530902043,2_ND,training,05,1_A,5.0,10111,kill,0.0,0.0,6.54262102489
5,2_25_1,25,1.0,61.8567413091,2_ND,training,05,1_A,6.0,00110,ignore,0.0,0.0,9.5405055208
6,2_25_1,25,1.0,65.6850506409,2_ND,training,05,1_A,7.0,01011,kill,0.0,0.0,1.67074436814
7,2_25_1,25,1.0,78.2637619218,2_ND,training,05,1_A,8.0,10101,ignore,1.0,100.0,10.4346504559
8,2_25_1,25,1.0,86.543261834,2_ND,training,05,1_A,9.0,01101,ignore,1.0,200.0,6.12148946113
9,2_25_1,25,1.0,91.1059772612,2_ND,training,05,1_A,10.0,00101,kill,0.0,100.0,2.4075353768
10,2_25_1,25,1.0,100.231397532,2_ND,training,05,1_A,11.0,10001,ignore,1.0,200.0,6.99821003209
11,2_25_1,25,1.0,105.239544916,2_ND,training,05,1_A,12.0,10000,ignore,0.0,100.0,2.84953364938
12,2_25_1,25,1.0,114.59145947,2_ND,training,05,1_A,13.0,01000,ignore,0.0,0.0,7.22998441596
13,2_25_1,25,1.0,118.201023883,2_ND,training,05,1_A,14.0,11010,kill,1.0,100.0,1.46416488103
14,2_25_1,25,1.0,121.328656517,2_ND,training,05,1_A,15.0,11111,ignore,1.0,200.0,1.01392011952
15,2_25_1,25,1.0,123.88877888,2_ND,training,05,1_A,16.0,11011,ignore,1.0,300.0,0.463294111836
16,2_25_1,25,1.0,127.092039823,2_ND,training,05,1_A,17.0,11000,kill,1.0,400.0,1.11058159364
17,2_25_1,25,1.0,129.951563103,2_ND,training,05,1_A,18.0,00001,ignore,1.0,500.0,0.788758449908
18,2_25_1,25,1.0,134.23304638,2_ND,training,05,1_A,19.0,11001,ignore,1.0,600.0,2.1915932767
19,2_25_1,25,1.0,138.045713939,2_ND,training,05,1_A,20.0,10010,kill,1.0,700.0,1.73725028729
20,2_25_1,25,1.0,140.748966062,2_ND,training,05,1_A,21.0,01111,ignore,1.0,800.0,0.638194278068
21,2_25_1,25,1.0,145.905429334,2_ND,training,05,1_A,22.0,10011,ignore,1.0,900.0,3.07140307377
22,2_25_1,25,1.0,149.077471517,2_ND,training,05,1_A,23.0,11101,ignore,1.0,1000.0,1.10162533961
23,2_25_1,25,1.0,151.76507,2_ND,training,05,1_A,24.0,00010,kill,1.0,1100.0,0.595776111932
24,2_25_1,25,1.0,154.421418292,2_ND,training,05,1_A,25.0,00000,kill,1.0,1200.0,0.582352795906
25,2_25_1,25,1.0,157.015362421,2_ND,training,05,1_A,26.0,11110,kill,0.0,1100.0,0.547444733418
26,2_25_1,25,1.0,161.578062774,2_ND,training,05,1_A,27.0,00111,ignore,1.0,1200.0,2.50456247777
27,2_25_1,25,1.0,169.34403722,2_ND,training,05,1_A,28.0,00100,kill,1.0,1300.0,5.67729614459
28,2_25_1,25,1.0,174.484912601,2_ND,training,05,1_A,29.0,00011,kill,0.0,1200.0,3.06548023963
29,2_25_1,25,1.0,177.578822252,2_ND,training,05,1_A,30.0,01100,kill,1.0,1300.0,1.01549840872
30,2_25_1,25,1.0,184.829173687,2_ND,training,05,1_A,31.0,11100,kill,0.0,1200.0,5.21000355043
31,2_25_1,25,1.0,190.141913569,2_ND,training,05,1_A,32.0,01110,kill,1.0,1300.0,3.2169777221
32,2_25_1,25,1.0,194.458044159,2_ND,training,05,1_A,33.0,11001,ignore,1.0,1400.0,2.26510127062
33,2_25_1,25,1.0,198.989467702,2_ND,training,05,1_A,34.0,00101,ignore,1.0,1500.0,2.45615957752
34,2_25_1,25,1.0,204.021000131,2_ND,training,05,1_A,35.0,11011,ignore,1.0,1600.0,2.9764257282
35,2_25_1,25,1.0,210.068118205,2_ND,training,05,1_A,36.0,11000,ignore,0.0,1500.0,4.00360880109
36,2_25_1,25,1.0,213.865184723,2_ND,training,05,1_A,37.0,10011,ignore,1.0,1600.0,1.71593392161
37,2_25_1,25,1.0,218.802943489,2_ND,training,05,1_A,38.0,01010,kill,1.0,1700.0,2.86553014449
38,2_25_1,25,1.0,222.615583144,2_ND,training,05,1_A,39.0,00000,kill,1.0,1800.0,1.74338512085
39,2_25_1,25,1.0,225.709472269,2_ND,training,05,1_A,40.0,10010,kill,1.0,1900.0,1.02019446858
40,2_25_1,25,1.0,228.631517098,2_ND,training,05,1_A,41.0,10111,ignore,1.0,2000.0,0.878315858616
41,2_25_1,25,1.0,231.600393273,2_ND,training,05,1_A,42.0,10001,ignore,1.0,2100.0,0.927042049974
42,2_25_1,25,1.0,237.225660397,2_ND,training,05,1_A,43.0,01110,kill,1.0,2200.0,3.58268891602
43,2_25_1,25,1.0,240.319562351,2_ND,training,05,1_A,44.0,00001,ignore,1.0,2300.0,1.04063461274
44,2_25_1,25,1.0,245.882306002,2_ND,training,05,1_A,45.0,00110,kill,1.0,2400.0,3.5307548302
45,2_25_1,25,1.0,250.070014975,2_ND,training,05,1_A,46.0,01100,kill,1.0,2500.0,2.16030331633
46,2_25_1,25,1.0,253.435822707,2_ND,training,05,1_A,47.0,11100,kill,0.0,2400.0,1.31669025601
47,2_25_1,25,1.0,261.373685066,2_ND,training,05,1_A,48.0,01000,kill,1.0,2500.0,5.91601326905
48,2_25_1,25,1.0,265.920779568,2_ND,training,05,1_A,49.0,10110,kill,0.0,2400.0,2.50419556802
49,2_25_1,25,1.0,271.827318611,2_ND,training,05,1_A,50.0,01011,ignore,1.0,2500.0,3.8708644477
50,2_25_1,25,1.0,275.014933932,2_ND,training,05,1_A,51.0,00010,ignore,0.0,2400.0,1.13329632163
51,2_25_1,25,1.0,279.124510693,2_ND,training,05,1_A,52.0,00100,kill,1.0,2500.0,2.03410656996
52,2_25_1,25,1.0,286.999890953,2_ND,training,05,1_A,53.0,11110,kill,0.0,2400.0,5.8362376613
53,2_25_1,25,1.0,301.266208414,2_ND,training,05,1_A,54.0,10000,kill,1.0,2500.0,12.2101235017
54,2_25_1,25,1.0,309.610344097,2_ND,training,05,1_A,55.0,00111,ignore,1.0,2600.0,6.25101918483
55,2_25_1,25,1.0,313.438656636,2_ND,training,05,1_A,56.0,11111,ignore,1.0,2700.0,1.7923152935
56,2_25_1,25,1.0,318.579521754,2_ND,training,05,1_A,57.0,11101,kill,0.0,2600.0,3.1083057269
57,2_25_1,25,1.0,321.814040263,2_ND,training,05,1_A,58.0,01001,ignore,1.0,2700.0,1.19391468643
58,2_25_1,25,1.0,325.736121014,2_ND,training,05,1_A,59.0,01101,ignore,1.0,2800.0,1.88660211749
59,2_25_1,25,1.0,331.408258292,2_ND,training,05,1_A,60.0,00011,ignore,1.0,2900.0,3.61364981223
60,2_25_1,25,1.0,337.361637983,2_ND,training,05,1_A,61.0,10100,kill,0.0,2800.0,3.9110346502
61,2_25_1,25,1.0,340.596183112,2_ND,training,05,1_A,62.0,01111,ignore,1.0,2900.0,1.20452588301
62,2_25_1,25,1.0,343.346302182,2_ND,training,05,1_A,63.0,11010,kill,1.0,3000.0,0.720625491311
63,2_25_1,25,1.0,348.690362814,2_ND,training,05,1_A,64.0,10101,ignore,1.0,3100.0,3.31243775925
64,2_25_1,25,1.0,356.331337139,2_ND,training,05,1_A,65.0,10111,ignore,1.0,3200.0,5.59770463317
65,2_25_1,25,1.0,361.37844046,2_ND,training,05,1_A,66.0,10100,ignore,1.0,3300.0,2.9893442226
66,2_25_1,25,1.0,364.128545418,2_ND,training,05,1_A,67.0,01011,ignore,1.0,3400.0,0.7452796452
67,2_25_1,25,1.0,366.644328149,2_ND,training,05,1_A,68.0,11110,ignore,1.0,3500.0,0.504975892683
68,2_25_1,25,1.0,369.316343873,2_ND,training,05,1_A,69.0,10101,ignore,1.0,3600.0,0.616852575087
69,2_25_1,25,1.0,371.847674084,2_ND,training,05,1_A,70.0,01000,ignore,0.0,3500.0,0.492264586826
70,2_25_1,25,1.0,375.410367381,2_ND,training,05,1_A,71.0,00001,ignore,1.0,3600.0,1.51732702402
71,2_25_1,25,1.0,387.53651634,2_ND,training,05,1_A,72.0,11111,ignore,1.0,3700.0,10.1087634019
72,2_25_1,25,1.0,397.443201955,2_ND,training,05,1_A,73.0,00010,kill,1.0,3800.0,7.85301191527
73,2_25_1,25,1.0,406.568667768,2_ND,training,05,1_A,74.0,00011,ignore,1.0,3900.0,7.0727395361
74,2_25_1,25,1.0,413.568968929,2_ND,training,05,1_A,75.0,01100,ignore,0.0,3800.0,4.98083730471
75,2_25_1,25,1.0,424.428865854,2_ND,training,05,1_A,76.0,01001,ignore,1.0,3900.0,8.80646152435
76,2_25_1,25,1.0,427.093287123,2_ND,training,05,1_A,77.0,11000,kill,1.0,4000.0,0.660994960443
77,2_25_1,25,1.0,433.484175574,2_ND,training,05,1_A,78.0,10011,ignore,1.0,4100.0,4.33493118678
78,2_25_1,25,1.0,440.120593034,2_ND,training,05,1_A,79.0,01111,ignore,1.0,4200.0,4.6027781867
79,2_25_1,25,1.0,445.245795211,2_ND,training,05,1_A,80.0,00100,kill,1.0,4300.0,3.08384753617
80,2_25_1,25,1.0,448.683425526,2_ND,training,05,1_A,81.0,00101,ignore,1.0,4400.0,1.38646180017
81,2_25_1,25,1.0,456.980714467,2_ND,training,05,1_A,82.0,10001,ignore,1.0,4500.0,6.27163989733
82,2_25_1,25,1.0,462.527862209,2_ND,training,05,1_A,83.0,11101,ignore,1.0,4600.0,3.50806255298
83,2_25_1,25,1.0,469.887560124,2_ND,training,05,1_A,84.0,00000,kill,1.0,4700.0,5.32222437108
84,2_25_1,25,1.0,475.825324662,2_ND,training,05,1_A,85.0,10010,kill,1.0,4800.0,3.93542965805
85,2_25_1,25,1.0,481.153708883,2_ND,training,05,1_A,86.0,00111,ignore,1.0,4900.0,3.30785651905
86,2_25_1,25,1.0,485.403907011,2_ND,training,05,1_A,87.0,00110,kill,1.0,5000.0,2.19340120522
87,2_25_1,25,1.0,489.763490107,2_ND,training,05,1_A,88.0,01010,kill,1.0,5100.0,2.35791917273
88,2_25_1,25,1.0,494.841893331,2_ND,training,05,1_A,89.0,10110,kill,0.0,5000.0,3.05964175625
89,2_25_1,25,1.0,497.873256096,2_ND,training,05,1_A,90.0,11100,kill,0.0,4900.0,1.02946984428
90,2_25_1,25,1.0,501.045304694,2_ND,training,05,1_A,91.0,11001,ignore,1.0,5000.0,1.13628163273
91,2_25_1,25,1.0,508.045638248,2_ND,training,05,1_A,92.0,10000,kill,1.0,5100.0,4.97487502137
92,2_25_1,25,1.0,513.53023301,2_ND,training,05,1_A,93.0,11010,kill,1.0,5200.0,3.49905466218
93,2_25_1,25,1.0,517.842968723,2_ND,training,05,1_A,94.0,01110,kill,1.0,5300.0,2.28187552459
94,2_25_1,25,1.0,527.49963293,2_ND,training,05,1_A,95.0,11011,ignore,1.0,5400.0,7.65889292682
95,2_25_1,25,1.0,532.718649503,2_ND,training,05,1_A,96.0,01101,ignore,1.0,5500.0,3.19163432954
96,2_25_1,25,1.0,539.234580089,2_ND,training,05,1_A,97.0,11101,ignore,1.0,5600.0,4.49086205509
97,2_25_1,25,1.0,543.109761178,2_ND,training,05,1_A,98.0,11110,kill,0.0,5500.0,1.87385809766
98,2_25_1,25,1.0,554.360304407,2_ND,training,05,1_A,99.0,10010,kill,1.0,5600.0,9.23515033838
99,2_25_1,25,1.0,558.879289901,2_ND,training,05,1_A,100.0,10110,kill,0.0,5500.0,2.52882791259
100,2_25_1,25,1.0,564.129497651,2_ND,training,05,1_A,101.0,11001,ignore,1.0,5600.0,3.24878469165
101,2_25_1,25,1.0,570.301668766,2_ND,training,05,1_A,102.0,10101,ignore,1.0,5700.0,4.14512146348
102,2_25_1,25,1.0,578.180181229,2_ND,training,05,1_A,103.0,00010,kill,1.0,5800.0,5.89477034946
103,2_25_1,25,1.0,585.196125767,2_ND,training,05,1_A,104.0,11010,kill,1.0,5900.0,5.01291657005
104,2_25_1,25,1.0,593.055876441,2_ND,training,05,1_A,105.0,10001,ignore,1.0,6000.0,5.86313368504
105,2_25_1,25,1.0,598.274890448,2_ND,training,05,1_A,106.0,01101,ignore,1.0,6100.0,3.19714278658
106,2_25_1,25,1.0,603.431368474,2_ND,training,05,1_A,107.0,11100,kill,0.0,6000.0,3.13693334655
107,2_25_1,25,1.0,610.791108083,2_ND,training,05,1_A,108.0,10111,kill,0.0,5900.0,5.35933100551
108,2_25_1,25,1.0,614.791293783,2_ND,training,05,1_A,109.0,01001,ignore,1.0,6000.0,1.98662126479
109,2_25_1,25,1.0,621.338467183,2_ND,training,05,1_A,110.0,00011,ignore,1.0,6100.0,4.54321212162
110,2_25_1,25,1.0,626.823154314,2_ND,training,05,1_A,111.0,01010,ignore,0.0,6000.0,3.49265202299
111,2_25_1,25,1.0,641.058149421,2_ND,training,05,1_A,112.0,01000,kill,1.0,6100.0,12.2118316846
112,2_25_1,25,1.0,647.402211978,2_ND,training,05,1_A,113.0,11000,kill,1.0,6200.0,4.36087433566
113,2_25_1,25,1.0,653.433795723,2_ND,training,05,1_A,114.0,10011,kill,0.0,6100.0,4.01212405783
114,2_25_1,25,1.0,657.668386396,2_ND,training,05,1_A,115.0,11111,ignore,1.0,6200.0,2.21463963465
115,2_25_1,25,1.0,665.93438249,2_ND,training,05,1_A,116.0,00000,kill,1.0,6300.0,6.25820952535
116,2_25_1,25,1.0,669.497033451,2_ND,training,05,1_A,117.0,00111,ignore,1.0,6400.0,1.53607566295
117,2_25_1,25,1.0,674.012892836,2_ND,training,05,1_A,118.0,10100,kill,0.0,6300.0,2.52001983365
118,2_25_1,25,1.0,680.325771914,2_ND,training,05,1_A,119.0,00001,ignore,1.0,6400.0,4.26997052214
119,2_25_1,25,1.0,687.685502222,2_ND,training,05,1_A,120.0,00110,ignore,0.0,6300.0,5.34143453371
120,2_25_1,25,1.0,693.048236123,2_ND,training,05,1_A,121.0,00100,kill,1.0,6400.0,3.37757835078
121,2_25_1,25,1.0,697.04842952,2_ND,training,05,1_A,122.0,00101,ignore,1.0,6500.0,1.9738182315
122,2_25_1,25,1.0,703.204987407,2_ND,training,05,1_A,123.0,01110,kill,1.0,6600.0,4.18056674085
123,2_25_1,25,1.0,708.939621858,2_ND,training,05,1_A,124.0,10000,ignore,0.0,6500.0,3.72799126858
124,2_25_1,25,1.0,714.424223356,2_ND,training,05,1_A,125.0,01011,ignore,1.0,6600.0,3.47095848435
125,2_25_1,25,1.0,720.487067233,2_ND,training,05,1_A,126.0,01100,kill,1.0,6700.0,4.07951517881
126,2_25_1,25,1.0,723.768436333,2_ND,training,05,1_A,127.0,11011,ignore,1.0,6800.0,1.30425573609
127,2_25_1,25,1.0,726.596719044,2_ND,training,05,1_A,128.0,01111,ignore,1.0,6900.0,0.808888131978
128,2_25_1,25,1.0,729.409353248,2_ND,training,05,1_A,129.0,10001,ignore,1.0,7000.0,0.822480149509
129,2_25_1,25,1.0,732.237625055,2_ND,training,05,1_A,130.0,11100,kill,0.0,6900.0,0.827666277626
130,2_25_1,25,1.0,739.206669932,2_ND,training,05,1_A,131.0,10000,kill,1.0,7000.0,4.96845153504
131,2_25_1,25,1.0,746.910169333,2_ND,training,05,1_A,132.0,11000,kill,1.0,7100.0,5.69140805784
132,2_25_1,25,1.0,751.629146617,2_ND,training,05,1_A,133.0,01111,ignore,1.0,7200.0,2.72174033246
133,2_25_1,25,1.0,758.160684017,2_ND,training,05,1_A,134.0,01110,kill,1.0,7300.0,4.55442852685
134,2_25_1,25,1.0,761.457712209,2_ND,training,05,1_A,135.0,10110,kill,0.0,7200.0,1.294199715
135,2_25_1,25,1.0,776.770936707,2_ND,training,05,1_A,136.0,10100,kill,0.0,7100.0,13.3289037962
136,2_25_1,25,1.0,782.286827844,2_ND,training,05,1_A,137.0,01101,ignore,1.0,7200.0,3.486350733
137,2_25_1,25,1.0,790.349687116,2_ND,training,05,1_A,138.0,10010,ignore,0.0,7100.0,6.02087344404
138,2_25_1,25,1.0,793.912372395,2_ND,training,05,1_A,139.0,00110,kill,1.0,7200.0,1.57364766979
139,2_25_1,25,1.0,797.881312074,2_ND,training,05,1_A,140.0,00000,kill,1.0,7300.0,1.96317015151
140,2_25_1,25,1.0,800.56894712,2_ND,training,05,1_A,141.0,00111,ignore,1.0,7400.0,0.706553348004
141,2_25_1,25,1.0,805.053508526,2_ND,training,05,1_A,142.0,11101,ignore,1.0,7500.0,2.4844087413
142,2_25_1,25,1.0,807.944285204,2_ND,training,05,1_A,143.0,11011,ignore,1.0,7600.0,0.910224177363
143,2_25_1,25,1.0,815.522758828,2_ND,training,05,1_A,144.0,01011,ignore,1.0,7700.0,5.60113446953
144,2_25_1,25,1.0,819.022920313,2_ND,training,05,1_A,145.0,00011,ignore,1.0,7800.0,1.50686175745
145,2_25_1,25,1.0,822.585637664,2_ND,training,05,1_A,146.0,00010,kill,1.0,7900.0,1.56370358183
146,2_25_1,25,1.0,828.88275149,2_ND,training,05,1_A,147.0,00101,ignore,1.0,8000.0,4.29802628857
147,2_25_1,25,1.0,831.711047351,2_ND,training,05,1_A,148.0,00001,ignore,1.0,8100.0,0.8251610923
148,2_25_1,25,1.0,837.992594774,2_ND,training,05,1_A,149.0,11010,kill,1.0,8200.0,4.32806349591
149,2_25_1,25,1.0,840.648965517,2_ND,training,05,1_A,150.0,01010,kill,1.0,8300.0,0.694799407171
150,2_25_1,25,1.0,929.231279825,2_ND,test,05,2,0.0,10101,ignore,0.0,0.0,7.41136002602
151,2_25_1,25,1.0,962.748464768,2_ND,test,05,2,1.0,01100,,,0.0,
152,2_25_1,25,1.0,973.545818977,2_ND,test,05,2,2.0,10111,kill,1.0,100.0,8.687848007
153,2_25_1,25,1.0,982.640037807,2_ND,test,05,2,3.0,11111,kill,1.0,200.0,7.10834774192
154,2_25_1,25,1.0,993.749896807,2_ND,test,05,2,4.0,11110,kill,1.0,300.0,9.10462764915
155,2_25_1,25,1.0,1003.35974602,2_ND,test,05,2,5.0,11001,ignore,1.0,400.0,7.61139864134
156,2_25_1,25,1.0,1012.46957295,2_ND,test,05,2,6.0,01001,ignore,1.0,500.0,7.10756645508
157,2_25_1,25,1.0,1026.40772076,2_ND,test,05,2,7.0,01000,ignore,1.0,600.0,11.9270481438
158,2_25_1,25,1.0,1030.09539942,2_ND,test,05,2,8.0,10011,kill,0.0,500.0,1.7115871316
159,2_25_1,25,1.0,1045.89300893,2_ND,test,05,2,9.0,00100,ignore,0.0,400.0,13.7589762192
160,2_25_1,25,1.0,1051.8620073,2_ND,test,05,2,10.0,10001,ignore,1.0,500.0,3.96343090118
161,2_25_1,25,1.0,1063.97197919,2_ND,test,05,2,11.0,01010,kill,0.0,400.0,10.1457930623
162,2_25_1,25,1.0,1075.08187989,2_ND,test,05,2,12.0,11011,kill,0.0,300.0,9.11478245363
163,2_25_1,25,1.0,1103.00507772,2_ND,test,05,2,13.0,11000,ignore,1.0,400.0,25.9662712444
164,2_25_1,25,1.0,1121.33404117,2_ND,test,05,2,14.0,01011,kill,0.0,300.0,16.3298245985
165,2_25_1,25,1.0,1140.86625595,2_ND,test,05,2,15.0,01100,ignore,1.0,400.0,17.5420543033
166,2_25_1,25,1.0,1152.41364744,2_ND,test,05,2,16.0,01110,ignore,0.0,300.0,9.60299724208
167,2_25_1,25,1.0,1185.91519606,2_ND,test,05,2,17.0,11101,,,200.0,
168,2_25_1,25,1.0,1196.35323979,2_ND,test,05,2,18.0,00100,ignore,0.0,100.0,8.4184268873
169,2_25_1,25,1.0,1215.77603688,2_ND,test,05,2,19.0,00110,kill,1.0,200.0,17.4334596029
170,2_25_1,25,1.0,1226.77653497,2_ND,test,05,2,20.0,01000,ignore,1.0,300.0,9.00965351084
171,2_25_1,25,1.0,1242.49603888,2_ND,test,05,2,21.0,11001,ignore,1.0,400.0,13.7619329857
172,2_25_1,25,1.0,1248.4338108,2_ND,test,05,2,22.0,00001,ignore,1.0,500.0,3.92611836111
173,2_25_1,25,1.0,1267.05968602,2_ND,test,05,2,23.0,01001,ignore,1.0,600.0,16.6126369617
174,2_25_1,25,1.0,1275.35692845,2_ND,test,05,2,24.0,00011,kill,0.0,500.0,6.30109915768
175,2_25_1,25,1.0,1293.95158074,2_ND,test,05,2,25.0,11111,kill,1.0,600.0,16.5939033969
176,2_25_1,25,1.0,1302.5144684,2_ND,test,05,2,26.0,11010,kill,0.0,500.0,6.61348912885
177,2_25_1,25,1.0,1329.80265227,2_ND,test,05,2,27.0,00111,kill,1.0,600.0,25.2531975511
178,2_25_1,25,1.0,1334.69351619,2_ND,test,05,2,28.0,01111,kill,1.0,700.0,2.88521754637
179,2_25_1,25,1.0,1343.36576347,2_ND,test,05,2,29.0,10011,kill,0.0,600.0,6.69447804042
180,2_25_1,25,1.0,1356.1944782,2_ND,test,05,3,0.0,10100,kill,1.0,700.0,10.8359515743
181,2_25_1,25,1.0,1361.05410251,2_ND,test,05,3,1.0,10000,ignore,0.0,600.0,2.8978461051
182,2_25_1,25,1.0,1367.11687166,2_ND,test,05,3,2.0,10110,kill,1.0,700.0,4.06641643679
183,2_25_1,25,1.0,1380.46126649,2_ND,test,05,3,3.0,00010,kill,0.0,600.0,11.3464388106
184,2_25_1,25,1.0,1394.30567719,2_ND,test,05,3,4.0,00101,ignore,1.0,700.0,11.8838579918
185,2_25_1,25,1.0,1424.54148117,2_ND,test,05,3,5.0,10101,ignore,1.0,800.0,28.2619825378
186,2_25_1,25,1.0,1440.82351513,2_ND,test,05,3,6.0,10111,kill,0.0,700.0,14.2754337569
187,2_25_1,25,1.0,1474.32506792,2_ND,test,05,3,7.0,10010,,,600.0,
188,2_25_1,25,1.0,1490.37271102,2_ND,test,05,3,8.0,01101,ignore,1.0,700.0,14.0528327581
189,2_25_1,25,1.0,1514.68635599,2_ND,test,05,3,9.0,11100,ignore,0.0,600.0,22.3512156932
190,2_25_1,25,1.0,1522.23358552,2_ND,test,05,3,10.0,11110,kill,1.0,700.0,5.55088707807
191,2_25_1,25,1.0,1540.09379066,2_ND,test,05,3,11.0,00000,ignore,1.0,800.0,15.8662350987
192,2_25_1,25,1.0,1554.14131317,2_ND,test,05,3,12.0,10001,ignore,0.0,700.0,12.0582344136
193,2_25_1,25,1.0,1587.64291952,2_ND,test,05,3,13.0,01010,,,600.0,
194,2_25_1,25,1.0,1621.14447135,2_ND,test,05,3,14.0,10101,,,500.0,
195,2_25_1,25,1.0,1627.86356538,2_ND,test,05,3,15.0,00001,ignore,1.0,600.0,4.70236563775
196,2_25_1,25,1.0,1635.97334324,2_ND,test,05,3,16.0,00101,ignore,1.0,700.0,6.10087676676
197,2_25_1,25,1.0,1640.81729851,2_ND,test,05,3,17.0,01000,ignore,1.0,800.0,2.86740574605
198,2_25_1,25,1.0,1645.95819121,2_ND,test,05,3,18.0,10010,kill,1.0,900.0,3.16464850271
199,2_25_1,25,1.0,1654.31791799,2_ND,test,05,3,19.0,11110,kill,1.0,1000.0,6.4288697031
200,2_25_1,25,1.0,1659.05253737,2_ND,test,05,3,20.0,11111,kill,0.0,900.0,2.76670441603
201,2_25_1,25,1.0,1664.34966114,2_ND,test,05,3,21.0,11010,kill,1.0,1000.0,3.32544349093
202,2_25_1,25,1.0,1674.24073352,2_ND,test,05,3,22.0,11001,ignore,0.0,900.0,7.92573766017
203,2_25_1,25,1.0,1693.30410756,2_ND,test,05,3,23.0,10100,kill,1.0,1000.0,17.0726923895
204,2_25_1,25,1.0,1709.42992906,2_ND,test,05,3,24.0,01011,kill,0.0,900.0,14.1849683749
205,2_25_1,25,1.0,1713.75825266,2_ND,test,05,3,25.0,11101,kill,0.0,800.0,2.35044819757
206,2_25_1,25,1.0,1717.83652824,2_ND,test,05,3,26.0,10110,kill,1.0,900.0,2.08465448103
207,2_25_1,25,1.0,1731.71217502,2_ND,test,05,3,27.0,00010,ignore,1.0,1000.0,11.9280330912
208,2_25_1,25,1.0,1736.71412247,2_ND,test,05,3,28.0,00100,ignore,1.0,1100.0,3.00058949311
209,2_25_1,25,1.0,1749.27718428,2_ND,test,05,3,29.0,10000,kill,1.0,1200.0,10.5722316676
210,2_25_1,25,1.0,1761.05900608,2_ND,test,05,3,30.0,10111,kill,0.0,1100.0,9.79608990957
211,2_25_1,25,1.0,1766.85613706,2_ND,test,05,3,31.0,00011,ignore,1.0,1200.0,3.82751970617
212,2_25_1,25,1.0,1773.12450139,2_ND,test,05,4,0.0,10011,kill,1.0,1300.0,4.30393019991
213,2_25_1,25,1.0,1781.37489452,2_ND,test,05,4,1.0,11000,kill,0.0,1200.0,6.26289596345
214,2_25_1,25,1.0,1805.12597128,2_ND,test,05,4,2.0,01111,ignore,0.0,1100.0,21.7664712487
215,2_25_1,25,1.0,1811.00123896,2_ND,test,05,4,3.0,01101,ignore,1.0,1200.0,3.91026170222
216,2_25_1,25,1.0,1818.31409815,2_ND,test,05,4,4.0,00110,ignore,0.0,1100.0,5.34202787552
217,2_25_1,25,1.0,1822.65805872,2_ND,test,05,4,5.0,00000,ignore,1.0,1200.0,2.39666695852
218,2_25_1,25,1.0,1835.06488016,2_ND,test,05,4,6.0,01100,ignore,1.0,1300.0,10.409713743
219,2_25_1,25,1.0,1856.1127529,2_ND,test,05,4,7.0,00111,ignore,0.0,1200.0,19.0717773602
220,2_25_1,25,1.0,1863.22248393,2_ND,test,05,4,8.0,01001,ignore,1.0,1300.0,5.1337953702
221,2_25_1,25,1.0,1867.17580012,2_ND,test,05,4,9.0,11011,kill,0.0,1200.0,1.96345720065
222,2_25_1,25,1.0,1879.23884798,2_ND,test,05,4,10.0,11100,kill,0.0,1100.0,10.107288707
223,2_25_1,25,1.0,1889.27056483,2_ND,test,05,4,11.0,01110,ignore,0.0,1000.0,8.05475871354
224,2_25_1,25,1.0,1893.83329725,2_ND,test,05,4,12.0,01100,ignore,1.0,1100.0,2.59712893125
225,2_25_1,25,1.0,1897.78662434,2_ND,test,05,4,13.0,10010,kill,1.0,1200.0,2.01201950138
226,2_25_1,25,1.0,1905.00568806,2_ND,test,05,4,14.0,00111,ignore,0.0,1100.0,5.25001371101
227,2_25_1,25,1.0,1910.16221324,2_ND,test,05,4,15.0,00101,ignore,1.0,1200.0,3.15412614703
228,2_25_1,25,1.0,1916.13121963,2_ND,test,05,4,16.0,10101,kill,0.0,1100.0,3.98451570319
229,2_25_1,25,1.0,1920.36580324,2_ND,test,05,4,17.0,10100,kill,0.0,1000.0,2.25265744966
230,2_25_1,25,1.0,1926.36608484,2_ND,test,05,4,18.0,00001,ignore,1.0,1100.0,4.04119427839
231,2_25_1,25,1.0,1931.99975208,2_ND,test,05,4,19.0,10111,kill,1.0,1200.0,3.63488888312
232,2_25_1,25,1.0,1946.64827628,2_ND,test,05,4,20.0,01111,ignore,0.0,1100.0,12.6615132525
233,2_25_1,25,1.0,1952.82043264,2_ND,test,05,4,21.0,01010,ignore,0.0,1000.0,4.21728112823
234,2_25_1,25,1.0,1957.7581975,2_ND,test,05,4,22.0,01000,ignore,1.0,1100.0,2.9482740649
235,2_25_1,25,1.0,1961.72712018,2_ND,test,05,4,23.0,10110,kill,1.0,1200.0,2.02018067739
236,2_25_1,25,1.0,1966.1960876,2_ND,test,05,4,24.0,10001,kill,0.0,1100.0,2.46332842944
237,2_25_1,25,1.0,1970.83692465,2_ND,test,05,4,25.0,11010,kill,0.0,1000.0,2.66714935824
238,2_25_1,25,1.0,1994.6818142,2_ND,test,05,4,26.0,11001,kill,0.0,900.0,21.8855982473
239,2_25_1,25,1.0,1999.08824693,2_ND,test,05,4,27.0,11011,kill,0.0,800.0,2.44065892372
240,2_25_1,25,1.0,2011.02631583,2_ND,test,05,4,28.0,00000,ignore,1.0,900.0,9.98089503527
241,2_25_1,25,1.0,2017.05785852,2_ND,test,05,4,29.0,11000,kill,0.0,800.0,4.07870983758
242,2_25_1,25,1.0,2028.83966654,2_ND,test,05,4,30.0,01011,ignore,0.0,700.0,9.81538923383
243,2_25_1,25,1.0,2034.68369237,2_ND,test,05,4,31.0,01110,ignore,0.0,600.0,3.9042907593
244,2_25_1,25,1.0,2038.5120001,2_ND,test,05,4,32.0,10011,kill,1.0,700.0,1.88144902408
245,2_25_1,25,1.0,2053.32517729,2_ND,test,05,4,33.0,00010,ignore,0.0,600.0,12.8775451557
246,2_25_1,25,1.0,2057.45040641,2_ND,test,05,4,34.0,11110,kill,0.0,500.0,2.16894397666
247,2_25_1,25,1.0,2066.26330617,2_ND,test,05,4,35.0,01101,ignore,1.0,600.0,6.8399163805
248,2_25_1,25,1.0,2082.29532033,2_ND,test,05,4,36.0,00100,ignore,1.0,700.0,14.0723517792
249,2_25_1,25,1.0,2089.56126222,2_ND,test,05,4,37.0,11101,kill,0.0,600.0,5.31497950726
250,2_25_1,25,1.0,2097.46785803,2_ND,test,05,4,38.0,00011,ignore,0.0,500.0,5.92962805807
251,2_25_1,25,1.0,2103.39005264,2_ND,test,05,4,39.0,11100,kill,0.0,400.0,3.96800797195
252,2_25_1,25,1.0,2107.42146127,2_ND,test,05,4,40.0,01001,ignore,1.0,500.0,2.06101830925
253,2_25_1,25,1.0,2110.87478628,2_ND,test,05,4,41.0,10000,kill,0.0,400.0,1.5059560292
254,2_25_1,25,1.0,2133.76649306,2_ND,test,05,4,42.0,00110,kill,1.0,500.0,20.8830029382
255,2_25_1,25,1.0,2137.92433866,2_ND,test,05,4,43.0,11111,kill,0.0,400.0,2.18293882518
256,2_25_1,25,1.0,2146.95600098,2_ND,test,05,4,44.0,01101,ignore,1.0,500.0,7.07726047994
257,2_25_1,25,1.0,2152.06563611,2_ND,test,05,4,45.0,11001,kill,0.0,400.0,3.14043374248
258,2_25_1,25,1.0,2164.69120696,2_ND,test,05,4,46.0,01000,kill,0.0,300.0,10.7013470142
