,unique_id,pair_id,sbj_id,wall_time,condition,block,rule_id,rule_num,trial,stimulus,choice,correct,points,reaction_time
0,3_33_1,33,1.0,39.1452005534,3_D,training,03,1_A,1.0,11110,kill,1.0,100.0,3.4514006444
1,3_33_1,33,1.0,45.5986952207,3_D,training,03,1_A,2.0,01111,ignore,0.0,0.0,4.32608673341
2,3_33_1,33,1.0,49.5207481136,3_D,training,03,1_A,3.0,11011,kill,0.0,0.0,1.79096077452
3,3_33_1,33,1.0,57.4586747199,3_D,training,03,1_A,4.0,01010,ignore,0.0,0.0,5.7903090584
4,3_33_1,33,1.0,62.740190101,3_D,training,03,1_A,5.0,00000,ignore,1.0,100.0,3.14631892652
5,3_33_1,33,1.0,67.2560519474,3_D,training,03,1_A,6.0,10101,kill,0.0,0.0,2.35450373678
6,3_33_1,33,1.0,73.9207966075,3_D,training,03,1_A,7.0,10010,kill,0.0,0.0,4.53106652444
7,3_33_1,33,1.0,82.3274616876,3_D,training,03,1_A,8.0,11001,ignore,1.0,100.0,6.26677928441
8,3_33_1,33,1.0,87.7990751533,3_D,training,03,1_A,9.0,01000,ignore,0.0,0.0,3.34921175065
9,3_33_1,33,1.0,94.2838316674,3_D,training,03,1_A,10.0,11010,kill,1.0,100.0,4.3327007539
10,3_33_1,33,1.0,103.753023007,3_D,training,03,1_A,11.0,11101,ignore,1.0,200.0,7.307710071
11,3_33_1,33,1.0,110.565861814,3_D,training,03,1_A,12.0,00100,ignore,1.0,300.0,4.63256681854
12,3_33_1,33,1.0,117.175547047,3_D,training,03,1_A,13.0,10100,ignore,1.0,400.0,4.45172778536
13,3_33_1,33,1.0,121.785252806,3_D,training,03,1_A,14.0,00011,kill,0.0,300.0,2.43738105058
14,3_33_1,33,1.0,126.019763804,3_D,training,03,1_A,15.0,00010,ignore,1.0,400.0,2.07444894388
15,3_33_1,33,1.0,132.801356801,3_D,training,03,1_A,16.0,11100,ignore,0.0,300.0,4.68738634257
16,3_33_1,33,1.0,139.176686267,3_D,training,03,1_A,17.0,00001,ignore,1.0,400.0,4.26665163529
17,3_33_1,33,1.0,145.333221293,3_D,training,03,1_A,18.0,01001,ignore,0.0,300.0,4.07128241181
18,3_33_1,33,1.0,149.192832277,3_D,training,03,1_A,19.0,10001,kill,0.0,200.0,1.73093906775
19,3_33_1,33,1.0,158.146374412,3_D,training,03,1_A,20.0,00101,ignore,1.0,300.0,6.85436839023
20,3_33_1,33,1.0,166.162425167,3_D,training,03,1_A,21.0,11111,kill,0.0,200.0,5.93750773753
21,3_33_1,33,1.0,171.273785874,3_D,training,03,1_A,22.0,00110,kill,0.0,100.0,3.02650547384
22,3_33_1,33,1.0,179.801871246,3_D,training,03,1_A,23.0,10000,ignore,1.0,200.0,6.48273208887
23,3_33_1,33,1.0,184.286533467,3_D,training,03,1_A,24.0,01110,ignore,0.0,100.0,2.40627443535
24,3_33_1,33,1.0,189.708612339,3_D,training,03,1_A,25.0,10011,kill,0.0,0.0,3.33513538825
25,3_33_1,33,1.0,196.583986065,3_D,training,03,1_A,26.0,10111,kill,0.0,0.0,4.82697097618
26,3_33_1,33,1.0,201.599874853,3_D,training,03,1_A,27.0,01011,ignore,0.0,0.0,2.95433400835
27,3_33_1,33,1.0,207.209524485,3_D,training,03,1_A,28.0,01100,ignore,0.0,0.0,3.53316824475
28,3_33_1,33,1.0,210.631590207,3_D,training,03,1_A,29.0,01101,kill,1.0,100.0,1.35248027372
29,3_33_1,33,1.0,215.384951259,3_D,training,03,1_A,30.0,11000,ignore,0.0,0.0,2.6847403495
30,3_33_1,33,1.0,221.603990093,3_D,training,03,1_A,31.0,10110,kill,0.0,0.0,4.15509336026
31,3_33_1,33,1.0,230.088805621,3_D,training,03,1_A,32.0,00111,ignore,1.0,100.0,6.39634378282
32,3_33_1,33,1.0,234.44841853,3_D,training,03,1_A,33.0,11001,ignore,1.0,200.0,2.3072392446
33,3_33_1,33,1.0,239.276745538,3_D,training,03,1_A,34.0,11000,ignore,0.0,100.0,2.76976107805
34,3_33_1,33,1.0,246.355264179,3_D,training,03,1_A,35.0,11101,ignore,1.0,200.0,5.00446547412
35,3_33_1,33,1.0,250.41796748,3_D,training,03,1_A,36.0,00111,ignore,1.0,300.0,2.01179439383
36,3_33_1,33,1.0,253.98067078,3_D,training,03,1_A,37.0,01001,ignore,0.0,200.0,1.5099024286
37,3_33_1,33,1.0,258.845436159,3_D,training,03,1_A,38.0,00010,ignore,1.0,300.0,2.79563279646
38,3_33_1,33,1.0,262.501861175,3_D,training,03,1_A,39.0,00110,kill,0.0,200.0,1.59001892928
39,3_33_1,33,1.0,267.127100999,3_D,training,03,1_A,40.0,10111,ignore,1.0,300.0,2.55231882003
40,3_33_1,33,1.0,273.393062751,3_D,training,03,1_A,41.0,11010,kill,1.0,400.0,4.23808292831
41,3_33_1,33,1.0,278.252653851,3_D,training,03,1_A,42.0,10011,kill,0.0,300.0,2.80475585983
42,3_33_1,33,1.0,282.815371263,3_D,training,03,1_A,43.0,01010,kill,1.0,400.0,2.5272973474
43,3_33_1,33,1.0,287.06563923,3_D,training,03,1_A,44.0,10101,ignore,1.0,500.0,2.19712135198
44,3_33_1,33,1.0,291.253326735,3_D,training,03,1_A,45.0,11100,ignore,0.0,400.0,2.15205062859
45,3_33_1,33,1.0,295.894197482,3_D,training,03,1_A,46.0,01110,kill,1.0,500.0,2.59647739744
46,3_33_1,33,1.0,300.394420386,3_D,training,03,1_A,47.0,10010,ignore,1.0,600.0,2.43889487935
47,3_33_1,33,1.0,306.316587458,3_D,training,03,1_A,48.0,10110,kill,0.0,500.0,3.8630036287
48,3_33_1,33,1.0,311.301235567,3_D,training,03,1_A,49.0,10001,kill,0.0,400.0,2.93416384374
49,3_33_1,33,1.0,314.348237704,3_D,training,03,1_A,50.0,01000,ignore,0.0,300.0,0.994054052668
50,3_33_1,33,1.0,319.37976383,3_D,training,03,1_A,51.0,00000,ignore,1.0,400.0,2.94955101507
51,3_33_1,33,1.0,328.411431716,3_D,training,03,1_A,52.0,10000,ignore,1.0,500.0,6.99340682673
52,3_33_1,33,1.0,334.614950599,3_D,training,03,1_A,53.0,10100,ignore,1.0,600.0,4.1604206263
53,3_33_1,33,1.0,338.615117697,3_D,training,03,1_A,54.0,00001,ignore,1.0,700.0,1.95610538044
54,3_33_1,33,1.0,342.005950438,3_D,training,03,1_A,55.0,11011,ignore,1.0,800.0,1.35267431321
55,3_33_1,33,1.0,345.599889285,3_D,training,03,1_A,56.0,01101,kill,1.0,900.0,1.54193273597
56,3_33_1,33,1.0,348.94377377,3_D,training,03,1_A,57.0,01111,kill,1.0,1000.0,1.324367319
57,3_33_1,33,1.0,352.600193013,3_D,training,03,1_A,58.0,00011,ignore,1.0,1100.0,1.61934038119
58,3_33_1,33,1.0,364.632097275,3_D,training,03,1_A,59.0,01100,ignore,0.0,1000.0,10.0070165322
59,3_33_1,33,1.0,369.210435989,3_D,training,03,1_A,60.0,00100,ignore,1.0,1100.0,2.53902919958
60,3_33_1,33,1.0,372.898102326,3_D,training,03,1_A,61.0,11111,kill,0.0,1000.0,1.66539509327
61,3_33_1,33,1.0,378.835905773,3_D,training,03,1_A,62.0,11110,kill,1.0,1100.0,3.9229833203
62,3_33_1,33,1.0,384.414343592,3_D,training,03,1_A,63.0,01011,ignore,0.0,1000.0,3.55258245716
63,3_33_1,33,1.0,391.507225967,3_D,training,03,1_A,64.0,00101,kill,0.0,900.0,5.06081871195
64,3_33_1,33,1.0,397.382601617,3_D,training,03,1_A,65.0,01010,ignore,0.0,800.0,3.86818400204
65,3_33_1,33,1.0,401.757731271,3_D,training,03,1_A,66.0,01000,ignore,0.0,700.0,2.34788137741
66,3_33_1,33,1.0,405.523557677,3_D,training,03,1_A,67.0,00101,kill,0.0,600.0,1.72818883859
67,3_33_1,33,1.0,410.743232512,3_D,training,03,1_A,68.0,10000,ignore,1.0,700.0,3.19995176274
68,3_33_1,33,1.0,417.118526057,3_D,training,03,1_A,69.0,00000,ignore,1.0,800.0,4.34623637153
69,3_33_1,33,1.0,425.41583529,3_D,training,03,1_A,70.0,11110,ignore,0.0,700.0,6.27913559095
70,3_33_1,33,1.0,429.181634755,3_D,training,03,1_A,71.0,00111,kill,0.0,600.0,1.70659849733
71,3_33_1,33,1.0,438.291501519,3_D,training,03,1_A,72.0,10010,ignore,1.0,700.0,7.11571649323
72,3_33_1,33,1.0,446.385629596,3_D,training,03,1_A,73.0,00011,ignore,1.0,800.0,6.0459190448
73,3_33_1,33,1.0,451.151528486,3_D,training,03,1_A,74.0,10110,ignore,1.0,900.0,2.73288331139
74,3_33_1,33,1.0,457.058066879,3_D,training,03,1_A,75.0,11100,kill,1.0,1000.0,3.8905594816
75,3_33_1,33,1.0,465.483108622,3_D,training,03,1_A,76.0,10100,kill,0.0,900.0,6.38496248463
76,3_33_1,33,1.0,471.158513266,3_D,training,03,1_A,77.0,11111,kill,0.0,800.0,3.69063465988
77,3_33_1,33,1.0,476.549314255,3_D,training,03,1_A,78.0,11001,kill,0.0,700.0,3.37006057239
78,3_33_1,33,1.0,484.565340955,3_D,training,03,1_A,79.0,01001,ignore,0.0,600.0,5.99836269156
79,3_33_1,33,1.0,488.128054518,3_D,training,03,1_A,80.0,00001,ignore,1.0,700.0,1.56013973409
80,3_33_1,33,1.0,494.690835435,3_D,training,03,1_A,81.0,00010,ignore,1.0,800.0,4.53412465097
81,3_33_1,33,1.0,498.706666491,3_D,training,03,1_A,82.0,01101,kill,1.0,900.0,2.00250038327
82,3_33_1,33,1.0,503.51945751,3_D,training,03,1_A,83.0,01011,kill,1.0,1000.0,2.79859662942
83,3_33_1,33,1.0,507.394658045,3_D,training,03,1_A,84.0,01110,kill,1.0,1100.0,1.87468063666
84,3_33_1,33,1.0,511.160452378,3_D,training,03,1_A,85.0,11010,kill,1.0,1200.0,1.79819443848
85,3_33_1,33,1.0,513.863712755,3_D,training,03,1_A,86.0,11011,kill,0.0,1100.0,0.723696744179
86,3_33_1,33,1.0,517.535783448,3_D,training,03,1_A,87.0,10011,ignore,1.0,1200.0,1.67686811922
87,3_33_1,33,1.0,521.535967224,3_D,training,03,1_A,88.0,01100,kill,1.0,1300.0,1.99908945766
88,3_33_1,33,1.0,525.145545655,3_D,training,03,1_A,89.0,10101,ignore,1.0,1400.0,1.59487408601
89,3_33_1,33,1.0,529.223851976,3_D,training,03,1_A,90.0,10111,ignore,1.0,1500.0,2.10529288417
90,3_33_1,33,1.0,533.114690169,3_D,training,03,1_A,91.0,11101,kill,0.0,1400.0,1.87314916794
91,3_33_1,33,1.0,536.302343997,3_D,training,03,1_A,92.0,11000,kill,1.0,1500.0,1.19543112368
92,3_33_1,33,1.0,540.130658176,3_D,training,03,1_A,93.0,00110,ignore,1.0,1600.0,1.84193254353
93,3_33_1,33,1.0,543.162036446,3_D,training,03,1_A,94.0,00100,ignore,1.0,1700.0,1.00417553743
94,3_33_1,33,1.0,546.615351186,3_D,training,03,1_A,95.0,01111,kill,1.0,1800.0,1.46629774574
95,3_33_1,33,1.0,551.72502391,3_D,training,03,1_A,96.0,10001,ignore,1.0,1900.0,3.08350497543
96,3_33_1,33,1.0,554.490772701,3_D,training,03,1_A,97.0,00110,ignore,1.0,2000.0,0.755904733987
97,3_33_1,33,1.0,557.615921117,3_D,training,03,1_A,98.0,10010,ignore,1.0,2100.0,1.13970811329
98,3_33_1,33,1.0,560.272339077,3_D,training,03,1_A,99.0,10100,ignore,1.0,2200.0,0.660229152621
99,3_33_1,33,1.0,563.429987986,3_D,training,03,1_A,100.0,01001,kill,1.0,2300.0,1.16821620297
100,3_33_1,33,1.0,566.523922343,3_D,training,03,1_A,101.0,11010,kill,1.0,2400.0,1.10290379297
101,3_33_1,33,1.0,569.820943244,3_D,training,03,1_A,102.0,10110,ignore,1.0,2500.0,1.28821824279
102,3_33_1,33,1.0,572.680450313,3_D,training,03,1_A,103.0,00000,ignore,1.0,2600.0,0.883184056562
103,3_33_1,33,1.0,575.993122663,3_D,training,03,1_A,104.0,00010,ignore,1.0,2700.0,1.31797203394
104,3_33_1,33,1.0,578.852625563,3_D,training,03,1_A,105.0,10111,ignore,1.0,2800.0,0.878473868172
105,3_33_1,33,1.0,581.884028529,3_D,training,03,1_A,106.0,00011,ignore,1.0,2900.0,1.03341424192
106,3_33_1,33,1.0,584.884203646,3_D,training,03,1_A,107.0,11000,kill,1.0,3000.0,0.998247230045
107,3_33_1,33,1.0,587.759352543,3_D,training,03,1_A,108.0,00100,ignore,1.0,3100.0,0.883770023755
108,3_33_1,33,1.0,590.509470089,3_D,training,03,1_A,109.0,10011,ignore,1.0,3200.0,0.741262930887
109,3_33_1,33,1.0,593.66588356,3_D,training,03,1_A,110.0,11100,kill,1.0,3300.0,1.17458262266
110,3_33_1,33,1.0,597.072322848,3_D,training,03,1_A,111.0,01000,kill,1.0,3400.0,1.4217068291
111,3_33_1,33,1.0,599.884979804,3_D,training,03,1_A,112.0,01101,kill,1.0,3500.0,0.826210854537
112,3_33_1,33,1.0,605.150819039,3_D,training,03,1_A,113.0,01111,kill,1.0,3600.0,3.28874391341
113,3_33_1,33,1.0,607.71348289,3_D,training,03,1_A,114.0,11111,kill,0.0,3500.0,0.552242487143
114,3_33_1,33,1.0,611.026125413,3_D,training,03,1_A,115.0,01010,kill,1.0,3600.0,1.34475718122
115,3_33_1,33,1.0,615.323227137,3_D,training,03,1_A,116.0,10000,ignore,1.0,3700.0,2.32212993141
116,3_33_1,33,1.0,618.417169833,3_D,training,03,1_A,117.0,00111,ignore,1.0,3800.0,1.06465812807
117,3_33_1,33,1.0,621.901718516,3_D,training,03,1_A,118.0,11110,kill,1.0,3900.0,1.54120115898
118,3_33_1,33,1.0,625.823773654,3_D,training,03,1_A,119.0,00001,ignore,1.0,4000.0,1.94192349905
119,3_33_1,33,1.0,629.527107798,3_D,training,03,1_A,120.0,01110,kill,1.0,4100.0,1.71784252461
120,3_33_1,33,1.0,632.449083075,3_D,training,03,1_A,121.0,00101,ignore,1.0,4200.0,0.934749490207
121,3_33_1,33,1.0,635.089864018,3_D,training,03,1_A,122.0,10001,ignore,1.0,4300.0,0.63104753743
122,3_33_1,33,1.0,637.996258726,3_D,training,03,1_A,123.0,11011,kill,0.0,4200.0,0.956663765161
123,3_33_1,33,1.0,642.574624702,3_D,training,03,1_A,124.0,11001,kill,0.0,4100.0,2.59708870203
124,3_33_1,33,1.0,646.340449184,3_D,training,03,1_A,125.0,11101,ignore,1.0,4200.0,1.7700285639
125,3_33_1,33,1.0,650.043742275,3_D,training,03,1_A,126.0,10101,ignore,1.0,4300.0,1.72062931658
126,3_33_1,33,1.0,653.968942777,3_D,training,03,1_A,127.0,01100,kill,1.0,4400.0,1.95371276125
127,3_33_1,33,1.0,657.98477255,3_D,training,03,1_A,128.0,01011,kill,1.0,4500.0,2.01711139663
128,3_33_1,33,1.0,661.641184417,3_D,training,03,1_A,129.0,11010,kill,1.0,4600.0,1.69430248736
129,3_33_1,33,1.0,664.516329145,3_D,training,03,1_A,130.0,01010,kill,1.0,4700.0,0.880654166462
130,3_33_1,33,1.0,668.064033032,3_D,training,03,1_A,131.0,10101,ignore,1.0,4800.0,1.56350864454
131,3_33_1,33,1.0,671.048534569,3_D,training,03,1_A,132.0,00011,ignore,1.0,4900.0,0.96962720684
132,3_33_1,33,1.0,674.173726604,3_D,training,03,1_A,133.0,11001,kill,0.0,4800.0,1.12024771627
133,3_33_1,33,1.0,677.673855215,3_D,training,03,1_A,134.0,01110,kill,1.0,4900.0,1.53046804891
134,3_33_1,33,1.0,681.517818919,3_D,training,03,1_A,135.0,01000,kill,1.0,5000.0,1.85001420818
135,3_33_1,33,1.0,685.12740184,3_D,training,03,1_A,136.0,00001,ignore,1.0,5100.0,1.63823790332
136,3_33_1,33,1.0,688.299406784,3_D,training,03,1_A,137.0,00000,ignore,1.0,5200.0,1.1534461093
137,3_33_1,33,1.0,692.290391485,3_D,training,03,1_A,138.0,11101,ignore,1.0,5300.0,2.00858905386
138,3_33_1,33,1.0,695.139342806,3_D,training,03,1_A,139.0,10000,ignore,1.0,5400.0,0.886757269745
139,3_33_1,33,1.0,698.498891249,3_D,training,03,1_A,140.0,10110,ignore,1.0,5500.0,1.37770059674
140,3_33_1,33,1.0,701.233395511,3_D,training,03,1_A,141.0,10011,ignore,1.0,5600.0,0.786292601289
141,3_33_1,33,1.0,703.733550743,3_D,training,03,1_A,142.0,00100,ignore,1.0,5700.0,0.49645052057
142,3_33_1,33,1.0,706.296153015,3_D,training,03,1_A,143.0,00010,ignore,1.0,5800.0,0.56322800891
143,3_33_1,33,1.0,710.440147958,3_D,training,03,1_A,144.0,01111,kill,1.0,5900.0,2.20428670121
144,3_33_1,33,1.0,713.455926415,3_D,training,03,1_A,145.0,10010,ignore,1.0,6000.0,1.03418879626
145,3_33_1,33,1.0,716.065444229,3_D,training,03,1_A,146.0,10111,ignore,1.0,6100.0,0.622598320291
146,3_33_1,33,1.0,719.237487019,3_D,training,03,1_A,147.0,01101,ignore,0.0,6000.0,1.19616815302
147,3_33_1,33,1.0,723.44393702,3_D,training,03,1_A,148.0,01011,kill,1.0,6100.0,2.23477559734
148,3_33_1,33,1.0,727.103519588,3_D,training,03,1_A,149.0,11011,kill,0.0,6000.0,1.72099462398
149,3_33_1,33,1.0,731.931850765,3_D,training,03,1_A,150.0,01001,ignore,0.0,5900.0,2.81689503458
150,3_33_1,33,1.0,735.119545325,3_D,training,03,1_A,151.0,01100,kill,1.0,6000.0,1.1972101932
151,3_33_1,33,1.0,738.13935788,3_D,training,03,1_A,152.0,10100,ignore,1.0,6100.0,1.06776051486
152,3_33_1,33,1.0,740.998861742,3_D,training,03,1_A,153.0,00110,ignore,1.0,6200.0,0.887869549015
153,3_33_1,33,1.0,744.65533166,3_D,training,03,1_A,154.0,11100,kill,1.0,6300.0,1.70018974176
154,3_33_1,33,1.0,748.014838729,3_D,training,03,1_A,155.0,11111,kill,0.0,6200.0,1.34915113335
155,3_33_1,33,1.0,751.202481332,3_D,training,03,1_A,156.0,00111,ignore,1.0,6300.0,1.18024601
156,3_33_1,33,1.0,754.030801604,3_D,training,03,1_A,157.0,10001,ignore,1.0,6400.0,0.859014433332
157,3_33_1,33,1.0,756.90589662,3_D,training,03,1_A,158.0,00101,ignore,1.0,6500.0,0.870729928458
158,3_33_1,33,1.0,760.484241427,3_D,training,03,1_A,159.0,11110,kill,1.0,6600.0,1.63569293908
159,3_33_1,33,1.0,763.296855085,3_D,training,03,1_A,160.0,11000,kill,1.0,6700.0,0.815848183502
160,3_33_1,33,1.0,766.922069571,3_D,training,03,1_A,161.0,00001,ignore,1.0,6800.0,1.63703646211
161,3_33_1,33,1.0,770.500374929,3_D,training,03,1_A,162.0,11110,kill,1.0,6900.0,1.64337080915
162,3_33_1,33,1.0,773.375524147,3_D,training,03,1_A,163.0,10100,ignore,1.0,7000.0,0.911588551606
163,3_33_1,33,1.0,776.203777708,3_D,training,03,1_A,164.0,10101,ignore,1.0,7100.0,0.842094189657
164,3_33_1,33,1.0,778.766414298,3_D,training,03,1_A,165.0,00000,ignore,1.0,7200.0,0.566356053809
165,3_33_1,33,1.0,785.266757796,3_D,training,03,1_A,166.0,01101,ignore,0.0,7100.0,4.5094024161
166,3_33_1,33,1.0,790.54824367,3_D,training,03,1_A,167.0,11000,kill,1.0,7200.0,3.31814907493
167,3_33_1,33,1.0,794.189050592,3_D,training,03,1_A,168.0,11011,kill,0.0,7100.0,1.67831106744
168,3_33_1,33,1.0,797.46824231,3_D,training,03,1_A,169.0,00101,ignore,1.0,7200.0,1.2724128442
169,3_33_1,33,1.0,800.577797969,3_D,training,03,1_A,170.0,10000,ignore,1.0,7300.0,1.13208284235
170,3_33_1,33,1.0,803.718566083,3_D,training,03,1_A,171.0,01110,kill,1.0,7400.0,1.15608344275
171,3_33_1,33,1.0,806.515578645,3_D,training,03,1_A,172.0,10110,ignore,1.0,7500.0,0.820636949866
172,3_33_1,33,1.0,809.468875745,3_D,training,03,1_A,173.0,10111,ignore,1.0,7600.0,0.920318725101
173,3_33_1,33,1.0,812.047121127,3_D,training,03,1_A,174.0,00011,ignore,1.0,7700.0,0.593406762582
174,3_33_1,33,1.0,815.516053641,3_D,training,03,1_A,175.0,01100,kill,1.0,7800.0,1.51321553265
175,3_33_1,33,1.0,818.703713242,3_D,training,03,1_A,176.0,01010,kill,1.0,7900.0,1.21100335416
176,3_33_1,33,1.0,824.844630494,3_D,training,03,1_A,177.0,01111,kill,1.0,8000.0,4.18637605431
177,3_33_1,33,1.0,828.891728529,3_D,training,03,1_A,178.0,11111,ignore,1.0,8100.0,2.05387722977
178,3_33_1,33,1.0,832.079396149,3_D,training,03,1_A,179.0,10011,ignore,1.0,8200.0,1.20125134625
179,3_33_1,33,1.0,835.501392273,3_D,training,03,1_A,180.0,11010,kill,1.0,8300.0,1.47257724857
180,3_33_1,33,1.0,838.311370522,3_D,training,03,1_A,181.0,11100,kill,1.0,8400.0,0.835822384268
181,3_33_1,33,1.0,842.452084112,3_D,training,03,1_A,182.0,01001,kill,1.0,8500.0,2.18603800865
182,3_33_1,33,1.0,968.771004214,3_D,test,03,2,0.0,11001,,,0.0,
183,3_33_1,33,1.0,993.678547122,3_D,test,03,2,1.0,00100,ignore,1.0,100.0,22.9095275636
184,3_33_1,33,1.0,1004.44472184,3_D,test,03,2,2.0,10010,ignore,1.0,200.0,8.79909920774
185,3_33_1,33,1.0,1009.60118277,3_D,test,03,2,3.0,00111,ignore,0.0,100.0,3.19131620355
186,3_33_1,33,1.0,1025.2894864,3_D,test,03,2,4.0,00010,kill,0.0,0.0,13.6923271333
187,3_33_1,33,1.0,1030.3991851,3_D,test,03,2,5.0,10001,ignore,0.0,0.0,3.12469330535
188,3_33_1,33,1.0,1047.79073306,3_D,test,03,2,6.0,01011,ignore,0.0,0.0,15.3956199033
189,3_33_1,33,1.0,1068.69799052,3_D,test,03,2,7.0,11101,ignore,1.0,100.0,18.935249182
190,3_33_1,33,1.0,1076.15153907,3_D,test,03,2,8.0,00110,kill,0.0,0.0,5.44852918065
191,3_33_1,33,1.0,1093.55864771,3_D,test,03,2,9.0,01000,ignore,1.0,100.0,15.4089223528
192,3_33_1,33,1.0,1109.99694508,3_D,test,03,2,10.0,01010,ignore,1.0,200.0,14.4768964714
193,3_33_1,33,1.0,1114.30969761,3_D,test,03,2,11.0,00001,ignore,0.0,100.0,2.31641073767
194,3_33_1,33,1.0,1123.48205439,3_D,test,03,2,12.0,00111,ignore,0.0,0.0,7.20550898964
195,3_33_1,33,1.0,1134.37323929,3_D,test,03,2,13.0,10100,ignore,1.0,100.0,8.88497723805
196,3_33_1,33,1.0,1167.89054569,3_D,test,03,2,14.0,01011,,,0.0,
197,3_33_1,33,1.0,1179.45363739,3_D,test,03,2,15.0,01101,ignore,1.0,100.0,9.57121056909
198,3_33_1,33,1.0,1192.47307373,3_D,test,03,2,16.0,11111,ignore,0.0,0.0,11.0592551706
199,3_33_1,33,1.0,1206.88002105,3_D,test,03,2,17.0,11001,ignore,0.0,0.0,12.4649920684
200,3_33_1,33,1.0,1219.33378,3_D,test,03,2,18.0,00100,ignore,1.0,100.0,10.4433664473
201,3_33_1,33,1.0,1224.2246586,3_D,test,03,2,19.0,00000,ignore,1.0,200.0,2.88744554867
202,3_33_1,33,1.0,1229.50614095,3_D,test,03,2,20.0,11010,kill,0.0,100.0,3.34627068926
203,3_33_1,33,1.0,1242.89747883,3_D,test,03,2,21.0,11000,ignore,1.0,200.0,11.4424632816
204,3_33_1,33,1.0,1254.89809367,3_D,test,03,2,22.0,11100,ignore,1.0,300.0,10.0066518662
205,3_33_1,33,1.0,1274.44596048,3_D,test,03,2,23.0,00101,ignore,1.0,400.0,17.5011045818
206,3_33_1,33,1.0,1280.44626549,3_D,test,03,2,24.0,10011,kill,1.0,500.0,4.01579866334
207,3_33_1,33,1.0,1288.68104943,3_D,test,03,2,25.0,00010,kill,0.0,400.0,6.31677957306
208,3_33_1,33,1.0,1298.00965162,3_D,test,03,2,26.0,10110,ignore,1.0,500.0,7.35526514133
209,3_33_1,33,1.0,1303.7443233,3_D,test,03,2,27.0,01001,ignore,0.0,400.0,3.75829927753
210,3_33_1,33,1.0,1310.29152525,3_D,test,03,2,28.0,11101,kill,0.0,300.0,4.57274299999
211,3_33_1,33,1.0,1316.07309997,3_D,test,03,2,29.0,10101,ignore,1.0,400.0,3.79248518725
212,3_33_1,33,1.0,1337.9179415,3_D,test,03,2,30.0,01000,ignore,1.0,500.0,19.8945105105
213,3_33_1,33,1.0,1344.6370278,3_D,test,03,2,31.0,10111,ignore,0.0,400.0,4.70506350063
214,3_33_1,33,1.0,1356.00331054,3_D,test,03,2,32.0,10000,ignore,1.0,500.0,9.40001674192
215,3_33_1,33,1.0,1365.11314395,3_D,test,03,3,0.0,10001,ignore,1.0,600.0,7.13682702775
216,3_33_1,33,1.0,1376.61373312,3_D,test,03,3,1.0,01110,kill,0.0,500.0,9.53299569393
217,3_33_1,33,1.0,1386.92675955,3_D,test,03,3,2.0,00110,ignore,1.0,600.0,8.36077457999
218,3_33_1,33,1.0,1398.81798134,3_D,test,03,3,3.0,00011,ignore,1.0,700.0,9.8735552076
219,3_33_1,33,1.0,1406.17771067,3_D,test,03,3,4.0,10010,ignore,0.0,600.0,5.38120100503
220,3_33_1,33,1.0,1416.38140948,3_D,test,03,3,5.0,01100,ignore,1.0,700.0,8.2255826156
221,3_33_1,33,1.0,1422.19416329,3_D,test,03,3,6.0,11110,kill,1.0,800.0,3.85785468655
222,3_33_1,33,1.0,1427.78821504,3_D,test,03,3,7.0,11011,ignore,0.0,700.0,3.6534922939
223,3_33_1,33,1.0,1446.58601787,3_D,test,03,3,8.0,01111,ignore,1.0,800.0,16.8404812564
224,3_33_1,33,1.0,1451.11749588,3_D,test,03,3,9.0,01110,ignore,1.0,900.0,2.5693930124
225,3_33_1,33,1.0,1455.43021602,3_D,test,03,3,10.0,11000,kill,1.0,1000.0,2.37771663307
226,3_33_1,33,1.0,1459.75858216,3_D,test,03,3,11.0,10101,kill,0.0,900.0,2.37681891978
227,3_33_1,33,1.0,1467.85275065,3_D,test,03,3,12.0,00010,ignore,1.0,1000.0,6.12776041222
228,3_33_1,33,1.0,1471.57165862,3_D,test,03,3,13.0,00111,ignore,1.0,1100.0,1.74115805334
229,3_33_1,33,1.0,1476.93132862,3_D,test,03,3,14.0,11011,kill,1.0,1200.0,3.38993951741
230,3_33_1,33,1.0,1483.38477005,3_D,test,03,3,15.0,01001,ignore,1.0,1300.0,4.50805985525
231,3_33_1,33,1.0,1486.90059245,3_D,test,03,3,16.0,11010,kill,1.0,1400.0,1.53150495747
232,3_33_1,33,1.0,1490.13509831,3_D,test,03,3,17.0,10010,kill,1.0,1500.0,1.27672372818
233,3_33_1,33,1.0,1493.71341842,3_D,test,03,3,18.0,01101,ignore,1.0,1600.0,1.61725790446
234,3_33_1,33,1.0,1497.52612926,3_D,test,03,3,19.0,01100,ignore,1.0,1700.0,1.83026259156
235,3_33_1,33,1.0,1500.90127271,3_D,test,03,3,20.0,10011,kill,0.0,1600.0,1.44449027269
236,3_33_1,33,1.0,1511.44871135,3_D,test,03,3,21.0,10001,ignore,1.0,1700.0,8.56022568878
237,3_33_1,33,1.0,1521.105434,3_D,test,03,3,22.0,01000,ignore,1.0,1800.0,7.69080977651
238,3_33_1,33,1.0,1524.9650142,3_D,test,03,3,23.0,00101,ignore,1.0,1900.0,1.88879067533
239,3_33_1,33,1.0,1531.7622208,3_D,test,03,3,24.0,10100,ignore,0.0,1800.0,4.80300437278
240,3_33_1,33,1.0,1537.70021219,3_D,test,03,3,25.0,10000,kill,1.0,1900.0,3.99142826536
241,3_33_1,33,1.0,1546.02876018,3_D,test,03,3,26.0,11111,kill,1.0,2000.0,6.37236210527
242,3_33_1,33,1.0,1549.85709553,3_D,test,03,3,27.0,10111,kill,0.0,1900.0,1.84806290857
243,3_33_1,33,1.0,1565.76520965,3_D,test,03,3,28.0,11101,ignore,0.0,1800.0,13.9814244872
244,3_33_1,33,1.0,1570.49981173,3_D,test,03,3,29.0,01011,ignore,1.0,1900.0,2.81230319424
245,3_33_1,33,1.0,1574.73441831,3_D,test,03,3,30.0,00110,ignore,1.0,2000.0,2.26580074806
246,3_33_1,33,1.0,1580.14088165,3_D,test,03,3,31.0,00001,ignore,1.0,2100.0,3.46161257402
247,3_33_1,33,1.0,1582.93791089,3_D,test,03,3,32.0,01111,ignore,1.0,2200.0,0.824395863656
248,3_33_1,33,1.0,1593.51660561,3_D,test,03,3,33.0,11001,ignore,0.0,2100.0,8.65627395426
249,3_33_1,33,1.0,1596.67297803,3_D,test,03,3,34.0,00100,ignore,1.0,2200.0,1.14933215135
250,3_33_1,33,1.0,1599.33571398,3_D,test,03,3,35.0,00011,ignore,1.0,2300.0,0.710172031244
251,3_33_1,33,1.0,1601.65463729,3_D,test,03,3,36.0,00000,ignore,1.0,2400.0,0.386756628293
252,3_33_1,33,1.0,1610.32697964,3_D,test,03,3,37.0,11110,kill,1.0,2500.0,6.69842799146
253,3_33_1,33,1.0,1613.35837362,3_D,test,03,3,38.0,11100,kill,1.0,2600.0,1.09867822223
254,3_33_1,33,1.0,1615.93349353,3_D,test,03,3,39.0,10110,kill,1.0,2700.0,0.580381099977
255,3_33_1,33,1.0,1618.76175543,3_D,test,03,3,40.0,01010,ignore,1.0,2800.0,0.868747197654
256,3_33_1,33,1.0,1622.81748966,3_D,test,03,3,41.0,00110,ignore,1.0,2900.0,2.12960234413
257,3_33_1,33,1.0,1626.00519288,3_D,test,03,3,42.0,01110,ignore,1.0,3000.0,1.21953243218
258,3_33_1,33,1.0,1628.60481115,3_D,test,03,3,43.0,01001,ignore,1.0,3100.0,0.683037612871
259,3_33_1,33,1.0,1631.05804988,3_D,test,03,4,0.0,00111,ignore,0.0,3000.0,0.512155531793
260,3_33_1,33,1.0,1635.04265052,3_D,test,03,4,1.0,11001,kill,0.0,2900.0,2.01962589186
261,3_33_1,33,1.0,1641.85548612,3_D,test,03,4,2.0,10001,ignore,1.0,3000.0,4.87345193369
262,3_33_1,33,1.0,1644.77748032,3_D,test,03,4,3.0,11100,ignore,1.0,3100.0,0.971057646726
263,3_33_1,33,1.0,1647.5119987,3_D,test,03,4,4.0,10110,ignore,1.0,3200.0,0.813431189106
264,3_33_1,33,1.0,1650.65280241,3_D,test,03,4,5.0,01111,kill,1.0,3300.0,1.19727947011
265,3_33_1,33,1.0,1653.60606231,3_D,test,03,4,6.0,11000,ignore,1.0,3400.0,1.00451967689
266,3_33_1,33,1.0,1656.98122147,3_D,test,03,4,7.0,00100,kill,0.0,3300.0,1.39661479665
267,3_33_1,33,1.0,1663.52841315,3_D,test,03,4,8.0,00010,kill,1.0,3400.0,4.56038508981
268,3_33_1,33,1.0,1667.02860463,3_D,test,03,4,9.0,11110,ignore,1.0,3500.0,1.5510346314
269,3_33_1,33,1.0,1670.82566177,3_D,test,03,4,10.0,01100,kill,0.0,3400.0,1.84009157381
270,3_33_1,33,1.0,1676.66971047,3_D,test,03,4,11.0,01011,kill,1.0,3500.0,3.88523413992
271,3_33_1,33,1.0,1686.2639803,3_D,test,03,4,12.0,11010,ignore,0.0,3400.0,7.68878855853
272,3_33_1,33,1.0,1690.01416392,3_D,test,03,4,13.0,10101,ignore,1.0,3500.0,1.74976667152
273,3_33_1,33,1.0,1692.72052027,3_D,test,03,4,14.0,10000,ignore,1.0,3600.0,0.766581075473
274,3_33_1,33,1.0,1699.79902031,3_D,test,03,4,15.0,11101,ignore,1.0,3700.0,5.15349646335
275,3_33_1,33,1.0,1703.23669322,3_D,test,03,4,16.0,10011,ignore,0.0,3600.0,1.45454344272
276,3_33_1,33,1.0,1707.45566053,3_D,test,03,4,17.0,11111,kill,0.0,3500.0,2.30911260769
277,3_33_1,33,1.0,1710.45577535,3_D,test,03,4,18.0,10100,ignore,1.0,3600.0,1.00517203445
278,3_33_1,33,1.0,1715.73730934,3_D,test,03,4,19.0,10111,kill,0.0,3500.0,3.32435064123
279,3_33_1,33,1.0,1719.56566104,3_D,test,03,4,20.0,00000,kill,0.0,3400.0,1.88587847932
280,3_33_1,33,1.0,1738.84787689,3_D,test,03,4,21.0,11011,ignore,0.0,3300.0,17.337207281
281,3_33_1,33,1.0,1742.61367571,3_D,test,03,4,22.0,00011,ignore,0.0,3200.0,1.85581775298
282,3_33_1,33,1.0,1747.98896573,3_D,test,03,4,23.0,10010,ignore,0.0,3100.0,3.43747919287
283,3_33_1,33,1.0,1754.33304489,3_D,test,03,4,24.0,00001,ignore,1.0,3200.0,4.38518571023
284,3_33_1,33,1.0,1758.75515616,3_D,test,03,4,25.0,00101,ignore,1.0,3300.0,2.50387662039
285,3_33_1,33,1.0,1765.8492435,3_D,test,03,4,26.0,01000,ignore,1.0,3400.0,5.17152834484
286,3_33_1,33,1.0,1769.40351426,3_D,test,03,4,27.0,01010,kill,1.0,3500.0,1.62485078203
287,3_33_1,33,1.0,1772.45052827,3_D,test,03,4,28.0,01101,ignore,1.0,3600.0,1.12858981078
288,3_33_1,33,1.0,1775.38819252,3_D,test,03,4,29.0,00101,ignore,1.0,3700.0,0.970912036926
289,3_33_1,33,1.0,1778.34147679,3_D,test,03,4,30.0,01011,kill,1.0,3800.0,1.06163848871
290,3_33_1,33,1.0,1782.06042486,3_D,test,03,4,31.0,10110,kill,0.0,3700.0,1.73770030168
291,3_33_1,33,1.0,1802.10829424,3_D,test,03,4,32.0,00011,ignore,0.0,3600.0,18.0993450125
292,3_33_1,33,1.0,1804.90533246,3_D,test,03,4,33.0,10101,ignore,1.0,3700.0,0.874004224608
293,3_33_1,33,1.0,1807.65547984,3_D,test,03,4,34.0,11001,ignore,1.0,3800.0,0.783236719841
294,3_33_1,33,1.0,1810.20246081,3_D,test,03,4,35.0,01100,ignore,1.0,3900.0,0.649602203004
295,3_33_1,33,1.0,1813.57761323,3_D,test,03,4,36.0,10010,kill,1.0,4000.0,1.38210866083
296,3_33_1,33,1.0,1817.64033545,3_D,test,03,4,37.0,01111,kill,1.0,4100.0,2.11773354176
297,3_33_1,33,1.0,1820.24985134,3_D,test,03,4,38.0,00010,kill,1.0,4200.0,0.689095814456
298,3_33_1,33,1.0,1823.03125158,3_D,test,03,4,39.0,11010,kill,1.0,4300.0,0.829206439415
299,3_33_1,33,1.0,1826.18765864,3_D,test,03,4,40.0,10100,ignore,1.0,4400.0,1.25391302284
300,3_33_1,33,1.0,1829.24097171,3_D,test,03,4,41.0,11110,kill,0.0,4300.0,1.15677877766
301,3_33_1,33,1.0,1838.038288,3_D,test,03,4,42.0,01010,kill,1.0,4400.0,6.85490592773
302,3_33_1,33,1.0,1841.28847771,3_D,test,03,4,43.0,11100,ignore,1.0,4500.0,1.36140641106
303,3_33_1,33,1.0,1844.25740766,3_D,test,03,4,44.0,01110,kill,1.0,4600.0,1.08541971223
304,3_33_1,33,1.0,1850.92956976,3_D,test,03,4,45.0,00001,ignore,1.0,4700.0,4.77159242598
305,3_33_1,33,1.0,1854.33603471,3_D,test,03,4,46.0,11111,kill,0.0,4600.0,1.48282509954
306,3_33_1,33,1.0,1867.74295893,3_D,test,03,4,47.0,11000,ignore,1.0,4700.0,11.4872238626
307,3_33_1,33,1.0,1870.96185344,3_D,test,03,4,48.0,00100,ignore,1.0,4800.0,1.31767055109
308,3_33_1,33,1.0,1876.2433948,3_D,test,03,4,49.0,10011,kill,1.0,4900.0,3.37022735014
309,3_33_1,33,1.0,1879.18103596,3_D,test,03,4,50.0,10000,ignore,1.0,5000.0,0.993164357544
310,3_33_1,33,1.0,1886.63452133,3_D,test,03,4,51.0,00111,kill,1.0,5100.0,5.50524932952
311,3_33_1,33,1.0,1889.90032432,3_D,test,03,4,52.0,11101,ignore,1.0,5200.0,1.32096922245
312,3_33_1,33,1.0,1892.68172392,3_D,test,03,4,53.0,01000,ignore,1.0,5300.0,0.885846406678
313,3_33_1,33,1.0,1895.49565833,3_D,test,03,4,54.0,10001,ignore,1.0,5400.0,0.82479997896
314,3_33_1,33,1.0,1899.04272333,3_D,test,03,4,55.0,01001,ignore,1.0,5500.0,1.5831066332
315,3_33_1,33,1.0,1905.05863456,3_D,test,03,4,56.0,00110,kill,1.0,5600.0,4.1040628983
316,3_33_1,33,1.0,1909.63698226,3_D,test,03,5,0.0,10111,ignore,0.0,5500.0,2.61717162905
317,3_33_1,33,1.0,1920.54378012,3_D,test,03,5,1.0,01101,ignore,1.0,5600.0,9.01678040695
318,3_33_1,33,1.0,1924.7002401,3_D,test,03,5,2.0,11011,kill,1.0,5700.0,2.18472238882
319,3_33_1,33,1.0,1928.10666078,3_D,test,03,5,3.0,00000,ignore,1.0,5800.0,1.46405907524
320,3_33_1,33,1.0,1930.80993912,3_D,test,03,5,4.0,00100,ignore,1.0,5900.0,0.782177039708
321,3_33_1,33,1.0,1934.51324119,3_D,test,03,5,5.0,10100,ignore,1.0,6000.0,1.75850197664
322,3_33_1,33,1.0,1945.02943691,3_D,test,03,5,6.0,00101,ignore,1.0,6100.0,8.6173724038
323,3_33_1,33,1.0,1948.01395256,3_D,test,03,5,7.0,00011,kill,1.0,6200.0,1.0759707908
324,3_33_1,33,1.0,1951.06097587,3_D,test,03,5,8.0,01101,ignore,1.0,6300.0,1.11269396733
325,3_33_1,33,1.0,1954.26739283,3_D,test,03,5,9.0,01100,ignore,1.0,6400.0,1.34288253523
326,3_33_1,33,1.0,1958.00192949,3_D,test,03,5,10.0,00111,kill,1.0,6500.0,1.81901824356
327,3_33_1,33,1.0,1960.86148274,3_D,test,03,6,0.0,11110,kill,1.0,6600.0,0.921935507047
328,3_33_1,33,1.0,1963.67410378,3_D,test,03,6,1.0,11011,kill,1.0,6700.0,0.902167212649
329,3_33_1,33,1.0,1966.31485137,3_D,test,03,6,2.0,00010,kill,0.0,6600.0,0.69847161026
330,3_33_1,33,1.0,1970.2525509,3_D,test,03,6,3.0,01010,kill,0.0,6500.0,2.0488469564
331,3_33_1,33,1.0,1974.08088753,3_D,test,03,6,4.0,01000,ignore,1.0,6600.0,1.85214864259
332,3_33_1,33,1.0,1979.92490736,3_D,test,03,6,5.0,11100,ignore,0.0,6500.0,3.8971250724
333,3_33_1,33,1.0,1994.26936819,3_D,test,03,6,6.0,11111,kill,1.0,6600.0,12.4449803427
334,3_33_1,33,1.0,2004.01987702,3_D,test,03,6,7.0,01011,ignore,1.0,6700.0,7.82635293635
335,3_33_1,33,1.0,2007.17627702,3_D,test,03,6,8.0,10001,kill,0.0,6600.0,1.27032812238
336,3_33_1,33,1.0,2018.52063169,3_D,test,03,6,9.0,10111,kill,0.0,6500.0,9.36155875612
337,3_33_1,33,1.0,2024.73971992,3_D,test,03,6,10.0,10000,ignore,0.0,6400.0,4.26794544572
338,3_33_1,33,1.0,2030.39623217,3_D,test,03,6,11.0,00001,ignore,1.0,6500.0,3.74377037014
339,3_33_1,33,1.0,2036.50590105,3_D,test,03,6,12.0,01001,ignore,1.0,6600.0,4.15975062878
340,3_33_1,33,1.0,2041.6624319,3_D,test,03,6,13.0,01110,ignore,1.0,6700.0,3.26542678104
341,3_33_1,33,1.0,2047.9909042,3_D,test,03,6,14.0,11101,kill,1.0,6800.0,4.42960439678
342,3_33_1,33,1.0,2051.64730195,3_D,test,03,6,15.0,11000,kill,1.0,6900.0,1.71447938723
343,3_33_1,33,1.0,2055.42885935,3_D,test,03,6,16.0,01111,ignore,1.0,7000.0,1.90331060238
344,3_33_1,33,1.0,2058.81954744,3_D,test,03,6,17.0,11010,kill,1.0,7100.0,1.4842709343
345,3_33_1,33,1.0,2061.69468864,3_D,test,03,6,18.0,00110,kill,0.0,7000.0,0.927917375739
346,3_33_1,33,1.0,2065.91364601,3_D,test,03,6,19.0,10110,kill,1.0,7100.0,2.27500110651
347,3_33_1,33,1.0,2070.02323631,3_D,test,03,6,20.0,10011,kill,0.0,7000.0,2.19137104777
348,3_33_1,33,1.0,2073.05462484,3_D,test,03,6,21.0,11001,kill,1.0,7100.0,1.13765418122
349,3_33_1,33,1.0,2076.32044195,3_D,test,03,6,22.0,00000,ignore,1.0,7200.0,1.34912419233
350,3_33_1,33,1.0,2079.38306667,3_D,test,03,6,23.0,10010,kill,1.0,7300.0,1.12608333371
351,3_33_1,33,1.0,2082.36769201,3_D,test,03,6,24.0,10101,kill,0.0,7200.0,1.06637690103
352,3_33_1,33,1.0,2085.36777668,3_D,test,03,6,25.0,10100,kill,1.0,7300.0,1.03121020988
353,3_33_1,33,1.0,2090.58677478,3_D,test,03,6,26.0,11011,kill,1.0,7400.0,3.33613926198
354,3_33_1,33,1.0,2094.9776242,3_D,test,03,6,27.0,10011,kill,0.0,7300.0,2.41492378578
355,3_33_1,33,1.0,2099.75912483,3_D,test,03,6,28.0,11101,kill,1.0,7400.0,2.83721112972
356,3_33_1,33,1.0,2104.75936441,3_D,test,03,6,29.0,10110,kill,1.0,7500.0,3.08330484213
357,3_33_1,33,1.0,2108.15017213,3_D,test,03,6,30.0,11000,kill,1.0,7600.0,1.46281561887
358,3_33_1,33,1.0,2110.96282652,3_D,test,03,6,31.0,01101,ignore,1.0,7700.0,0.942693242487
359,3_33_1,33,1.0,2113.99424873,3_D,test,03,6,32.0,00010,ignore,1.0,7800.0,1.07205215525
360,3_33_1,33,1.0,2116.97873295,3_D,test,03,6,33.0,01011,ignore,1.0,7900.0,1.05361263046
361,3_33_1,33,1.0,2119.63517978,3_D,test,03,6,34.0,00101,ignore,1.0,8000.0,0.749054017386
362,3_33_1,33,1.0,2122.19779392,3_D,test,03,6,35.0,00100,ignore,1.0,8100.0,0.606853538993
363,3_33_1,33,1.0,2125.33851681,3_D,test,03,6,36.0,11111,kill,1.0,8200.0,1.27361588904
364,3_33_1,33,1.0,2133.10455682,3_D,test,03,6,37.0,11001,kill,1.0,8300.0,5.8394616671
365,3_33_1,33,1.0,2135.91719677,3_D,test,03,7,0.0,00110,ignore,0.0,8200.0,0.873604920202
366,3_33_1,33,1.0,2138.83920124,3_D,test,03,7,1.0,00111,ignore,0.0,8100.0,1.03341135538
367,3_33_1,33,1.0,2144.26137697,3_D,test,03,7,2.0,01010,ignore,0.0,8000.0,3.52159162417
368,3_33_1,33,1.0,2149.308492,3_D,test,03,7,3.0,00000,ignore,1.0,8100.0,3.10651645551
369,3_33_1,33,1.0,2153.62123106,3_D,test,03,7,4.0,11100,ignore,1.0,8200.0,2.40622857146
370,3_33_1,33,1.0,2157.05889115,3_D,test,03,7,5.0,00011,kill,1.0,8300.0,1.49270860528
371,3_33_1,33,1.0,2160.19969614,3_D,test,03,7,6.0,10111,kill,0.0,8200.0,1.26722669778
372,3_33_1,33,1.0,2165.19992194,3_D,test,03,7,7.0,01110,kill,1.0,8300.0,3.03180195014
373,3_33_1,33,1.0,2168.18443341,3_D,test,03,7,8.0,01100,kill,0.0,8200.0,1.03630879797
374,3_33_1,33,1.0,2172.4815733,3_D,test,03,7,9.0,00001,ignore,1.0,8300.0,2.38032445969
375,3_33_1,33,1.0,2175.99736716,3_D,test,03,7,10.0,10000,ignore,1.0,8400.0,1.57097964606
