,unique_id,pair_id,sbj_id,wall_time,condition,block,rule_id,rule_num,trial,stimulus,choice,correct,points,reaction_time
0,3_25_1,25,1.0,32.7158880653,3_D,training,05,1_A,1.0,11001,kill,0.0,0.0,5.80788830343
1,3_25_1,25,1.0,37.8098994821,3_D,training,05,1_A,2.0,10111,kill,0.0,0.0,2.85045229968
2,3_25_1,25,1.0,42.8101265043,3_D,training,05,1_A,3.0,10110,ignore,1.0,100.0,2.83810360506
3,3_25_1,25,1.0,46.6696592819,3_D,training,05,1_A,4.0,00010,ignore,0.0,0.0,1.58698912305
4,3_25_1,25,1.0,51.0761805258,3_D,training,05,1_A,5.0,11101,ignore,1.0,100.0,2.15228469324
5,3_25_1,25,1.0,55.5606935467,3_D,training,05,1_A,6.0,01010,ignore,0.0,0.0,2.32371561055
6,3_25_1,25,1.0,59.6077565238,3_D,training,05,1_A,7.0,11011,ignore,1.0,100.0,1.88675696923
7,3_25_1,25,1.0,63.0298289944,3_D,training,05,1_A,8.0,11110,kill,0.0,0.0,1.21711903477
8,3_25_1,25,1.0,68.48319933,3_D,training,05,1_A,9.0,00101,ignore,1.0,100.0,3.27775243905
9,3_25_1,25,1.0,73.7334410286,3_D,training,05,1_A,10.0,00100,ignore,0.0,0.0,3.0749210246
10,3_25_1,25,1.0,78.3430285091,3_D,training,05,1_A,11.0,01100,ignore,0.0,0.0,2.39340978741
11,3_25_1,25,1.0,82.5150863033,3_D,training,05,1_A,12.0,10101,kill,0.0,0.0,1.97685358709
12,3_25_1,25,1.0,87.5622026491,3_D,training,05,1_A,13.0,01101,ignore,1.0,100.0,2.86873148773
13,3_25_1,25,1.0,91.0467444071,3_D,training,05,1_A,14.0,00011,ignore,1.0,200.0,1.29384063698
14,3_25_1,25,1.0,95.2969520318,3_D,training,05,1_A,15.0,10000,kill,1.0,300.0,2.08049312673
15,3_25_1,25,1.0,99.2033614066,3_D,training,05,1_A,16.0,00110,ignore,0.0,200.0,1.73028406513
16,3_25_1,25,1.0,104.047403716,3_D,training,05,1_A,17.0,11100,kill,0.0,100.0,2.65241216231
17,3_25_1,25,1.0,111.563367729,3_D,training,05,1_A,18.0,10010,ignore,0.0,0.0,5.3749651564
18,3_25_1,25,1.0,114.875988398,3_D,training,05,1_A,19.0,01011,ignore,1.0,100.0,1.15921769706
19,3_25_1,25,1.0,118.641828329,3_D,training,05,1_A,20.0,01110,ignore,0.0,0.0,1.62861547241
20,3_25_1,25,1.0,122.141985356,3_D,training,05,1_A,21.0,01001,ignore,1.0,100.0,1.35644375658
21,3_25_1,25,1.0,126.173403506,3_D,training,05,1_A,22.0,10001,kill,0.0,0.0,1.87027055875
22,3_25_1,25,1.0,131.54867697,3_D,training,05,1_A,23.0,00000,kill,1.0,100.0,3.22048126246
23,3_25_1,25,1.0,135.986363067,3_D,training,05,1_A,24.0,00111,ignore,1.0,200.0,2.27163474466
24,3_25_1,25,1.0,140.799118185,3_D,training,05,1_A,25.0,11010,ignore,0.0,100.0,2.67100294144
25,3_25_1,25,1.0,144.643045136,3_D,training,05,1_A,26.0,01111,ignore,1.0,200.0,1.71953519973
26,3_25_1,25,1.0,151.205875893,3_D,training,05,1_A,27.0,10100,ignore,1.0,300.0,4.4048737933
27,3_25_1,25,1.0,160.518783933,3_D,training,05,1_A,28.0,10011,kill,0.0,200.0,7.15363327908
28,3_25_1,25,1.0,164.315832233,3_D,training,05,1_A,29.0,11111,kill,0.0,100.0,1.6472087147
29,3_25_1,25,1.0,168.034802957,3_D,training,05,1_A,30.0,11000,kill,1.0,200.0,1.56964758189
30,3_25_1,25,1.0,172.816254051,3_D,training,05,1_A,31.0,00001,kill,0.0,100.0,2.6345857871
31,3_25_1,25,1.0,176.363293834,3_D,training,05,1_A,32.0,01000,kill,1.0,200.0,1.28981376379
32,3_25_1,25,1.0,180.285337773,3_D,training,05,1_A,33.0,00100,ignore,0.0,100.0,1.66329691262
33,3_25_1,25,1.0,184.410555096,3_D,training,05,1_A,34.0,10011,kill,0.0,0.0,1.92940594486
34,3_25_1,25,1.0,188.020100703,3_D,training,05,1_A,35.0,01101,ignore,1.0,100.0,1.45922282866
35,3_25_1,25,1.0,192.348393294,3_D,training,05,1_A,36.0,01100,kill,1.0,200.0,2.20827789489
36,3_25_1,25,1.0,195.848568385,3_D,training,05,1_A,37.0,00101,ignore,1.0,300.0,1.31918666111
37,3_25_1,25,1.0,199.958152376,3_D,training,05,1_A,38.0,11110,ignore,1.0,400.0,1.98975197926
38,3_25_1,25,1.0,207.646030909,3_D,training,05,1_A,39.0,11010,kill,1.0,500.0,5.55020002997
39,3_25_1,25,1.0,212.536867709,3_D,training,05,1_A,40.0,11101,kill,0.0,400.0,2.69214597569
40,3_25_1,25,1.0,217.271461502,3_D,training,05,1_A,41.0,10111,ignore,1.0,500.0,2.55480205346
41,3_25_1,25,1.0,221.412268642,3_D,training,05,1_A,42.0,01010,kill,1.0,600.0,1.98890711179
42,3_25_1,25,1.0,227.178180825,3_D,training,05,1_A,43.0,01111,ignore,1.0,700.0,3.61021107318
43,3_25_1,25,1.0,232.225326729,3_D,training,05,1_A,44.0,11011,ignore,1.0,800.0,2.89793812105
44,3_25_1,25,1.0,236.631753552,3_D,training,05,1_A,45.0,11111,kill,0.0,700.0,2.25500916505
45,3_25_1,25,1.0,241.42891639,3_D,training,05,1_A,46.0,00110,kill,1.0,800.0,2.64458708026
46,3_25_1,25,1.0,244.772801672,3_D,training,05,1_A,47.0,01110,kill,1.0,900.0,1.20331091164
47,3_25_1,25,1.0,250.476147683,3_D,training,05,1_A,48.0,00011,ignore,1.0,1000.0,3.54168772335
48,3_25_1,25,1.0,255.335767904,3_D,training,05,1_A,49.0,10101,kill,0.0,900.0,2.67719986781
49,3_25_1,25,1.0,260.836000879,3_D,training,05,1_A,50.0,00010,kill,1.0,1000.0,3.3462716836
50,3_25_1,25,1.0,266.664418476,3_D,training,05,1_A,51.0,10001,ignore,1.0,1100.0,3.67650155898
51,3_25_1,25,1.0,270.070849404,3_D,training,05,1_A,52.0,00111,ignore,1.0,1200.0,1.2235306675
52,3_25_1,25,1.0,275.367981247,3_D,training,05,1_A,53.0,10100,kill,0.0,1100.0,3.12361544162
53,3_25_1,25,1.0,281.665153733,3_D,training,05,1_A,54.0,11000,kill,1.0,1200.0,4.17745090593
54,3_25_1,25,1.0,286.274737518,3_D,training,05,1_A,55.0,11100,ignore,1.0,1300.0,2.37050517574
55,3_25_1,25,1.0,293.087547647,3_D,training,05,1_A,56.0,01011,kill,0.0,1200.0,4.66123359682
56,3_25_1,25,1.0,299.35343951,3_D,training,05,1_A,57.0,11001,ignore,1.0,1300.0,4.10648326994
57,3_25_1,25,1.0,303.228635999,3_D,training,05,1_A,58.0,10010,kill,1.0,1400.0,1.70661874432
58,3_25_1,25,1.0,309.275822134,3_D,training,05,1_A,59.0,01000,kill,1.0,1500.0,3.91046457448
59,3_25_1,25,1.0,315.026071838,3_D,training,05,1_A,60.0,10000,kill,1.0,1600.0,3.60145244952
60,3_25_1,25,1.0,319.963790984,3_D,training,05,1_A,61.0,10110,ignore,1.0,1700.0,2.76778008814
61,3_25_1,25,1.0,329.948673275,3_D,training,05,1_A,62.0,00001,kill,0.0,1600.0,7.81391280787
62,3_25_1,25,1.0,333.558198766,3_D,training,05,1_A,63.0,00000,kill,1.0,1700.0,1.38991660115
63,3_25_1,25,1.0,337.167789941,3_D,training,05,1_A,64.0,01001,ignore,1.0,1800.0,1.44754781117
64,3_25_1,25,1.0,343.333686114,3_D,training,05,1_A,65.0,01010,kill,1.0,1900.0,4.00934034242
65,3_25_1,25,1.0,346.755756121,3_D,training,05,1_A,66.0,11000,kill,1.0,2000.0,1.21881656975
66,3_25_1,25,1.0,350.64652149,3_D,training,05,1_A,67.0,11110,ignore,1.0,2100.0,1.75862366245
67,3_25_1,25,1.0,355.131156027,3_D,training,05,1_A,68.0,00010,kill,1.0,2200.0,2.34631725225
68,3_25_1,25,1.0,359.131342407,3_D,training,05,1_A,69.0,00100,ignore,0.0,2100.0,1.82604597508
69,3_25_1,25,1.0,363.444000846,3_D,training,05,1_A,70.0,10100,ignore,1.0,2200.0,2.16218869117
70,3_25_1,25,1.0,367.522360456,3_D,training,05,1_A,71.0,01101,ignore,1.0,2300.0,1.92427433972
71,3_25_1,25,1.0,378.788493299,3_D,training,05,1_A,72.0,00001,kill,0.0,2200.0,9.08668841099
72,3_25_1,25,1.0,384.038768251,3_D,training,05,1_A,73.0,10110,ignore,1.0,2300.0,3.11465894326
73,3_25_1,25,1.0,387.648308931,3_D,training,05,1_A,74.0,11111,ignore,1.0,2400.0,1.479319426
74,3_25_1,25,1.0,390.492175123,3_D,training,05,1_A,75.0,10111,ignore,1.0,2500.0,0.682533863462
75,3_25_1,25,1.0,398.180034361,3_D,training,05,1_A,76.0,00011,ignore,1.0,2600.0,5.53040681313
76,3_25_1,25,1.0,401.102102521,3_D,training,05,1_A,77.0,11011,ignore,1.0,2700.0,0.765661351008
77,3_25_1,25,1.0,404.305347748,3_D,training,05,1_A,78.0,01001,ignore,1.0,2800.0,1.01380565996
78,3_25_1,25,1.0,407.352355304,3_D,training,05,1_A,79.0,11001,ignore,1.0,2900.0,0.869828830179
79,3_25_1,25,1.0,411.305643739,3_D,training,05,1_A,80.0,01000,kill,1.0,3000.0,1.79614842244
80,3_25_1,25,1.0,415.77461867,3_D,training,05,1_A,81.0,10101,ignore,1.0,3100.0,2.3152505147
81,3_25_1,25,1.0,422.415593101,3_D,training,05,1_A,82.0,01110,ignore,0.0,3000.0,4.5133288312
82,3_25_1,25,1.0,428.056470646,3_D,training,05,1_A,83.0,01011,ignore,1.0,3100.0,3.49817499595
83,3_25_1,25,1.0,432.384758312,3_D,training,05,1_A,84.0,00000,kill,1.0,3200.0,2.14999476576
84,3_25_1,25,1.0,438.619482447,3_D,training,05,1_A,85.0,00110,ignore,0.0,3100.0,4.08340131
85,3_25_1,25,1.0,442.619633521,3_D,training,05,1_A,86.0,00101,ignore,1.0,3200.0,1.84075643965
86,3_25_1,25,1.0,446.385483305,3_D,training,05,1_A,87.0,11100,ignore,1.0,3300.0,1.61271283332
87,3_25_1,25,1.0,453.870195022,3_D,training,05,1_A,88.0,10011,ignore,1.0,3400.0,5.28945044614
88,3_25_1,25,1.0,459.745450216,3_D,training,05,1_A,89.0,10000,kill,1.0,3500.0,3.71984884344
89,3_25_1,25,1.0,463.542471422,3_D,training,05,1_A,90.0,00111,ignore,1.0,3600.0,1.63856298635
90,3_25_1,25,1.0,467.027040275,3_D,training,05,1_A,91.0,11101,ignore,1.0,3700.0,1.32791080039
91,3_25_1,25,1.0,473.20232277,3_D,training,05,1_A,92.0,01100,kill,1.0,3800.0,3.96628289102
92,3_25_1,25,1.0,478.249491663,3_D,training,05,1_A,93.0,10001,ignore,1.0,3900.0,2.88839785129
93,3_25_1,25,1.0,483.096556693,3_D,training,05,1_A,94.0,11010,ignore,0.0,3800.0,2.71030405787
94,3_25_1,25,1.0,486.752998602,3_D,training,05,1_A,95.0,01111,ignore,1.0,3900.0,1.48694375966
95,3_25_1,25,1.0,491.187583158,3_D,training,05,1_A,96.0,10010,kill,1.0,4000.0,2.27549658543
96,3_25_1,25,1.0,496.544058525,3_D,training,05,1_A,97.0,10011,ignore,1.0,4100.0,3.20756727021
97,3_25_1,25,1.0,503.70694963,3_D,training,05,1_A,98.0,01001,kill,0.0,4000.0,4.99933289133
98,3_25_1,25,1.0,507.335418133,3_D,training,05,1_A,99.0,11010,kill,1.0,4100.0,1.46739234406
99,3_25_1,25,1.0,514.007596828,3_D,training,05,1_A,100.0,00010,kill,1.0,4200.0,4.50815329952
100,3_25_1,25,1.0,518.67968028,3_D,training,05,1_A,101.0,00011,ignore,1.0,4300.0,2.53147008172
101,3_25_1,25,1.0,521.967339181,3_D,training,05,1_A,102.0,10111,ignore,1.0,4400.0,1.07200996763
102,3_25_1,25,1.0,528.170816356,3_D,training,05,1_A,103.0,01100,ignore,0.0,4300.0,4.07047418084
103,3_25_1,25,1.0,532.467844746,3_D,training,05,1_A,104.0,10001,kill,0.0,4200.0,2.14654550605
104,3_25_1,25,1.0,535.905516476,3_D,training,05,1_A,105.0,01000,kill,1.0,4300.0,1.27881776028
105,3_25_1,25,1.0,539.936962541,3_D,training,05,1_A,106.0,10110,ignore,1.0,4400.0,1.86971839804
106,3_25_1,25,1.0,543.546473664,3_D,training,05,1_A,107.0,00111,ignore,1.0,4500.0,1.46325093344
107,3_25_1,25,1.0,546.593495588,3_D,training,05,1_A,108.0,11111,ignore,1.0,4600.0,0.888509104494
108,3_25_1,25,1.0,552.093782342,3_D,training,05,1_A,109.0,10000,kill,1.0,4700.0,3.34529708915
109,3_25_1,25,1.0,558.578450953,3_D,training,05,1_A,110.0,01010,kill,1.0,4800.0,4.31685814396
110,3_25_1,25,1.0,562.516138488,3_D,training,05,1_A,111.0,01111,ignore,1.0,4900.0,1.76809496343
111,3_25_1,25,1.0,566.547601385,3_D,training,05,1_A,112.0,00001,kill,0.0,4800.0,1.85082136472
112,3_25_1,25,1.0,572.329098049,3_D,training,05,1_A,113.0,10010,kill,1.0,4900.0,3.66411427469
113,3_25_1,25,1.0,575.891794974,3_D,training,05,1_A,114.0,10100,ignore,1.0,5000.0,1.38969573687
114,3_25_1,25,1.0,582.939002868,3_D,training,05,1_A,115.0,01011,ignore,1.0,5100.0,4.86702040531
115,3_25_1,25,1.0,588.220516568,3_D,training,05,1_A,116.0,00110,kill,1.0,5200.0,3.11413428795
116,3_25_1,25,1.0,592.533169669,3_D,training,05,1_A,117.0,01101,ignore,1.0,5300.0,2.15061014785
117,3_25_1,25,1.0,598.127218239,3_D,training,05,1_A,118.0,11100,ignore,1.0,5400.0,3.45458426814
118,3_25_1,25,1.0,601.502348428,3_D,training,05,1_A,119.0,00000,kill,1.0,5500.0,1.20841254821
119,3_25_1,25,1.0,605.846296931,3_D,training,05,1_A,120.0,00101,ignore,1.0,5600.0,2.16059666199
120,3_25_1,25,1.0,610.487204035,3_D,training,05,1_A,121.0,11101,ignore,1.0,5700.0,2.45079714354
121,3_25_1,25,1.0,614.190488878,3_D,training,05,1_A,122.0,11000,kill,1.0,5800.0,1.54304328817
122,3_25_1,25,1.0,618.643814466,3_D,training,05,1_A,123.0,11011,kill,0.0,5700.0,2.32509662812
123,3_25_1,25,1.0,622.206469517,3_D,training,05,1_A,124.0,10101,ignore,1.0,5800.0,1.40818429441
124,3_25_1,25,1.0,626.42539693,3_D,training,05,1_A,125.0,11110,ignore,1.0,5900.0,2.05327262987
125,3_25_1,25,1.0,630.878762339,3_D,training,05,1_A,126.0,00100,kill,1.0,6000.0,2.31428372029
126,3_25_1,25,1.0,635.894645683,3_D,training,05,1_A,127.0,11001,kill,0.0,5900.0,2.913846097
127,3_25_1,25,1.0,642.176167594,3_D,training,05,1_A,128.0,01110,kill,1.0,6000.0,4.08402326054
128,3_25_1,25,1.0,647.36388171,3_D,training,05,1_A,129.0,11110,kill,0.0,5900.0,3.05347173615
129,3_25_1,25,1.0,650.895326339,3_D,training,05,1_A,130.0,10001,kill,0.0,5800.0,1.37374670808
130,3_25_1,25,1.0,654.661116186,3_D,training,05,1_A,131.0,10111,ignore,1.0,5900.0,1.61559392172
131,3_25_1,25,1.0,662.567775162,3_D,training,05,1_A,132.0,10000,kill,1.0,6000.0,5.74183920834
132,3_25_1,25,1.0,666.521055386,3_D,training,05,1_A,133.0,00100,ignore,0.0,5900.0,1.77735976863
133,3_25_1,25,1.0,669.677487648,3_D,training,05,1_A,134.0,01111,ignore,1.0,6000.0,1.01413038793
134,3_25_1,25,1.0,676.349627343,3_D,training,05,1_A,135.0,10011,kill,0.0,5900.0,4.50805230953
135,3_25_1,25,1.0,681.021717774,3_D,training,05,1_A,136.0,01110,kill,1.0,6000.0,2.51532482034
136,3_25_1,25,1.0,685.287563247,3_D,training,05,1_A,137.0,00000,kill,1.0,6100.0,2.08753451004
137,3_25_1,25,1.0,688.818989813,3_D,training,05,1_A,138.0,11011,ignore,1.0,6200.0,1.36852273404
138,3_25_1,25,1.0,695.334909078,3_D,training,05,1_A,139.0,00001,kill,0.0,6100.0,4.37162099196
139,3_25_1,25,1.0,698.788173087,3_D,training,05,1_A,140.0,01000,kill,1.0,6200.0,1.2921533652
140,3_25_1,25,1.0,702.288384304,3_D,training,05,1_A,141.0,11000,kill,1.0,6300.0,1.3698688567
141,3_25_1,25,1.0,705.366671251,3_D,training,05,1_A,142.0,01101,ignore,1.0,6400.0,0.943652512331
142,3_25_1,25,1.0,709.366836283,3_D,training,05,1_A,143.0,00010,kill,1.0,6500.0,1.82252774659
143,3_25_1,25,1.0,713.617051298,3_D,training,05,1_A,144.0,01001,ignore,1.0,6600.0,2.10574801356
144,3_25_1,25,1.0,716.929679767,3_D,training,05,1_A,145.0,00011,ignore,1.0,6700.0,1.16918861112
145,3_25_1,25,1.0,721.539256164,3_D,training,05,1_A,146.0,01100,ignore,0.0,6600.0,2.42785558432
146,3_25_1,25,1.0,724.992594067,3_D,training,05,1_A,147.0,10100,ignore,1.0,6700.0,1.30963859131
147,3_25_1,25,1.0,728.695865363,3_D,training,05,1_A,148.0,10110,ignore,1.0,6800.0,1.54423012581
148,3_25_1,25,1.0,732.805449765,3_D,training,05,1_A,149.0,11111,ignore,1.0,6900.0,1.96784700427
149,3_25_1,25,1.0,739.977628665,3_D,training,05,1_A,150.0,00110,kill,1.0,7000.0,4.98329600946
150,3_25_1,25,1.0,743.993469314,3_D,training,05,1_A,151.0,10101,ignore,1.0,7100.0,1.80652083329
151,3_25_1,25,1.0,748.196800752,3_D,training,05,1_A,152.0,00111,ignore,1.0,7200.0,2.05823838153
152,3_25_1,25,1.0,753.275184994,3_D,training,05,1_A,153.0,01011,ignore,1.0,7300.0,2.93141014457
153,3_25_1,25,1.0,756.30652966,3_D,training,05,1_A,154.0,00101,ignore,1.0,7400.0,0.871203279301
154,3_25_1,25,1.0,759.884820096,3_D,training,05,1_A,155.0,11101,ignore,1.0,7500.0,1.40189171492
155,3_25_1,25,1.0,764.3381814,3_D,training,05,1_A,156.0,11010,kill,1.0,7600.0,2.30104746324
156,3_25_1,25,1.0,768.869622334,3_D,training,05,1_A,157.0,01010,kill,1.0,7700.0,2.41112408837
157,3_25_1,25,1.0,773.135456723,3_D,training,05,1_A,158.0,10010,kill,1.0,7800.0,2.12231406655
158,3_25_1,25,1.0,778.151308867,3_D,training,05,1_A,159.0,11001,kill,0.0,7700.0,2.8804565897
159,3_25_1,25,1.0,782.339064036,3_D,training,05,1_A,160.0,11100,ignore,1.0,7800.0,2.05379564306
160,3_25_1,25,1.0,791.433249517,3_D,training,05,1_A,161.0,11010,kill,1.0,7900.0,6.96040083994
161,3_25_1,25,1.0,795.292777368,3_D,training,05,1_A,162.0,01011,ignore,1.0,8000.0,1.70046492343
162,3_25_1,25,1.0,799.839859435,3_D,training,05,1_A,163.0,10110,ignore,1.0,8100.0,2.41042454796
163,3_25_1,25,1.0,803.590017591,3_D,training,05,1_A,164.0,11000,kill,1.0,8200.0,1.61113270947
164,3_25_1,25,1.0,806.465153733,3_D,training,05,1_A,165.0,10000,kill,1.0,8300.0,0.725363061064
165,3_25_1,25,1.0,810.402837572,3_D,training,05,1_A,166.0,10010,kill,1.0,8400.0,1.78343846282
166,3_25_1,25,1.0,814.715569495,3_D,training,05,1_A,167.0,10001,ignore,1.0,8500.0,2.18603300238
167,3_25_1,25,1.0,817.481329784,3_D,training,05,1_A,168.0,11001,ignore,1.0,8600.0,0.64332060011
168,3_25_1,25,1.0,822.512798018,3_D,training,05,1_A,169.0,01100,kill,1.0,8700.0,2.8744702644
169,3_25_1,25,1.0,827.434903126,3_D,training,05,1_A,170.0,10111,ignore,1.0,8800.0,2.72912637501
170,3_25_1,25,1.0,830.325671778,3_D,training,05,1_A,171.0,01101,ignore,1.0,8900.0,0.72831311823
171,3_25_1,25,1.0,834.278950771,3_D,training,05,1_A,172.0,10100,ignore,1.0,9000.0,1.81902593924
172,3_25_1,25,1.0,837.68541331,3_D,training,05,1_A,173.0,01001,ignore,1.0,9100.0,1.23038526039
173,3_25_1,25,1.0,840.716782196,3_D,training,05,1_A,174.0,01111,ignore,1.0,9200.0,0.852302961757
174,3_25_1,25,1.0,934.721233556,3_D,test,05,2,0.0,11101,kill,0.0,0.0,7.47386596658
175,3_25_1,25,1.0,946.565524235,3_D,test,05,2,1.0,11011,kill,0.0,0.0,9.64163989679
176,3_25_1,25,1.0,953.097120348,3_D,test,05,2,2.0,00101,ignore,0.0,0.0,4.35490468557
177,3_25_1,25,1.0,958.800503718,3_D,test,05,2,3.0,01010,ignore,1.0,100.0,3.53271808809
178,3_25_1,25,1.0,968.19156241,3_D,test,05,2,4.0,10011,kill,0.0,0.0,7.24700303996
179,3_25_1,25,1.0,978.848299899,3_D,test,05,2,5.0,00010,ignore,1.0,100.0,8.51917680843
180,3_25_1,25,1.0,991.145784386,3_D,test,05,2,6.0,11111,ignore,0.0,0.0,10.1628861789
181,3_25_1,25,1.0,997.083547458,3_D,test,05,2,7.0,01110,ignore,0.0,0.0,3.80094380482
182,3_25_1,25,1.0,1011.25608598,3_D,test,05,2,8.0,00001,ignore,1.0,100.0,12.0231070022
183,3_25_1,25,1.0,1017.08449455,3_D,test,05,2,9.0,01000,ignore,1.0,200.0,3.67709600412
184,3_25_1,25,1.0,1023.42850176,3_D,test,05,2,10.0,00111,kill,1.0,300.0,4.21998329149
185,3_25_1,25,1.0,1026.89746766,3_D,test,05,2,11.0,00000,ignore,1.0,400.0,1.32802739046
186,3_25_1,25,1.0,1039.81991473,3_D,test,05,2,12.0,00011,ignore,1.0,500.0,10.7551727606
187,3_25_1,25,1.0,1044.27327522,3_D,test,05,2,13.0,00100,ignore,0.0,400.0,2.32357110455
188,3_25_1,25,1.0,1050.49231758,3_D,test,05,2,14.0,10101,kill,1.0,500.0,4.06346399768
189,3_25_1,25,1.0,1053.6174532,3_D,test,05,2,15.0,11100,kill,0.0,400.0,1.0014623022
190,3_25_1,25,1.0,1064.82425279,3_D,test,05,2,16.0,00110,kill,1.0,500.0,9.0332146222
191,3_25_1,25,1.0,1071.82458778,3_D,test,05,2,17.0,11110,ignore,0.0,400.0,4.81669208522
192,3_25_1,25,1.0,1095.66946921,3_D,test,05,2,18.0,10111,ignore,0.0,300.0,21.7139786977
193,3_25_1,25,1.0,1101.68848981,3_D,test,05,2,19.0,11011,kill,0.0,200.0,3.88844957787
194,3_25_1,25,1.0,1107.52902662,3_D,test,05,2,20.0,11111,kill,1.0,300.0,3.74135724798
195,3_25_1,25,1.0,1115.69517814,3_D,test,05,2,21.0,10110,kill,1.0,400.0,5.99539140805
196,3_25_1,25,1.0,1122.79242739,3_D,test,05,2,22.0,10101,ignore,0.0,300.0,4.9427850658
197,3_25_1,25,1.0,1137.43375898,3_D,test,05,2,23.0,01110,kill,1.0,400.0,12.5153207151
198,3_25_1,25,1.0,1147.15290418,3_D,test,05,2,24.0,11001,ignore,1.0,500.0,7.55932566603
199,3_25_1,25,1.0,1151.68738467,3_D,test,05,2,25.0,01001,ignore,1.0,600.0,2.28205723998
200,3_25_1,25,1.0,1163.17233531,3_D,test,05,2,26.0,10010,kill,0.0,500.0,9.28504752893
201,3_25_1,25,1.0,1170.49457179,3_D,test,05,2,27.0,00000,ignore,1.0,600.0,5.1531755399
202,3_25_1,25,1.0,1176.98240886,3_D,test,05,2,28.0,10011,kill,0.0,500.0,4.39540988183
203,3_25_1,25,1.0,1185.61371206,3_D,test,05,2,29.0,10001,ignore,1.0,600.0,6.51814391895
204,3_25_1,25,1.0,1198.2111988,3_D,test,05,2,30.0,11010,kill,0.0,500.0,10.4708728039
205,3_25_1,25,1.0,1204.49278517,3_D,test,05,2,31.0,00110,kill,1.0,600.0,4.1370241206
206,3_25_1,25,1.0,1207.69605831,3_D,test,05,2,32.0,01010,ignore,1.0,700.0,1.05916781786
207,3_25_1,25,1.0,1211.6085238,3_D,test,05,2,33.0,11101,kill,0.0,600.0,1.71667545882
208,3_25_1,25,1.0,1223.73412374,3_D,test,05,2,34.0,01100,kill,0.0,500.0,10.0105670013
209,3_25_1,25,1.0,1229.3437301,3_D,test,05,2,35.0,11100,ignore,1.0,600.0,3.40106942651
210,3_25_1,25,1.0,1234.81278919,3_D,test,05,2,36.0,10000,ignore,1.0,700.0,3.34863796936
211,3_25_1,25,1.0,1240.12548376,3_D,test,05,2,37.0,01111,kill,1.0,800.0,3.17921823075
212,3_25_1,25,1.0,1243.31315189,3_D,test,05,2,38.0,10100,ignore,0.0,700.0,1.05595912779
213,3_25_1,25,1.0,1250.93850654,3_D,test,05,2,39.0,00100,ignore,0.0,600.0,5.43999408839
214,3_25_1,25,1.0,1260.68897095,3_D,test,05,2,40.0,01011,kill,0.0,500.0,7.56594338403
215,3_25_1,25,1.0,1272.39267453,3_D,test,05,2,41.0,11110,kill,1.0,600.0,9.59413395953
216,3_25_1,25,1.0,1280.62744136,3_D,test,05,2,42.0,00111,kill,1.0,700.0,6.0750569095
217,3_25_1,25,1.0,1292.86238923,3_D,test,05,2,43.0,00010,kill,0.0,600.0,10.0297099412
218,3_25_1,25,1.0,1298.95643472,3_D,test,05,2,44.0,00011,ignore,1.0,700.0,3.91512653512
219,3_25_1,25,1.0,1304.62858427,3_D,test,05,2,45.0,00001,ignore,1.0,800.0,3.48508365543
220,3_25_1,25,1.0,1309.55065079,3_D,test,05,2,46.0,01101,kill,0.0,700.0,2.78610607644
221,3_25_1,25,1.0,1321.17623246,3_D,test,05,2,47.0,00101,ignore,0.0,600.0,9.45700474366
222,3_25_1,25,1.0,1341.81782925,3_D,test,05,2,48.0,11000,ignore,1.0,700.0,18.5455520273
223,3_25_1,25,1.0,1348.86502072,3_D,test,05,2,49.0,01000,ignore,1.0,800.0,4.91634087816
224,3_25_1,25,1.0,1355.36531979,3_D,test,05,3,0.0,10111,kill,0.0,700.0,4.32405060173
225,3_25_1,25,1.0,1365.06890473,3_D,test,05,3,1.0,01110,kill,0.0,600.0,7.59247172999
226,3_25_1,25,1.0,1376.38193182,3_D,test,05,3,2.0,00011,ignore,1.0,700.0,9.16763394003
227,3_25_1,25,1.0,1384.19481749,3_D,test,05,3,3.0,01000,ignore,1.0,800.0,5.65073597481
228,3_25_1,25,1.0,1390.38263301,3_D,test,05,3,4.0,00010,ignore,1.0,900.0,4.03775465591
229,3_25_1,25,1.0,1394.21092375,3_D,test,05,3,5.0,00000,ignore,1.0,1000.0,1.66624081186
230,3_25_1,25,1.0,1397.91421927,3_D,test,05,3,6.0,01011,ignore,1.0,1100.0,1.58439088873
231,3_25_1,25,1.0,1403.86760664,3_D,test,05,3,7.0,10110,kill,1.0,1200.0,3.73950248062
232,3_25_1,25,1.0,1407.91470739,3_D,test,05,3,8.0,10101,kill,0.0,1100.0,1.86725235387
233,3_25_1,25,1.0,1417.16510919,3_D,test,05,3,9.0,01010,ignore,1.0,1200.0,7.12279069004
234,3_25_1,25,1.0,1422.19659261,3_D,test,05,3,10.0,10100,ignore,0.0,1100.0,2.87512710986
235,3_25_1,25,1.0,1432.86895769,3_D,test,05,3,11.0,11100,kill,1.0,1200.0,8.58425787753
236,3_25_1,25,1.0,1440.81225674,3_D,test,05,3,12.0,11101,ignore,1.0,1300.0,5.76454019792
237,3_25_1,25,1.0,1445.68743557,3_D,test,05,3,13.0,10011,ignore,0.0,1200.0,2.70407018394
238,3_25_1,25,1.0,1452.25346558,3_D,test,05,3,14.0,11001,ignore,0.0,1100.0,4.46189126334
239,3_25_1,25,1.0,1468.19166627,3_D,test,05,3,15.0,10000,ignore,0.0,1000.0,13.7527953906
240,3_25_1,25,1.0,1478.66093637,3_D,test,05,3,16.0,00001,ignore,1.0,1100.0,8.34133507945
241,3_25_1,25,1.0,1485.64562736,3_D,test,05,3,17.0,10001,kill,1.0,1200.0,4.85173766413
242,3_25_1,25,1.0,1498.44309933,3_D,test,05,3,18.0,00110,ignore,1.0,1300.0,10.6458888659
243,3_25_1,25,1.0,1502.80269266,3_D,test,05,3,19.0,10010,kill,1.0,1400.0,2.2411111362
244,3_25_1,25,1.0,1507.34981085,3_D,test,05,3,20.0,01001,ignore,1.0,1500.0,2.40405273648
245,3_25_1,25,1.0,1512.74067002,3_D,test,05,3,21.0,01100,ignore,1.0,1600.0,3.2254437299
246,3_25_1,25,1.0,1517.06902214,3_D,test,05,3,22.0,00111,ignore,1.0,1700.0,2.16297772678
247,3_25_1,25,1.0,1521.22548889,3_D,test,05,3,23.0,11111,kill,0.0,1600.0,2.00762679683
248,3_25_1,25,1.0,1528.56956794,3_D,test,05,3,24.0,01111,ignore,1.0,1700.0,5.25577192684
249,3_25_1,25,1.0,1534.36667946,3_D,test,05,3,25.0,01101,ignore,1.0,1800.0,3.61794666004
250,3_25_1,25,1.0,1542.00770192,3_D,test,05,3,26.0,11011,kill,1.0,1900.0,5.49178676333
251,3_25_1,25,1.0,1547.08602089,3_D,test,05,3,27.0,00100,ignore,1.0,2000.0,2.93270782488
252,3_25_1,25,1.0,1552.47693261,3_D,test,05,3,28.0,11000,kill,1.0,2100.0,3.24426194176
253,3_25_1,25,1.0,1556.61776562,3_D,test,05,3,29.0,00101,ignore,1.0,2200.0,2.01875704313
254,3_25_1,25,1.0,1560.43045382,3_D,test,05,3,30.0,11010,kill,1.0,2300.0,1.66108826977
255,3_25_1,25,1.0,1564.21187084,3_D,test,05,3,31.0,11110,kill,1.0,2400.0,1.62828417598
256,3_25_1,25,1.0,1568.02450444,3_D,test,05,3,32.0,10100,kill,1.0,2500.0,1.64898096585
257,3_25_1,25,1.0,1571.33722117,3_D,test,05,3,33.0,10011,kill,1.0,2600.0,1.16203638513
258,3_25_1,25,1.0,1574.2435702,3_D,test,05,4,0.0,11101,kill,0.0,2500.0,0.813737922767
259,3_25_1,25,1.0,1594.57269165,3_D,test,05,4,1.0,11100,kill,0.0,2400.0,18.2184105571
260,3_25_1,25,1.0,1614.58921583,3_D,test,05,4,2.0,01110,ignore,0.0,2300.0,17.8633954394
261,3_25_1,25,1.0,1621.87083504,3_D,test,05,4,3.0,00000,ignore,1.0,2400.0,5.13830661135
262,3_25_1,25,1.0,1627.80862069,3_D,test,05,4,4.0,01010,kill,1.0,2500.0,3.79025528709
263,3_25_1,25,1.0,1636.51213789,3_D,test,05,4,5.0,10101,ignore,1.0,2600.0,6.5101008463
264,3_25_1,25,1.0,1639.87169099,3_D,test,05,4,6.0,11001,ignore,1.0,2700.0,1.21149356394
265,3_25_1,25,1.0,1643.18433177,3_D,test,05,4,7.0,01011,kill,1.0,2800.0,1.12565330465
266,3_25_1,25,1.0,1646.7938626,3_D,test,05,4,8.0,00101,ignore,1.0,2900.0,1.47350839633
267,3_25_1,25,1.0,1649.82528239,3_D,test,05,4,9.0,01101,ignore,1.0,3000.0,0.906866703478
268,3_25_1,25,1.0,1653.70046205,3_D,test,05,4,10.0,11000,ignore,1.0,3100.0,1.71470656455
269,3_25_1,25,1.0,1656.9037471,3_D,test,05,4,11.0,00001,ignore,1.0,3200.0,1.07547482742
270,3_25_1,25,1.0,1660.85704087,3_D,test,05,4,12.0,11110,kill,0.0,3100.0,1.80520221603
271,3_25_1,25,1.0,1670.49814708,3_D,test,05,4,13.0,11111,kill,0.0,3000.0,7.49755386646
272,3_25_1,25,1.0,1679.32665992,3_D,test,05,4,14.0,00110,ignore,0.0,2900.0,6.64193917201
273,3_25_1,25,1.0,1686.04575503,3_D,test,05,4,15.0,10110,kill,1.0,3000.0,4.52469923662
274,3_25_1,25,1.0,1693.61425108,3_D,test,05,4,16.0,01001,ignore,1.0,3100.0,5.4523468883
275,3_25_1,25,1.0,1697.5362823,3_D,test,05,4,17.0,10010,kill,1.0,3200.0,1.77691927164
276,3_25_1,25,1.0,1701.27087486,3_D,test,05,4,18.0,00111,ignore,0.0,3100.0,1.57872764929
277,3_25_1,25,1.0,1706.97423359,3_D,test,05,4,19.0,10001,ignore,1.0,3200.0,3.49890902075
278,3_25_1,25,1.0,1712.19325461,3_D,test,05,4,20.0,01111,kill,1.0,3300.0,3.07016217925
279,3_25_1,25,1.0,1717.00593255,3_D,test,05,4,21.0,01000,ignore,1.0,3400.0,2.65362486324
280,3_25_1,25,1.0,1721.53740879,3_D,test,05,4,22.0,11010,ignore,1.0,3500.0,2.39152176724
281,3_25_1,25,1.0,1725.31888492,3_D,test,05,4,23.0,00010,ignore,0.0,3400.0,1.66627488572
282,3_25_1,25,1.0,1742.06964122,3_D,test,05,4,24.0,11011,kill,0.0,3300.0,14.6166654009
283,3_25_1,25,1.0,1761.96124242,3_D,test,05,4,25.0,10000,ignore,1.0,3400.0,17.7269058268
284,3_25_1,25,1.0,1768.77404639,3_D,test,05,4,26.0,01100,kill,0.0,3300.0,4.70986109771
285,3_25_1,25,1.0,1782.83719921,3_D,test,05,4,27.0,00011,ignore,0.0,3200.0,11.93887273
286,3_25_1,25,1.0,1795.32219624,3_D,test,05,4,28.0,00100,ignore,1.0,3300.0,10.3386284656
287,3_25_1,25,1.0,1799.36923541,3_D,test,05,4,29.0,10111,kill,1.0,3400.0,1.8897546477
288,3_25_1,25,1.0,1802.96315097,3_D,test,05,4,30.0,11110,kill,0.0,3300.0,1.45823673942
289,3_25_1,25,1.0,1809.43219651,3_D,test,05,4,31.0,10111,kill,1.0,3400.0,4.38379356989
290,3_25_1,25,1.0,1813.5729938,3_D,test,05,4,32.0,00111,kill,1.0,3500.0,1.96699762099
291,3_25_1,25,1.0,1818.24509203,3_D,test,05,4,33.0,01101,ignore,1.0,3600.0,2.5046736607
292,3_25_1,25,1.0,1825.63610269,3_D,test,05,4,34.0,11000,kill,0.0,3500.0,5.26274557296
293,3_25_1,25,1.0,1835.23031711,3_D,test,05,4,35.0,10110,kill,1.0,3600.0,7.42348345673
294,3_25_1,25,1.0,1838.83984999,3_D,test,05,4,36.0,10101,ignore,1.0,3700.0,1.49170753135
295,3_25_1,25,1.0,1842.87129565,3_D,test,05,4,37.0,01011,kill,1.0,3800.0,1.86772610365
296,3_25_1,25,1.0,1847.90277948,3_D,test,05,4,38.0,00000,ignore,1.0,3900.0,2.86995527293
297,3_25_1,25,1.0,1854.02810026,3_D,test,05,4,39.0,11010,kill,0.0,3800.0,4.0073677534
298,3_25_1,25,1.0,1860.51273931,3_D,test,05,4,40.0,11011,kill,0.0,3700.0,4.27635335823
299,3_25_1,25,1.0,1865.4817477,3_D,test,05,4,41.0,00011,kill,1.0,3800.0,2.86327228092
300,3_25_1,25,1.0,1872.10701614,3_D,test,05,4,42.0,11100,ignore,1.0,3900.0,4.47944381611
301,3_25_1,25,1.0,1881.7325666,3_D,test,05,4,43.0,11001,ignore,1.0,4000.0,7.45819814975
302,3_25_1,25,1.0,1885.8264446,3_D,test,05,4,44.0,11101,ignore,1.0,4100.0,1.9694960969
303,3_25_1,25,1.0,1888.82655873,3_D,test,05,4,45.0,10001,ignore,1.0,4200.0,0.893172296722
304,3_25_1,25,1.0,1894.95190619,3_D,test,05,4,46.0,00110,kill,1.0,4300.0,4.00472559255
305,3_25_1,25,1.0,1899.38955041,3_D,test,05,4,47.0,01111,kill,1.0,4400.0,2.30712533638
306,3_25_1,25,1.0,1907.28056538,3_D,test,05,4,48.0,10010,ignore,0.0,4300.0,5.7299815057
307,3_25_1,25,1.0,1919.35928543,3_D,test,05,4,49.0,00100,ignore,1.0,4400.0,9.95091475993
308,3_25_1,25,1.0,1927.67215653,3_D,test,05,4,50.0,11111,kill,0.0,4300.0,6.20355804974
309,3_25_1,25,1.0,1938.18827161,3_D,test,05,4,51.0,00010,kill,1.0,4400.0,8.35000585003
310,3_25_1,25,1.0,1943.01664652,3_D,test,05,4,52.0,10100,ignore,1.0,4500.0,2.67553024876
311,3_25_1,25,1.0,1947.76687816,3_D,test,05,4,53.0,01010,kill,1.0,4600.0,2.58709011304
312,3_25_1,25,1.0,1958.26734431,3_D,test,05,4,54.0,01000,kill,0.0,4500.0,8.32759756721
313,3_25_1,25,1.0,1963.14254901,3_D,test,05,4,55.0,00101,ignore,1.0,4600.0,2.69105191748
314,3_25_1,25,1.0,1966.98649156,3_D,test,05,4,56.0,10000,ignore,1.0,4700.0,1.67120738458
315,3_25_1,25,1.0,1972.73678766,3_D,test,05,4,57.0,01100,ignore,1.0,4800.0,3.64455464852
316,3_25_1,25,1.0,1976.65883365,3_D,test,05,4,58.0,10011,kill,1.0,4900.0,1.75283808554
317,3_25_1,25,1.0,1979.65895475,3_D,test,05,4,59.0,00001,ignore,1.0,5000.0,0.887373172379
318,3_25_1,25,1.0,1983.65915222,3_D,test,05,4,60.0,01110,kill,1.0,5100.0,1.84374713913
319,3_25_1,25,1.0,1986.9093036,3_D,test,05,4,61.0,01001,ignore,1.0,5200.0,1.08596054411
320,3_25_1,25,1.0,1991.30015662,3_D,test,05,4,62.0,11000,ignore,1.0,5300.0,2.27495879321
321,3_25_1,25,1.0,1994.95658908,3_D,test,05,4,63.0,11110,kill,0.0,5200.0,1.5308066678
322,3_25_1,25,1.0,2000.14434836,3_D,test,05,5,0.0,10101,ignore,0.0,5100.0,3.06578348321
323,3_25_1,25,1.0,2006.64468643,3_D,test,05,5,1.0,00011,kill,0.0,5000.0,4.35451139935
324,3_25_1,25,1.0,2016.67636075,3_D,test,05,5,2.0,10011,kill,0.0,4900.0,7.85437366707
325,3_25_1,25,1.0,2021.77034261,3_D,test,05,5,3.0,10000,ignore,1.0,5000.0,2.99773922004
326,3_25_1,25,1.0,2024.86422963,3_D,test,05,5,4.0,01001,ignore,1.0,5100.0,0.909987540463
327,3_25_1,25,1.0,2029.28633946,3_D,test,05,5,5.0,00111,kill,1.0,5200.0,2.21518175119
328,3_25_1,25,1.0,2032.52085546,3_D,test,05,5,6.0,01111,kill,1.0,5300.0,1.09266529413
329,3_25_1,25,1.0,2038.45862797,3_D,test,05,5,7.0,10001,ignore,1.0,5400.0,3.59626008617
330,3_25_1,25,1.0,2041.72442049,3_D,test,05,5,8.0,00100,kill,1.0,5500.0,1.14234169511
331,3_25_1,25,1.0,2044.86521613,3_D,test,05,5,9.0,01100,kill,0.0,5400.0,0.957236486945
332,3_25_1,25,1.0,2049.72477067,3_D,test,05,5,10.0,10010,ignore,1.0,5500.0,2.65654987818
333,3_25_1,25,1.0,2053.52188014,3_D,test,05,5,11.0,00001,ignore,1.0,5600.0,1.66918963744
334,3_25_1,25,1.0,2057.35016637,3_D,test,05,5,12.0,11010,ignore,1.0,5700.0,1.67294268818
335,3_25_1,25,1.0,2060.52216381,3_D,test,05,5,13.0,11001,ignore,1.0,5800.0,1.06415327489
336,3_25_1,25,1.0,2065.42864093,3_D,test,05,5,14.0,11101,kill,0.0,5700.0,2.64862175349
337,3_25_1,25,1.0,2068.67886949,3_D,test,05,5,15.0,01010,ignore,1.0,5800.0,1.07819334657
338,3_25_1,25,1.0,2072.33526706,3_D,test,05,5,16.0,01011,ignore,1.0,5900.0,1.51021866796
339,3_25_1,25,1.0,2077.58550876,3_D,test,05,5,17.0,11011,ignore,1.0,6000.0,3.09721107524
340,3_25_1,25,1.0,2084.53892199,3_D,test,05,5,18.0,01101,ignore,1.0,6100.0,4.83252329236
341,3_25_1,25,1.0,2088.92977173,3_D,test,05,5,19.0,01110,kill,1.0,6200.0,2.30429474298
342,3_25_1,25,1.0,2092.28932113,3_D,test,05,5,20.0,10100,kill,1.0,6300.0,1.17539374806
343,3_25_1,25,1.0,2096.11761885,3_D,test,05,5,21.0,01000,ignore,1.0,6400.0,1.72744074536
344,3_25_1,25,1.0,2100.07090729,3_D,test,05,5,22.0,11100,kill,0.0,6300.0,1.85706550186
345,3_25_1,25,1.0,2104.80554829,3_D,test,05,5,23.0,10111,kill,1.0,6400.0,2.61987162777
346,3_25_1,25,1.0,2108.55568879,3_D,test,05,5,24.0,11111,kill,1.0,6500.0,1.61549867912
347,3_25_1,25,1.0,2113.18089893,3_D,test,05,5,25.0,00101,ignore,0.0,6400.0,2.43722384267
348,3_25_1,25,1.0,2119.39993185,3_D,test,05,5,26.0,00110,kill,1.0,6500.0,4.11905857625
349,3_25_1,25,1.0,2123.68137823,3_D,test,05,5,27.0,00010,ignore,1.0,6600.0,2.00064329802
350,3_25_1,25,1.0,2126.83784702,3_D,test,05,5,28.0,00000,ignore,1.0,6700.0,0.89477787334
351,3_25_1,25,1.0,2130.3692231,3_D,test,05,5,29.0,10110,kill,1.0,6800.0,1.31391670789
352,3_25_1,25,1.0,2133.94749916,3_D,test,05,5,30.0,11010,ignore,1.0,6900.0,1.43213616406
353,3_25_1,25,1.0,2142.40103946,3_D,test,05,5,31.0,00101,ignore,0.0,6800.0,6.29834618629
354,3_25_1,25,1.0,2147.43254177,3_D,test,05,5,32.0,00011,ignore,1.0,6900.0,2.84871781714
355,3_25_1,25,1.0,2164.58956929,3_D,test,05,5,33.0,01100,kill,0.0,6800.0,14.9732680319
356,3_25_1,25,1.0,2169.04294045,3_D,test,05,5,34.0,10001,ignore,1.0,6900.0,2.33877297163
