,unique_id,pair_id,sbj_id,wall_time,condition,block,rule_id,rule_num,trial,stimulus,choice,correct,points,reaction_time
0,3_1_1,1,1.0,25.353734541,3_D,training,01,1_A,1.0,11101,kill,0.0,0.0,3.83023874891
1,3_1_1,1,1.0,31.2051685098,3_D,training,01,1_A,2.0,01010,ignore,0.0,0.0,4.05541033766
2,3_1_1,1,1.0,36.064806666,3_D,training,01,1_A,3.0,01110,kill,1.0,100.0,3.04880817981
3,3_1_1,1,1.0,42.486995497,3_D,training,01,1_A,4.0,00110,kill,1.0,200.0,4.60991173603
4,3_1_1,1,1.0,46.0028531842,3_D,training,01,1_A,5.0,11110,ignore,0.0,100.0,1.72481012983
5,3_1_1,1,1.0,51.5303311182,3_D,training,01,1_A,6.0,11111,kill,1.0,200.0,3.71748826141
6,3_1_1,1,1.0,58.3588180582,3_D,training,01,1_A,7.0,01111,ignore,0.0,100.0,5.00320213476
7,3_1_1,1,1.0,62.4996439934,3_D,training,01,1_A,8.0,10100,kill,0.0,0.0,2.34076628008
8,3_1_1,1,1.0,67.8905603736,3_D,training,01,1_A,9.0,10010,ignore,1.0,100.0,3.59622216093
9,3_1_1,1,1.0,72.2032624314,3_D,training,01,1_A,10.0,00001,kill,0.0,0.0,2.48765779751
10,3_1_1,1,1.0,75.7034272849,3_D,training,01,1_A,11.0,01011,ignore,0.0,0.0,1.71262732848
11,3_1_1,1,1.0,80.4536813004,3_D,training,01,1_A,12.0,10110,ignore,0.0,0.0,2.93718600862
12,3_1_1,1,1.0,85.8289500693,3_D,training,01,1_A,13.0,01000,kill,0.0,0.0,3.57604236157
13,3_1_1,1,1.0,90.2354309925,3_D,training,01,1_A,14.0,00011,ignore,0.0,0.0,2.58810424899
14,3_1_1,1,1.0,96.5017296788,3_D,training,01,1_A,15.0,00111,kill,1.0,100.0,4.45649695951
15,3_1_1,1,1.0,102.361422038,3_D,training,01,1_A,16.0,10111,kill,1.0,200.0,4.04928510032
16,3_1_1,1,1.0,107.783571419,3_D,training,01,1_A,17.0,00101,ignore,1.0,300.0,3.60969235901
17,3_1_1,1,1.0,111.893159542,3_D,training,01,1_A,18.0,01100,ignore,1.0,400.0,2.33384596141
18,3_1_1,1,1.0,115.143319264,3_D,training,01,1_A,19.0,11000,ignore,1.0,500.0,1.4697227639
19,3_1_1,1,1.0,117.955970326,3_D,training,01,1_A,20.0,11001,ignore,1.0,600.0,1.01698889003
20,3_1_1,1,1.0,120.628005209,3_D,training,01,1_A,21.0,10001,ignore,1.0,700.0,0.886983630111
21,3_1_1,1,1.0,123.284367142,3_D,training,01,1_A,22.0,00100,ignore,1.0,800.0,0.84845922923
22,3_1_1,1,1.0,125.847017563,3_D,training,01,1_A,23.0,11011,kill,0.0,700.0,0.789604608201
23,3_1_1,1,1.0,130.175358893,3_D,training,01,1_A,24.0,10101,kill,0.0,600.0,2.53214931749
24,3_1_1,1,1.0,132.831709281,3_D,training,01,1_A,25.0,01101,ignore,1.0,700.0,0.867827590188
25,3_1_1,1,1.0,136.050677695,3_D,training,01,1_A,26.0,10000,ignore,1.0,800.0,1.43980730744
26,3_1_1,1,1.0,141.566549495,3_D,training,01,1_A,27.0,00010,kill,1.0,900.0,3.73247613794
27,3_1_1,1,1.0,148.491970609,3_D,training,01,1_A,28.0,10011,kill,0.0,800.0,5.1633223431
28,3_1_1,1,1.0,151.460863653,3_D,training,01,1_A,29.0,00000,ignore,1.0,900.0,1.17597565043
29,3_1_1,1,1.0,154.257877688,3_D,training,01,1_A,30.0,11100,ignore,1.0,1000.0,1.01570405912
30,3_1_1,1,1.0,157.023646534,3_D,training,01,1_A,31.0,01001,ignore,1.0,1100.0,0.973191743213
31,3_1_1,1,1.0,163.258330874,3_D,training,01,1_A,32.0,11010,kill,0.0,1000.0,4.46090759224
32,3_1_1,1,1.0,166.999179902,3_D,training,01,1_A,33.0,00110,ignore,0.0,900.0,1.94989223585
33,3_1_1,1,1.0,169.43678478,3_D,training,01,1_A,34.0,11000,ignore,1.0,1000.0,0.67032797506
34,3_1_1,1,1.0,174.312083697,3_D,training,01,1_A,35.0,00010,ignore,0.0,900.0,3.0980217581
35,3_1_1,1,1.0,177.921619221,3_D,training,01,1_A,36.0,10101,ignore,1.0,1000.0,1.8192846513
36,3_1_1,1,1.0,181.093611446,3_D,training,01,1_A,37.0,10010,kill,0.0,900.0,1.36774195618
37,3_1_1,1,1.0,183.750009301,3_D,training,01,1_A,38.0,01001,ignore,1.0,1000.0,0.878275901883
38,3_1_1,1,1.0,186.718910363,3_D,training,01,1_A,39.0,00100,ignore,1.0,1100.0,1.1941076102
39,3_1_1,1,1.0,189.906587084,3_D,training,01,1_A,40.0,00000,ignore,1.0,1200.0,1.40092722071
40,3_1_1,1,1.0,196.235043555,3_D,training,01,1_A,41.0,01110,kill,1.0,1300.0,4.55196541284
41,3_1_1,1,1.0,200.829008442,3_D,training,01,1_A,42.0,11001,kill,0.0,1200.0,2.82117276902
42,3_1_1,1,1.0,205.37612094,3_D,training,01,1_A,43.0,01011,kill,1.0,1300.0,2.75323965977
43,3_1_1,1,1.0,209.298213553,3_D,training,01,1_A,44.0,11111,kill,1.0,1400.0,2.13627386206
44,3_1_1,1,1.0,212.517120067,3_D,training,01,1_A,45.0,00001,ignore,1.0,1500.0,1.44053760199
45,3_1_1,1,1.0,217.236131459,3_D,training,01,1_A,46.0,11010,kill,0.0,1400.0,2.95754060399
46,3_1_1,1,1.0,220.5800229,3_D,training,01,1_A,47.0,01000,ignore,1.0,1500.0,1.57246722174
47,3_1_1,1,1.0,225.142790065,3_D,training,01,1_A,48.0,11110,kill,1.0,1600.0,2.7965457741
48,3_1_1,1,1.0,233.502623223,3_D,training,01,1_A,49.0,10011,kill,0.0,1500.0,6.57769955611
49,3_1_1,1,1.0,236.909028134,3_D,training,01,1_A,50.0,10000,ignore,1.0,1600.0,1.63695348181
50,3_1_1,1,1.0,240.693997922,3_D,training,01,1_A,51.0,01111,kill,1.0,1700.0,2.01799949967
51,3_1_1,1,1.0,244.866091497,3_D,training,01,1_A,52.0,00011,kill,1.0,1800.0,2.39097250731
52,3_1_1,1,1.0,247.835017897,3_D,training,01,1_A,53.0,11101,ignore,1.0,1900.0,1.18899490686
53,3_1_1,1,1.0,250.53829027,3_D,training,01,1_A,54.0,10001,ignore,1.0,2000.0,0.91570566275
54,3_1_1,1,1.0,253.666589585,3_D,training,01,1_A,55.0,01010,kill,1.0,2100.0,1.37400478524
55,3_1_1,1,1.0,256.526079245,3_D,training,01,1_A,56.0,00101,ignore,1.0,2200.0,1.06956207985
56,3_1_1,1,1.0,260.49502136,3_D,training,01,1_A,57.0,10100,ignore,1.0,2300.0,2.18523631139
57,3_1_1,1,1.0,263.35455079,3_D,training,01,1_A,58.0,01101,ignore,1.0,2400.0,1.06308981629
58,3_1_1,1,1.0,266.620328617,3_D,training,01,1_A,59.0,10110,kill,1.0,2500.0,1.50748575974
59,3_1_1,1,1.0,269.714250847,3_D,training,01,1_A,60.0,10111,kill,1.0,2600.0,1.309465926
60,3_1_1,1,1.0,272.526882986,3_D,training,01,1_A,61.0,11011,kill,0.0,2500.0,1.03955168831
61,3_1_1,1,1.0,276.18334659,3_D,training,01,1_A,62.0,00111,kill,1.0,2600.0,1.86857167599
62,3_1_1,1,1.0,279.308554742,3_D,training,01,1_A,63.0,11100,ignore,1.0,2700.0,1.33569847847
63,3_1_1,1,1.0,281.949282535,3_D,training,01,1_A,64.0,01100,ignore,1.0,2800.0,0.864164250524
64,3_1_1,1,1.0,285.324453482,3_D,training,01,1_A,65.0,10011,kill,0.0,2700.0,1.58794164058
65,3_1_1,1,1.0,288.137095564,3_D,training,01,1_A,66.0,10111,kill,1.0,2800.0,1.03445662493
66,3_1_1,1,1.0,293.184248153,3_D,training,01,1_A,67.0,00010,kill,1.0,2900.0,3.28029263099
67,3_1_1,1,1.0,295.653131575,3_D,training,01,1_A,68.0,11100,ignore,1.0,3000.0,0.698772579155
68,3_1_1,1,1.0,298.747096141,3_D,training,01,1_A,69.0,00001,ignore,1.0,3100.0,1.30057410068
69,3_1_1,1,1.0,301.841580926,3_D,training,01,1_A,70.0,10110,kill,1.0,3200.0,1.31064876584
70,3_1_1,1,1.0,304.716720763,3_D,training,01,1_A,71.0,01101,ignore,1.0,3300.0,1.08008159286
71,3_1_1,1,1.0,307.201216837,3_D,training,01,1_A,72.0,11000,ignore,1.0,3400.0,0.723864948428
72,3_1_1,1,1.0,311.123317789,3_D,training,01,1_A,73.0,11011,kill,0.0,3300.0,2.15842003643
73,3_1_1,1,1.0,314.045312259,3_D,training,01,1_A,74.0,00111,kill,1.0,3400.0,1.13388156207
74,3_1_1,1,1.0,316.864232245,3_D,training,01,1_A,75.0,11010,kill,0.0,3300.0,1.08813984964
75,3_1_1,1,1.0,320.395654154,3_D,training,01,1_A,76.0,10010,kill,0.0,3200.0,1.74797910145
76,3_1_1,1,1.0,323.192636116,3_D,training,01,1_A,77.0,10001,ignore,1.0,3300.0,1.0202128342
77,3_1_1,1,1.0,326.130333684,3_D,training,01,1_A,78.0,11101,ignore,1.0,3400.0,1.15389875301
78,3_1_1,1,1.0,329.021079438,3_D,training,01,1_A,79.0,01110,kill,1.0,3500.0,1.12224720326
79,3_1_1,1,1.0,331.724383563,3_D,training,01,1_A,80.0,01100,ignore,1.0,3600.0,0.932345602198
80,3_1_1,1,1.0,334.724529494,3_D,training,01,1_A,81.0,01000,ignore,1.0,3700.0,1.2135872633
81,3_1_1,1,1.0,338.318477703,3_D,training,01,1_A,82.0,11110,ignore,0.0,3600.0,1.84419677221
82,3_1_1,1,1.0,341.287329373,3_D,training,01,1_A,83.0,10000,ignore,1.0,3700.0,1.17577872428
83,3_1_1,1,1.0,344.146869067,3_D,training,01,1_A,84.0,01111,kill,1.0,3800.0,1.09549635655
84,3_1_1,1,1.0,346.850127649,3_D,training,01,1_A,85.0,01001,ignore,1.0,3900.0,0.938977587623
85,3_1_1,1,1.0,349.412743432,3_D,training,01,1_A,86.0,00101,ignore,1.0,4000.0,0.764115500077
86,3_1_1,1,1.0,352.725448697,3_D,training,01,1_A,87.0,00110,kill,1.0,4100.0,1.53193186483
87,3_1_1,1,1.0,356.225610022,3_D,training,01,1_A,88.0,01010,kill,1.0,4200.0,1.7334232437
88,3_1_1,1,1.0,361.163380395,3_D,training,01,1_A,89.0,11111,ignore,0.0,4100.0,3.1743774696
89,3_1_1,1,1.0,363.585362036,3_D,training,01,1_A,90.0,11001,ignore,1.0,4200.0,0.652968966489
90,3_1_1,1,1.0,366.179243534,3_D,training,01,1_A,91.0,00000,ignore,1.0,4300.0,0.801514471186
91,3_1_1,1,1.0,369.382563696,3_D,training,01,1_A,92.0,00011,kill,1.0,4400.0,1.40748319392
92,3_1_1,1,1.0,372.007685252,3_D,training,01,1_A,93.0,01011,kill,1.0,4500.0,0.878260186277
93,3_1_1,1,1.0,374.539059373,3_D,training,01,1_A,94.0,00100,ignore,1.0,4600.0,0.754036344742
94,3_1_1,1,1.0,377.101693116,3_D,training,01,1_A,95.0,10100,ignore,1.0,4700.0,0.779235195259
95,3_1_1,1,1.0,380.445635873,3_D,training,01,1_A,96.0,10101,ignore,1.0,4800.0,1.56181300354
96,3_1_1,1,1.0,384.45206548,3_D,training,01,1_A,97.0,01111,kill,1.0,4900.0,2.23453680659
97,3_1_1,1,1.0,387.592875058,3_D,training,01,1_A,98.0,01011,kill,1.0,5000.0,1.37488838713
98,3_1_1,1,1.0,390.405530931,3_D,training,01,1_A,99.0,10101,ignore,1.0,5100.0,1.02174205881
99,3_1_1,1,1.0,393.061914353,3_D,training,01,1_A,100.0,00110,kill,1.0,5200.0,0.884045132652
100,3_1_1,1,1.0,395.624544568,3_D,training,01,1_A,101.0,11000,ignore,1.0,5300.0,0.816556871247
101,3_1_1,1,1.0,398.593453328,3_D,training,01,1_A,102.0,10010,kill,0.0,5200.0,1.20692929902
102,3_1_1,1,1.0,401.452975702,3_D,training,01,1_A,103.0,00001,ignore,1.0,5300.0,1.06933692975
103,3_1_1,1,1.0,404.06520565,3_D,training,01,1_A,104.0,01001,ignore,1.0,5400.0,0.833346590034
104,3_1_1,1,1.0,407.674737325,3_D,training,01,1_A,105.0,11010,kill,0.0,5300.0,1.85526472777
105,3_1_1,1,1.0,411.925017961,3_D,training,01,1_A,106.0,11111,kill,1.0,5400.0,2.43389888131
106,3_1_1,1,1.0,415.284566313,3_D,training,01,1_A,107.0,11110,kill,1.0,5500.0,1.58209062452
107,3_1_1,1,1.0,417.831566557,3_D,training,01,1_A,108.0,11101,ignore,1.0,5600.0,0.781380535742
108,3_1_1,1,1.0,420.40990019,3_D,training,01,1_A,109.0,10001,ignore,1.0,5700.0,0.821328000718
109,3_1_1,1,1.0,423.462456702,3_D,training,01,1_A,110.0,00011,kill,1.0,5800.0,1.2669981911
110,3_1_1,1,1.0,426.244391453,3_D,training,01,1_A,111.0,10100,ignore,1.0,5900.0,1.00731513317
111,3_1_1,1,1.0,428.900735105,3_D,training,01,1_A,112.0,00000,ignore,1.0,6000.0,0.868992469339
112,3_1_1,1,1.0,431.697811361,3_D,training,01,1_A,113.0,00010,kill,1.0,6100.0,1.02531142557
113,3_1_1,1,1.0,434.197914315,3_D,training,01,1_A,114.0,00101,ignore,1.0,6200.0,0.702326230308
114,3_1_1,1,1.0,437.68020828,3_D,training,01,1_A,115.0,00111,kill,1.0,6300.0,1.68836948992
115,3_1_1,1,1.0,440.633515292,3_D,training,01,1_A,116.0,10110,kill,1.0,6400.0,1.19564196644
116,3_1_1,1,1.0,443.211741802,3_D,training,01,1_A,117.0,10111,kill,1.0,6500.0,0.802430466465
117,3_1_1,1,1.0,445.76460108,3_D,training,01,1_A,118.0,10000,ignore,1.0,6600.0,0.785404051418
118,3_1_1,1,1.0,448.749217106,3_D,training,01,1_A,119.0,11100,ignore,1.0,6700.0,1.21727048802
119,3_1_1,1,1.0,451.874351491,3_D,training,01,1_A,120.0,01100,ignore,1.0,6800.0,1.34283208036
120,3_1_1,1,1.0,454.655766986,3_D,training,01,1_A,121.0,01000,ignore,1.0,6900.0,1.01646514343
121,3_1_1,1,1.0,459.370688793,3_D,training,01,1_A,122.0,10011,ignore,1.0,7000.0,2.95870836968
122,3_1_1,1,1.0,462.511488428,3_D,training,01,1_A,123.0,01110,kill,1.0,7100.0,1.38281931544
123,3_1_1,1,1.0,465.386583363,3_D,training,01,1_A,124.0,01101,ignore,1.0,7200.0,1.11025010263
124,3_1_1,1,1.0,468.855520026,3_D,training,01,1_A,125.0,11011,ignore,1.0,7300.0,1.69715900344
125,3_1_1,1,1.0,471.558837943,3_D,training,01,1_A,126.0,00100,ignore,1.0,7400.0,0.915110714835
126,3_1_1,1,1.0,474.137097167,3_D,training,01,1_A,127.0,11001,ignore,1.0,7500.0,0.829202801868
127,3_1_1,1,1.0,477.949789283,3_D,training,01,1_A,128.0,01010,kill,1.0,7600.0,2.04385295325
128,3_1_1,1,1.0,480.715560374,3_D,training,01,1_A,129.0,01010,kill,1.0,7700.0,1.00866539231
129,3_1_1,1,1.0,483.590718492,3_D,training,01,1_A,130.0,10111,kill,1.0,7800.0,1.0950672243
130,3_1_1,1,1.0,486.043969056,3_D,training,01,1_A,131.0,01000,ignore,1.0,7900.0,0.682691666238
131,3_1_1,1,1.0,490.01290187,3_D,training,01,1_A,132.0,11010,ignore,1.0,8000.0,2.19849579207
132,3_1_1,1,1.0,492.575560309,3_D,training,01,1_A,133.0,01100,ignore,1.0,8100.0,0.795998614461
133,3_1_1,1,1.0,496.294513009,3_D,training,01,1_A,134.0,11011,ignore,1.0,8200.0,1.94801406066
134,3_1_1,1,1.0,499.075872376,3_D,training,01,1_A,135.0,01011,kill,1.0,8300.0,1.01129438857
135,3_1_1,1,1.0,501.607247781,3_D,training,01,1_A,136.0,01111,kill,1.0,8400.0,0.771140054907
136,3_1_1,1,1.0,504.451156861,3_D,training,01,1_A,137.0,10001,ignore,1.0,8500.0,1.04836076615
137,3_1_1,1,1.0,507.060671858,3_D,training,01,1_A,138.0,00100,ignore,1.0,8600.0,0.822555742288
138,3_1_1,1,1.0,509.592035075,3_D,training,01,1_A,139.0,11000,ignore,1.0,8700.0,0.765053946221
139,3_1_1,1,1.0,513.357855558,3_D,training,01,1_A,140.0,10011,ignore,1.0,8800.0,1.98894583568
140,3_1_1,1,1.0,516.233010789,3_D,training,01,1_A,141.0,11100,ignore,1.0,8900.0,1.10788923385
141,3_1_1,1,1.0,519.061315877,3_D,training,01,1_A,142.0,00110,kill,1.0,9000.0,1.04631356802
142,3_1_1,1,1.0,522.030180056,3_D,training,01,1_A,143.0,00111,kill,1.0,9100.0,1.16990429517
143,3_1_1,1,1.0,524.467817648,3_D,training,01,1_A,144.0,01110,kill,1.0,9200.0,0.665936265203
144,3_1_1,1,1.0,527.1085804,3_D,training,01,1_A,145.0,01101,ignore,1.0,9300.0,0.87873903115
145,3_1_1,1,1.0,529.655560117,3_D,training,01,1_A,146.0,10101,ignore,1.0,9400.0,0.761955085442
146,3_1_1,1,1.0,532.718257685,3_D,training,01,1_A,147.0,10110,kill,1.0,9500.0,1.29894833735
147,3_1_1,1,1.0,535.546498627,3_D,training,01,1_A,148.0,11001,ignore,1.0,9600.0,1.06188580849
148,3_1_1,1,1.0,538.281037679,3_D,training,01,1_A,149.0,11110,kill,1.0,9700.0,0.987387104224
149,3_1_1,1,1.0,540.665023798,3_D,training,01,1_A,150.0,00001,ignore,1.0,9800.0,0.627241237749
150,3_1_1,1,1.0,543.540172294,3_D,training,01,1_A,151.0,11101,ignore,1.0,9900.0,1.08113068969
151,3_1_1,1,1.0,546.337170614,3_D,training,01,1_A,152.0,11111,kill,1.0,10000.0,1.03705002053
152,3_1_1,1,1.0,550.056098296,3_D,training,01,1_A,153.0,10100,ignore,1.0,10100.0,1.93775337404
153,3_1_1,1,1.0,553.025014112,3_D,training,01,1_A,154.0,10000,ignore,1.0,10200.0,1.20277556833
154,3_1_1,1,1.0,555.634521732,3_D,training,01,1_A,155.0,00000,ignore,1.0,10300.0,0.816842317956
155,3_1_1,1,1.0,558.759691718,3_D,training,01,1_A,156.0,00011,kill,1.0,10400.0,1.35067609175
156,3_1_1,1,1.0,561.650464733,3_D,training,01,1_A,157.0,01001,ignore,1.0,10500.0,1.11943795864
157,3_1_1,1,1.0,564.181834685,3_D,training,01,1_A,158.0,00101,ignore,1.0,10600.0,0.761114460924
158,3_1_1,1,1.0,567.275766216,3_D,training,01,1_A,159.0,00010,kill,1.0,10700.0,1.33130484426
159,3_1_1,1,1.0,570.245252604,3_D,training,01,1_A,160.0,10010,ignore,1.0,10800.0,1.19582221481
160,3_1_1,1,1.0,572.745362934,3_D,training,01,1_A,161.0,11001,ignore,1.0,10900.0,0.72253585724
161,3_1_1,1,1.0,575.683033561,3_D,training,01,1_A,162.0,00110,kill,1.0,11000.0,1.16517101144
162,3_1_1,1,1.0,578.745652871,3_D,training,01,1_A,163.0,00101,ignore,1.0,11100.0,1.26804311849
163,3_1_1,1,1.0,581.417686791,3_D,training,01,1_A,164.0,00010,kill,1.0,11200.0,0.87961653923
164,3_1_1,1,1.0,584.058427092,3_D,training,01,1_A,165.0,01101,ignore,1.0,11300.0,0.867297429055
165,3_1_1,1,1.0,586.683601247,3_D,training,01,1_A,166.0,01100,ignore,1.0,11400.0,0.847063747628
166,3_1_1,1,1.0,590.011941615,3_D,training,01,1_A,167.0,10110,kill,1.0,11500.0,1.57307403654
167,3_1_1,1,1.0,592.801005157,3_D,training,01,1_A,168.0,10101,ignore,1.0,11600.0,1.04522598399
168,3_1_1,1,1.0,595.848007325,3_D,training,01,1_A,169.0,01110,kill,1.0,11700.0,1.27450223226
169,3_1_1,1,1.0,598.645033548,3_D,training,01,1_A,170.0,00100,ignore,1.0,11800.0,1.02193064607
170,3_1_1,1,1.0,601.254544376,3_D,training,01,1_A,171.0,11100,ignore,1.0,11900.0,0.836610945758
171,3_1_1,1,1.0,604.082832465,3_D,training,01,1_A,172.0,11101,ignore,1.0,12000.0,1.06631568481
172,3_1_1,1,1.0,606.551718453,3_D,training,01,1_A,173.0,00001,ignore,1.0,12100.0,0.685918817673
173,3_1_1,1,1.0,609.723744997,3_D,training,01,1_A,174.0,10111,kill,1.0,12200.0,1.38524432955
174,3_1_1,1,1.0,612.411424283,3_D,training,01,1_A,175.0,00111,kill,1.0,12300.0,0.928700223225
175,3_1_1,1,1.0,614.942767294,3_D,training,01,1_A,176.0,01000,ignore,1.0,12400.0,0.771155770513
176,3_1_1,1,1.0,619.458610227,3_D,training,01,1_A,177.0,11010,ignore,1.0,12500.0,2.78011366552
177,3_1_1,1,1.0,622.33376578,3_D,training,01,1_A,178.0,00011,kill,1.0,12600.0,1.09051771694
178,3_1_1,1,1.0,624.896389901,3_D,training,01,1_A,179.0,01001,ignore,1.0,12700.0,0.789425001281
179,3_1_1,1,1.0,627.63094114,3_D,training,01,1_A,180.0,00000,ignore,1.0,12800.0,0.965181274696
180,3_1_1,1,1.0,630.42796608,3_D,training,01,1_A,181.0,11111,kill,1.0,12900.0,1.01375115462
181,3_1_1,1,1.0,633.146806525,3_D,training,01,1_A,182.0,10001,ignore,1.0,13000.0,0.948053510034
182,3_1_1,1,1.0,637.615779109,3_D,training,01,1_A,183.0,10011,ignore,1.0,13100.0,2.70913461538
183,3_1_1,1,1.0,641.709753939,3_D,training,01,1_A,184.0,10010,ignore,1.0,13200.0,2.32596250064
184,3_1_1,1,1.0,646.225619965,3_D,training,01,1_A,185.0,01111,kill,1.0,13300.0,2.75984983579
185,3_1_1,1,1.0,650.272709691,3_D,training,01,1_A,186.0,01010,kill,1.0,13400.0,2.30427239955
186,3_1_1,1,1.0,653.431354236,3_D,training,01,1_A,187.0,11011,ignore,1.0,13500.0,1.38625461846
187,3_1_1,1,1.0,656.337736696,3_D,training,01,1_A,188.0,11110,kill,1.0,13600.0,1.17017210191
188,3_1_1,1,1.0,659.291022541,3_D,training,01,1_A,189.0,10100,ignore,1.0,13700.0,1.17027601734
189,3_1_1,1,1.0,662.447453751,3_D,training,01,1_A,190.0,10000,ignore,1.0,13800.0,1.39406014266
190,3_1_1,1,1.0,665.04131376,3_D,training,01,1_A,191.0,11000,ignore,1.0,13900.0,0.825449017293
191,3_1_1,1,1.0,667.791460012,3_D,training,01,1_A,192.0,01011,kill,1.0,14000.0,0.983839546876
192,3_1_1,1,1.0,670.588511251,3_D,training,01,1_A,193.0,11011,ignore,1.0,14100.0,1.04840021553
193,3_1_1,1,1.0,673.229226536,3_D,training,01,1_A,194.0,00001,ignore,1.0,14200.0,0.860663519268
194,3_1_1,1,1.0,676.495115975,3_D,training,01,1_A,195.0,01000,ignore,1.0,14300.0,1.51437079848
195,3_1_1,1,1.0,679.401510622,3_D,training,01,1_A,196.0,01111,kill,1.0,14400.0,1.12376424026
196,3_1_1,1,1.0,682.542318597,3_D,training,01,1_A,197.0,10000,ignore,1.0,14500.0,1.36525760764
197,3_1_1,1,1.0,685.151831028,3_D,training,01,1_A,198.0,10001,ignore,1.0,14600.0,0.854262136296
198,3_1_1,1,1.0,687.776902871,3_D,training,01,1_A,199.0,10101,ignore,1.0,14700.0,0.843039590496
199,3_1_1,1,1.0,691.386525632,3_D,training,01,1_A,200.0,11010,ignore,1.0,14800.0,1.86512482681
200,3_1_1,1,1.0,694.042908093,3_D,training,01,1_A,201.0,00111,kill,1.0,14900.0,0.892718222405
201,3_1_1,1,1.0,696.808660902,3_D,training,01,1_A,202.0,10010,ignore,1.0,15000.0,1.00035312003
202,3_1_1,1,1.0,699.355654731,3_D,training,01,1_A,203.0,11001,ignore,1.0,15100.0,0.800384551239
203,3_1_1,1,1.0,702.058921011,3_D,training,01,1_A,204.0,11100,ignore,1.0,15200.0,0.918796184636
204,3_1_1,1,1.0,704.746560207,3_D,training,01,1_A,205.0,00110,kill,1.0,15300.0,0.93776235439
205,3_1_1,1,1.0,707.496706779,3_D,training,01,1_A,206.0,00100,ignore,1.0,15400.0,0.987865628367
206,3_1_1,1,1.0,710.371855917,3_D,training,01,1_A,207.0,10011,ignore,1.0,15500.0,1.10736260071
207,3_1_1,1,1.0,713.137602312,3_D,training,01,1_A,208.0,00000,ignore,1.0,15600.0,1.00634718017
208,3_1_1,1,1.0,715.825241507,3_D,training,01,1_A,209.0,01001,ignore,1.0,15700.0,0.942014227434
209,3_1_1,1,1.0,718.872319367,3_D,training,01,1_A,210.0,11101,ignore,1.0,15800.0,1.27121895366
210,3_1_1,1,1.0,722.950636642,3_D,training,01,1_A,211.0,01011,kill,1.0,15900.0,2.31592375686
211,3_1_1,1,1.0,736.076279699,3_D,training,01,1_A,212.0,00010,kill,1.0,16000.0,11.3484399856
212,3_1_1,1,1.0,738.85770225,3_D,training,01,1_A,213.0,01101,ignore,1.0,16100.0,1.013512534
213,3_1_1,1,1.0,745.436158721,3_D,training,01,1_A,214.0,11111,kill,1.0,16200.0,4.81210101606
214,3_1_1,1,1.0,749.655140286,3_D,training,01,1_A,215.0,10100,ignore,1.0,16300.0,2.43135776415
215,3_1_1,1,1.0,753.280294876,3_D,training,01,1_A,216.0,10111,kill,1.0,16400.0,1.85196316775
216,3_1_1,1,1.0,757.405468389,3_D,training,01,1_A,217.0,01010,kill,1.0,16500.0,2.37606449171
217,3_1_1,1,1.0,760.577584736,3_D,training,01,1_A,218.0,01100,ignore,1.0,16600.0,1.4238453841
218,3_1_1,1,1.0,762.999571188,3_D,training,01,1_A,219.0,00101,ignore,1.0,16700.0,0.637293131318
219,3_1_1,1,1.0,766.749762342,3_D,training,01,1_A,220.0,11110,kill,1.0,16800.0,1.99527858316
220,3_1_1,1,1.0,769.874892877,3_D,training,01,1_A,221.0,01110,kill,1.0,16900.0,1.37082830862
221,3_1_1,1,1.0,772.828192513,3_D,training,01,1_A,222.0,10110,kill,1.0,17000.0,1.17018300662
222,3_1_1,1,1.0,775.62519436,3_D,training,01,1_A,223.0,00011,kill,1.0,17100.0,1.03433474881
223,3_1_1,1,1.0,779.094130703,3_D,training,01,1_A,224.0,11000,ignore,1.0,17200.0,1.7120894699
224,3_1_1,1,1.0,781.953638323,3_D,training,01,1_A,225.0,10100,ignore,1.0,17300.0,1.06588142095
225,3_1_1,1,1.0,784.375651075,3_D,training,01,1_A,226.0,01001,ignore,1.0,17400.0,0.67041200544
226,3_1_1,1,1.0,790.125929787,3_D,training,01,1_A,227.0,00101,ignore,1.0,17500.0,3.9791947837
227,3_1_1,1,1.0,792.735454406,3_D,training,01,1_A,228.0,00000,ignore,1.0,17600.0,0.832039628982
228,3_1_1,1,1.0,795.407460422,3_D,training,01,1_A,229.0,00001,ignore,1.0,17700.0,0.909934828347
229,3_1_1,1,1.0,798.048240494,3_D,training,01,1_A,230.0,11000,ignore,1.0,17800.0,0.873037794427
230,3_1_1,1,1.0,800.89212552,3_D,training,01,1_A,231.0,10111,kill,1.0,17900.0,1.08557692308
231,3_1_1,1,1.0,803.642270488,3_D,training,01,1_A,232.0,11110,kill,1.0,18000.0,0.985224123775
232,3_1_1,1,1.0,810.783273144,3_D,training,01,1_A,233.0,10010,ignore,1.0,18100.0,5.36880676861
233,3_1_1,1,1.0,816.955429261,3_D,training,01,1_A,234.0,01010,kill,1.0,18200.0,4.42248133371
234,3_1_1,1,1.0,819.783710294,3_D,training,01,1_A,235.0,10000,ignore,1.0,18300.0,1.04983322215
235,3_1_1,1,1.0,837.112723226,3_D,training,01,1_A,236.0,10001,ignore,1.0,18400.0,15.5499586263
236,3_1_1,1,1.0,841.519232694,3_D,training,01,1_A,237.0,01110,kill,1.0,18500.0,2.64366981834
237,3_1_1,1,1.0,947.727769475,3_D,test,01,2,0.0,01100,ignore,1.0,100.0,2.52942282034
238,3_1_1,1,1.0,951.024822317,3_D,test,01,2,1.0,01111,kill,0.0,0.0,1.53123524658
239,3_1_1,1,1.0,957.493896572,3_D,test,01,2,2.0,10101,ignore,0.0,0.0,4.68366058141
240,3_1_1,1,1.0,963.275456715,3_D,test,01,2,3.0,11010,ignore,1.0,100.0,4.0451009006
241,3_1_1,1,1.0,966.103714335,3_D,test,01,2,4.0,01101,ignore,1.0,200.0,1.07282322831
242,3_1_1,1,1.0,968.697615718,3_D,test,01,2,5.0,11100,ignore,1.0,300.0,0.828453905167
243,3_1_1,1,1.0,971.65085634,3_D,test,01,2,6.0,10011,kill,1.0,400.0,1.21190954226
244,3_1_1,1,1.0,974.604150203,3_D,test,01,2,7.0,00010,kill,0.0,300.0,1.20358957254
245,3_1_1,1,1.0,979.229422179,3_D,test,01,2,8.0,10110,kill,1.0,400.0,2.87536274183
246,3_1_1,1,1.0,982.77644327,3_D,test,01,2,9.0,11001,ignore,0.0,300.0,1.78962064453
247,3_1_1,1,1.0,988.307964925,3_D,test,01,2,10.0,11101,ignore,0.0,200.0,3.76460011803
248,3_1_1,1,1.0,992.355059463,3_D,test,01,2,11.0,00011,kill,0.0,100.0,2.29125346385
249,3_1_1,1,1.0,996.183373531,3_D,test,01,2,12.0,01011,kill,0.0,0.0,2.08671325756
250,3_1_1,1,1.0,1005.94953944,3_D,test,01,2,13.0,01000,ignore,1.0,100.0,8.00163217786
251,3_1_1,1,1.0,1018.02823004,3_D,test,01,2,14.0,00110,kill,0.0,0.0,10.3153570329
252,3_1_1,1,1.0,1021.43471192,3_D,test,01,2,15.0,00111,ignore,1.0,100.0,1.61406610818
253,3_1_1,1,1.0,1024.2317019,3_D,test,01,2,16.0,11011,kill,1.0,200.0,1.05258441525
254,3_1_1,1,1.0,1027.2005834,3_D,test,01,2,17.0,11111,ignore,0.0,100.0,1.19323427157
255,3_1_1,1,1.0,1033.84162198,3_D,test,01,2,18.0,00100,ignore,1.0,200.0,4.84689793196
256,3_1_1,1,1.0,1036.93549642,3_D,test,01,2,19.0,00100,ignore,1.0,300.0,1.3122989044
257,3_1_1,1,1.0,1041.68575621,3_D,test,01,2,20.0,01010,ignore,1.0,400.0,2.97111086878
258,3_1_1,1,1.0,1044.67027826,3_D,test,01,2,21.0,01101,ignore,1.0,500.0,1.22632780828
259,3_1_1,1,1.0,1047.90479037,3_D,test,01,2,22.0,10111,kill,1.0,600.0,1.44643063324
260,3_1_1,1,1.0,1050.90495266,3_D,test,01,2,23.0,00001,ignore,1.0,700.0,1.21925386155
261,3_1_1,1,1.0,1053.67071221,3_D,test,01,2,24.0,11001,kill,1.0,800.0,1.02612446759
262,3_1_1,1,1.0,1056.28018679,3_D,test,01,2,25.0,00110,ignore,1.0,900.0,0.823639156875
263,3_1_1,1,1.0,1058.76472681,3_D,test,01,2,26.0,01111,ignore,1.0,1000.0,0.742822137836
264,3_1_1,1,1.0,1061.34297031,3_D,test,01,2,27.0,00000,ignore,1.0,1100.0,0.817242584799
265,3_1_1,1,1.0,1064.12439864,3_D,test,01,3,0.0,10110,kill,0.0,1000.0,0.990059077847
266,3_1_1,1,1.0,1072.68734092,3_D,test,01,3,1.0,00101,kill,0.0,900.0,6.76643082568
267,3_1_1,1,1.0,1077.48445887,3_D,test,01,3,2.0,10000,kill,0.0,800.0,3.05741872787
268,3_1_1,1,1.0,1082.17216414,3_D,test,01,3,3.0,10001,ignore,1.0,900.0,2.924495497
269,3_1_1,1,1.0,1085.18796088,3_D,test,01,3,4.0,11101,ignore,1.0,1000.0,1.25429517114
270,3_1_1,1,1.0,1088.03184848,3_D,test,01,3,5.0,01011,kill,1.0,1100.0,1.06625506748
271,3_1_1,1,1.0,1090.40696843,3_D,test,01,3,6.0,01001,ignore,0.0,1000.0,0.615257607637
272,3_1_1,1,1.0,1098.18861132,3_D,test,01,3,7.0,11011,ignore,0.0,900.0,6.00510115718
273,3_1_1,1,1.0,1101.9700746,3_D,test,01,3,8.0,00011,ignore,0.0,800.0,2.02411062503
274,3_1_1,1,1.0,1121.87730153,3_D,test,01,3,9.0,10010,ignore,0.0,700.0,18.1582667291
275,3_1_1,1,1.0,1126.9557394,3_D,test,01,3,10.0,10011,kill,1.0,800.0,3.28912961205
276,3_1_1,1,1.0,1132.86228319,3_D,test,01,3,11.0,10100,ignore,1.0,900.0,4.16304683892
277,3_1_1,1,1.0,1138.27081356,3_D,test,01,3,12.0,00010,kill,1.0,1000.0,3.64142729769
278,3_1_1,1,1.0,1142.28669049,3_D,test,01,3,13.0,10101,ignore,1.0,1100.0,2.24433500539
279,3_1_1,1,1.0,1145.61497248,3_D,test,01,3,14.0,11110,kill,0.0,1000.0,1.58599290553
280,3_1_1,1,1.0,1149.13076121,3_D,test,01,3,15.0,11000,ignore,1.0,1100.0,1.75350650434
281,3_1_1,1,1.0,1152.69620741,3_D,test,01,3,16.0,00111,kill,0.0,1000.0,1.81048872325
282,3_1_1,1,1.0,1157.13393961,3_D,test,01,3,17.0,11111,ignore,1.0,1100.0,2.6972055088
283,3_1_1,1,1.0,1160.18116661,3_D,test,01,3,18.0,01000,ignore,0.0,1000.0,1.27512604557
284,3_1_1,1,1.0,1168.90043138,3_D,test,01,3,19.0,11010,kill,1.0,1100.0,6.98495727921
285,3_1_1,1,1.0,1173.38500667,3_D,test,01,3,20.0,11100,ignore,1.0,1200.0,2.73208453071
286,3_1_1,1,1.0,1176.7758294,3_D,test,01,3,21.0,01100,ignore,1.0,1300.0,1.6203501052
287,3_1_1,1,1.0,1184.40135122,3_D,test,01,3,22.0,01110,kill,0.0,1200.0,5.88301431724
288,3_1_1,1,1.0,1187.21386245,3_D,test,01,3,23.0,10100,ignore,1.0,1300.0,1.03483861036
289,3_1_1,1,1.0,1189.83895161,3_D,test,01,3,24.0,00101,ignore,1.0,1400.0,0.856202532457
290,3_1_1,1,1.0,1192.29571221,3_D,test,01,3,25.0,00000,ignore,0.0,1300.0,0.701255003336
291,3_1_1,1,1.0,1200.78052548,3_D,test,01,3,26.0,01000,ignore,0.0,1200.0,6.70470345615
292,3_1_1,1,1.0,1204.60884564,3_D,test,01,3,27.0,00010,ignore,0.0,1100.0,2.09561149741
293,3_1_1,1,1.0,1208.45280187,3_D,test,01,3,28.0,01101,kill,0.0,1000.0,2.07425302766
294,3_1_1,1,1.0,1214.59374551,3_D,test,01,3,29.0,10000,kill,0.0,900.0,4.39052605583
295,3_1_1,1,1.0,1222.62540893,3_D,test,01,3,30.0,11100,kill,0.0,800.0,6.26672557346
296,3_1_1,1,1.0,1229.73517345,3_D,test,01,3,31.0,00011,kill,1.0,900.0,5.33058256787
297,3_1_1,1,1.0,1235.30734272,3_D,test,01,3,32.0,11110,ignore,1.0,1000.0,3.85883249089
298,3_1_1,1,1.0,1239.40127649,3_D,test,01,3,33.0,10010,kill,1.0,1100.0,2.3342407759
299,3_1_1,1,1.0,1242.62017371,3_D,test,01,3,34.0,00110,ignore,1.0,1200.0,1.49603742238
300,3_1_1,1,1.0,1246.80790848,3_D,test,01,3,35.0,00001,kill,1.0,1300.0,2.40285927798
301,3_1_1,1,1.0,1249.88620106,3_D,test,01,3,36.0,11010,kill,1.0,1400.0,1.32925828758
302,3_1_1,1,1.0,1253.01132261,3_D,test,01,3,37.0,10101,ignore,1.0,1500.0,1.38013836147
303,3_1_1,1,1.0,1255.85530706,3_D,test,01,3,38.0,10001,kill,0.0,1400.0,1.07535344075
304,3_1_1,1,1.0,1266.63706862,3_D,test,01,3,39.0,01110,ignore,1.0,1500.0,9.0491330759
305,3_1_1,1,1.0,1270.60604602,3_D,test,01,3,40.0,11101,kill,0.0,1400.0,2.20860060553
306,3_1_1,1,1.0,1274.15338046,3_D,test,01,3,41.0,01111,ignore,1.0,1500.0,1.76557801355
307,3_1_1,1,1.0,1278.20196285,3_D,test,01,3,42.0,11011,ignore,0.0,1400.0,2.31864865038
308,3_1_1,1,1.0,1283.42098001,3_D,test,01,3,43.0,00111,ignore,1.0,1500.0,3.47253393288
309,3_1_1,1,1.0,1286.57740705,3_D,test,01,3,44.0,01100,kill,0.0,1400.0,1.39507235593
310,3_1_1,1,1.0,1290.79638284,3_D,test,01,3,45.0,11111,kill,0.0,1300.0,2.47501154616
311,3_1_1,1,1.0,1318.14150908,3_D,test,01,3,46.0,10011,ignore,0.0,1200.0,25.5818853595
312,3_1_1,1,1.0,1322.40737126,3_D,test,01,3,47.0,01010,ignore,0.0,1100.0,2.53198189819
313,3_1_1,1,1.0,1337.00185893,3_D,test,01,3,48.0,11000,ignore,1.0,1200.0,12.828380138
314,3_1_1,1,1.0,1339.90828405,3_D,test,01,3,49.0,01011,kill,1.0,1300.0,1.1369364833
315,3_1_1,1,1.0,1343.12719217,3_D,test,01,3,50.0,11001,kill,0.0,1200.0,1.47533997023
316,3_1_1,1,1.0,1349.23686592,3_D,test,01,3,51.0,01001,ignore,0.0,1100.0,4.32647405963
317,3_1_1,1,1.0,1352.98704713,3_D,test,01,3,52.0,00100,kill,0.0,1000.0,1.98205726895
318,3_1_1,1,1.0,1365.58145334,3_D,test,01,3,53.0,10111,ignore,1.0,1100.0,10.8203998178
319,3_1_1,1,1.0,1369.30039161,3_D,test,01,3,54.0,10110,ignore,1.0,1200.0,1.93856577462
320,3_1_1,1,1.0,1372.72246626,3_D,test,01,3,55.0,00010,ignore,0.0,1100.0,1.6761751424
321,3_1_1,1,1.0,1376.3945082,3_D,test,01,3,56.0,10010,ignore,0.0,1000.0,1.89531225945
322,3_1_1,1,1.0,1387.45759224,3_D,test,01,3,57.0,11011,kill,1.0,1100.0,9.33955329194
323,3_1_1,1,1.0,1392.41095025,3_D,test,01,3,58.0,01010,ignore,0.0,1000.0,3.2237706548
324,3_1_1,1,1.0,1397.92689132,3_D,test,01,3,59.0,10111,ignore,1.0,1100.0,3.74027075743
325,3_1_1,1,1.0,1409.53685149,3_D,test,01,3,60.0,11110,ignore,1.0,1200.0,9.87723418176
326,3_1_1,1,1.0,1412.55261424,3_D,test,01,3,61.0,11100,ignore,1.0,1300.0,1.2667044055
327,3_1_1,1,1.0,1414.84958883,3_D,test,01,3,62.0,10100,ignore,1.0,1400.0,0.518207330528
328,3_1_1,1,1.0,1417.19350849,3_D,test,01,3,63.0,01110,ignore,1.0,1500.0,0.610472045466
329,3_1_1,1,1.0,1419.78734733,3_D,test,01,3,64.0,01011,kill,1.0,1600.0,0.825114178682
330,3_1_1,1,1.0,1422.27185624,3_D,test,01,3,65.0,01111,ignore,1.0,1700.0,0.752867937599
331,3_1_1,1,1.0,1425.0063831,3_D,test,01,3,66.0,11000,kill,0.0,1600.0,0.986861433264
332,3_1_1,1,1.0,1432.53806095,3_D,test,01,3,67.0,10000,ignore,1.0,1700.0,5.7627492046
333,3_1_1,1,1.0,1435.19440075,3_D,test,01,3,68.0,00001,ignore,0.0,1600.0,0.920278903885
334,3_1_1,1,1.0,1439.67903795,3_D,test,01,3,69.0,00011,kill,1.0,1700.0,2.70694918407
335,3_1_1,1,1.0,1442.52290405,3_D,test,01,3,70.0,10011,ignore,0.0,1600.0,1.1091974778
336,3_1_1,1,1.0,1447.29023933,3_D,test,01,3,71.0,00101,ignore,1.0,1700.0,2.98343222405
337,3_1_1,1,1.0,1450.52478704,3_D,test,01,3,72.0,01001,kill,1.0,1800.0,1.46142652794
338,3_1_1,1,1.0,1453.55622146,3_D,test,01,3,73.0,00111,ignore,1.0,1900.0,1.2741378868
339,3_1_1,1,1.0,1456.36885295,3_D,test,01,3,74.0,00110,ignore,1.0,2000.0,1.02958542875
340,3_1_1,1,1.0,1458.99396777,3_D,test,01,3,75.0,00100,ignore,1.0,2100.0,0.851253078976
341,3_1_1,1,1.0,1462.12192744,3_D,test,01,3,76.0,11101,kill,0.0,2000.0,1.35973341202
342,3_1_1,1,1.0,1482.34166496,3_D,test,01,3,77.0,10101,kill,0.0,1900.0,18.4396989018
343,3_1_1,1,1.0,1486.01373416,3_D,test,01,4,0.0,01000,kill,0.0,1800.0,1.92044504028
344,3_1_1,1,1.0,1497.85810893,3_D,test,01,4,1.0,10110,ignore,0.0,1700.0,10.057396277
345,3_1_1,1,1.0,1500.88951577,3_D,test,01,4,2.0,01101,kill,0.0,1600.0,1.28759974598
346,3_1_1,1,1.0,1509.56181685,3_D,test,01,4,3.0,11001,ignore,1.0,1700.0,6.93155725612
347,3_1_1,1,1.0,1512.12446759,3_D,test,01,4,4.0,01100,kill,0.0,1600.0,0.801078924411
348,3_1_1,1,1.0,1515.78091516,3_D,test,01,4,5.0,11111,ignore,1.0,1700.0,1.92964668754
349,3_1_1,1,1.0,1518.54666156,3_D,test,01,4,6.0,10001,kill,1.0,1800.0,1.02785574999
350,3_1_1,1,1.0,1521.35930524,3_D,test,01,4,7.0,00000,kill,0.0,1700.0,1.02556063016
351,3_1_1,1,1.0,1530.57856167,3_D,test,01,4,8.0,11010,kill,0.0,1600.0,7.47249833222
352,3_1_1,1,1.0,1539.96963424,3_D,test,01,4,9.0,11101,ignore,1.0,1700.0,7.62337359522
353,3_1_1,1,1.0,1545.06363537,3_D,test,01,4,10.0,00101,ignore,0.0,1600.0,3.34525773593
354,3_1_1,1,1.0,1551.37650613,3_D,test,01,4,11.0,10110,ignore,0.0,1500.0,4.53611734746
355,3_1_1,1,1.0,1556.3957895,3_D,test,01,4,12.0,11010,ignore,1.0,1600.0,3.27961269051
356,3_1_1,1,1.0,1559.81785613,3_D,test,01,4,13.0,01111,ignore,1.0,1700.0,1.6835351773
357,3_1_1,1,1.0,1563.17741988,3_D,test,01,4,14.0,01001,kill,0.0,1600.0,1.58263553908
358,3_1_1,1,1.0,1567.4745343,3_D,test,01,4,15.0,00001,ignore,0.0,1500.0,2.55866795813
359,3_1_1,1,1.0,1573.31861529,3_D,test,01,4,16.0,01010,kill,0.0,1400.0,4.07828616514
360,3_1_1,1,1.0,1582.70971353,3_D,test,01,4,17.0,01000,kill,0.0,1300.0,7.62390503926
361,3_1_1,1,1.0,1585.78799841,3_D,test,01,4,18.0,11111,kill,0.0,1200.0,1.36240859291
362,3_1_1,1,1.0,1593.42901037,3_D,test,01,4,19.0,10000,kill,0.0,1100.0,5.86708574947
363,3_1_1,1,1.0,1598.72614339,3_D,test,01,4,20.0,11001,ignore,1.0,1200.0,3.54886430697
364,3_1_1,1,1.0,1602.24194912,3_D,test,01,4,21.0,11011,ignore,1.0,1300.0,1.77237292811
365,3_1_1,1,1.0,1605.05462424,3_D,test,01,4,22.0,00010,kill,0.0,1200.0,1.04337507056
366,3_1_1,1,1.0,1615.91453052,3_D,test,01,4,23.0,11000,ignore,1.0,1300.0,9.12240147278
367,3_1_1,1,1.0,1620.08668183,3_D,test,01,4,24.0,00011,kill,1.0,1400.0,2.43126250834
368,3_1_1,1,1.0,1633.2592055,3_D,test,01,4,25.0,01011,ignore,1.0,1500.0,11.4119608585
369,3_1_1,1,1.0,1636.10307352,3_D,test,01,4,26.0,00000,kill,0.0,1400.0,1.09100297634
370,3_1_1,1,1.0,1641.24399022,3_D,test,01,4,27.0,01101,ignore,1.0,1500.0,3.35785042592
371,3_1_1,1,1.0,1643.91603794,3_D,test,01,4,28.0,01100,ignore,1.0,1600.0,0.941799340586
372,3_1_1,1,1.0,1646.66616558,3_D,test,01,4,29.0,10001,ignore,0.0,1500.0,1.00072227639
373,3_1_1,1,1.0,1651.96330983,3_D,test,01,4,30.0,00111,ignore,0.0,1400.0,3.51937958639
374,3_1_1,1,1.0,1655.02602633,3_D,test,01,4,31.0,10011,ignore,0.0,1300.0,1.32016761174
375,3_1_1,1,1.0,1660.32310098,3_D,test,01,4,32.0,11110,ignore,1.0,1400.0,3.53878194437
376,3_1_1,1,1.0,1663.87014965,3_D,test,01,4,33.0,00110,ignore,0.0,1300.0,1.80373678606
377,3_1_1,1,1.0,1673.88630401,3_D,test,01,4,34.0,00100,kill,1.0,1400.0,8.20864005491
378,3_1_1,1,1.0,1705.04416406,3_D,test,01,4,35.0,10111,ignore,0.0,1300.0,29.3848055755
379,3_1_1,1,1.0,1711.13996831,3_D,test,01,4,36.0,10101,kill,1.0,1400.0,4.36322772874
380,3_1_1,1,1.0,1713.8276197,3_D,test,01,4,37.0,10010,ignore,1.0,1500.0,0.920984823215
381,3_1_1,1,1.0,1716.40584749,3_D,test,01,4,38.0,11100,kill,0.0,1400.0,0.844837904757
382,3_1_1,1,1.0,1723.73440371,3_D,test,01,4,39.0,01110,ignore,1.0,1500.0,5.57067083184
383,3_1_1,1,1.0,1725.79696689,3_D,test,01,4,40.0,10100,ignore,0.0,1400.0,0.254319546364
384,3_1_1,1,1.0,1728.60961442,3_D,test,01,4,41.0,10110,ignore,0.0,1300.0,1.07601349618
385,3_1_1,1,1.0,1730.98474592,3_D,test,01,4,42.0,01000,ignore,1.0,1400.0,0.608482898855
386,3_1_1,1,1.0,1735.55371915,3_D,test,01,4,43.0,00100,ignore,0.0,1300.0,2.82367155026
387,3_1_1,1,1.0,1737.80386636,3_D,test,01,4,44.0,00110,ignore,0.0,1200.0,0.493303869247
388,3_1_1,1,1.0,1739.89766736,3_D,test,01,4,45.0,11010,ignore,1.0,1300.0,0.329490814389
389,3_1_1,1,1.0,1741.97593492,3_D,test,01,4,46.0,01001,ignore,1.0,1400.0,0.341299648484
390,3_1_1,1,1.0,1748.25749089,3_D,test,01,4,47.0,10011,kill,1.0,1500.0,4.53596500231
391,3_1_1,1,1.0,1750.4451163,3_D,test,01,4,48.0,01011,kill,0.0,1400.0,0.422671524606
392,3_1_1,1,1.0,1752.77974258,3_D,test,01,4,49.0,00010,kill,0.0,1300.0,0.606326974394
393,3_1_1,1,1.0,1754.92051239,3_D,test,01,4,50.0,00001,kill,1.0,1400.0,0.357688458973
394,3_1_1,1,1.0,1760.67075743,3_D,test,01,4,51.0,00000,ignore,1.0,1500.0,4.00772662544
395,3_1_1,1,1.0,1762.90527659,3_D,test,01,4,52.0,11100,kill,0.0,1400.0,0.468433442809
396,3_1_1,1,1.0,1767.76491026,3_D,test,01,4,53.0,11000,ignore,1.0,1500.0,3.08912127316
397,3_1_1,1,1.0,1769.75616693,3_D,test,01,4,54.0,11001,kill,0.0,1400.0,0.259805896239
398,3_1_1,1,1.0,1786.97581657,3_D,test,01,4,55.0,01100,kill,0.0,1300.0,15.4416575794
399,3_1_1,1,1.0,1793.24170312,3_D,test,01,4,56.0,11110,ignore,1.0,1400.0,4.54939158157
400,3_1_1,1,1.0,1795.92935611,3_D,test,01,4,57.0,01111,ignore,1.0,1500.0,0.915484361369
401,3_1_1,1,1.0,1804.22667516,3_D,test,01,4,58.0,11111,ignore,1.0,1600.0,6.51777178375
402,3_1_1,1,1.0,1807.36743791,3_D,test,01,4,59.0,11101,kill,0.0,1500.0,1.40442506543
403,3_1_1,1,1.0,1811.10203084,3_D,test,01,4,60.0,01010,ignore,1.0,1600.0,1.94701820444
404,3_1_1,1,1.0,1814.94595307,3_D,test,01,4,61.0,00111,kill,1.0,1700.0,2.09976009647
405,3_1_1,1,1.0,1819.68055659,3_D,test,01,4,62.0,00011,kill,1.0,1800.0,2.98269936368
406,3_1_1,1,1.0,1824.10581221,3_D,test,01,4,63.0,10000,ignore,1.0,1900.0,2.66889593062
407,3_1_1,1,1.0,1828.63728992,3_D,test,01,4,64.0,11011,ignore,1.0,2000.0,2.80159497357
408,3_1_1,1,1.0,1834.01254105,3_D,test,01,4,65.0,01110,kill,0.0,1900.0,3.64946599015
409,3_1_1,1,1.0,1837.85653384,3_D,test,01,4,66.0,10010,kill,0.0,1800.0,2.06832952738
410,3_1_1,1,1.0,1842.35673911,3_D,test,01,4,67.0,10001,kill,1.0,1900.0,2.74365602709
411,3_1_1,1,1.0,1845.53128047,3_D,test,01,4,68.0,10111,ignore,0.0,1800.0,1.39126308565
412,3_1_1,1,1.0,1853.46913423,3_D,test,01,4,69.0,01101,ignore,1.0,1900.0,6.19129932776
413,3_1_1,1,1.0,1857.26622332,3_D,test,01,4,70.0,10100,kill,1.0,2000.0,2.05177393904
414,3_1_1,1,1.0,1859.92261187,3_D,test,01,4,71.0,10101,kill,1.0,2100.0,0.878839418587
415,3_1_1,1,1.0,1862.51651806,3_D,test,01,4,72.0,00101,kill,1.0,2200.0,0.860066005542
416,3_1_1,1,1.0,1865.29786813,3_D,test,01,4,73.0,01101,ignore,1.0,2300.0,1.01718453328
417,3_1_1,1,1.0,1868.2824508,3_D,test,01,4,74.0,10100,kill,1.0,2400.0,1.24100265562
418,3_1_1,1,1.0,1873.42328187,3_D,test,01,4,75.0,01001,kill,0.0,2300.0,3.3736840586
419,3_1_1,1,1.0,1876.61317128,3_D,test,01,4,76.0,10000,kill,0.0,2200.0,1.42798981372
420,3_1_1,1,1.0,1880.6914815,3_D,test,01,4,77.0,01000,kill,0.0,2100.0,2.339384269
421,3_1_1,1,1.0,1884.56668292,3_D,test,01,4,78.0,01011,kill,0.0,2000.0,2.09962956073
422,3_1_1,1,1.0,1888.73878098,3_D,test,01,4,79.0,01111,ignore,1.0,2100.0,2.43077885257
423,3_1_1,1,1.0,1891.67642178,3_D,test,01,4,80.0,11000,kill,0.0,2000.0,1.17973488736
424,3_1_1,1,1.0,1896.69230865,3_D,test,01,4,81.0,10001,ignore,0.0,1900.0,3.23506119464
425,3_1_1,1,1.0,1900.09871581,3_D,test,01,4,82.0,00100,ignore,0.0,1800.0,1.66336339611
426,3_1_1,1,1.0,1906.53657085,3_D,test,01,4,83.0,00011,ignore,0.0,1700.0,4.66792829835
427,3_1_1,1,1.0,1909.80549052,3_D,test,01,5,0.0,10010,kill,1.0,1800.0,1.55046569508
428,3_1_1,1,1.0,1912.91503182,3_D,test,01,5,1.0,00010,kill,0.0,1700.0,1.35247697183
429,3_1_1,1,1.0,1918.29028295,3_D,test,01,5,2.0,00101,ignore,1.0,1800.0,3.59266530251
430,3_1_1,1,1.0,1921.3216808,3_D,test,01,5,3.0,11011,kill,1.0,1900.0,1.3033038051
431,3_1_1,1,1.0,1923.93120414,3_D,test,01,5,4.0,11111,ignore,0.0,1800.0,0.883535498024
432,3_1_1,1,1.0,1936.29120215,3_D,test,01,5,5.0,00111,ignore,1.0,1900.0,10.582704816
433,3_1_1,1,1.0,1939.40073863,3_D,test,01,5,6.0,00110,ignore,1.0,2000.0,1.35196348848
434,3_1_1,1,1.0,1942.72906425,3_D,test,01,5,7.0,11101,kill,1.0,2100.0,1.57677169395
435,3_1_1,1,1.0,1945.72921018,3_D,test,01,5,8.0,11100,kill,0.0,2000.0,1.26662518602
436,3_1_1,1,1.0,1958.4173372,3_D,test,01,5,9.0,10011,ignore,0.0,1900.0,10.917978011
437,3_1_1,1,1.0,1967.63659202,3_D,test,01,5,10.0,00000,kill,0.0,1800.0,7.440489493
438,3_1_1,1,1.0,1972.83999429,3_D,test,01,5,11.0,01010,kill,0.0,1700.0,3.4658964951
439,3_1_1,1,1.0,1977.0589178,3_D,test,01,5,12.0,11001,ignore,0.0,1600.0,2.45220563709
440,3_1_1,1,1.0,1982.01229634,3_D,test,01,5,13.0,10111,ignore,0.0,1500.0,3.21725060297
441,3_1_1,1,1.0,1986.41880356,3_D,test,01,5,14.0,10110,ignore,0.0,1400.0,2.63790539847
442,3_1_1,1,1.0,1993.13787525,3_D,test,01,5,15.0,11010,ignore,1.0,1500.0,4.96204039873
443,3_1_1,1,1.0,1996.1895998,3_D,test,01,5,16.0,01110,ignore,1.0,1600.0,1.32953924411
444,3_1_1,1,1.0,1998.81473931,3_D,test,01,5,17.0,11110,ignore,1.0,1700.0,0.876073151332
445,3_1_1,1,1.0,2001.3148753,3_D,test,01,5,18.0,00001,kill,0.0,1600.0,0.753146328321
446,3_1_1,1,1.0,2004.64318616,3_D,test,01,5,19.0,10101,kill,1.0,1700.0,1.55458318366
447,3_1_1,1,1.0,2010.5340942,3_D,test,01,5,20.0,01100,ignore,1.0,1800.0,4.13052291271
448,3_1_1,1,1.0,2015.04996472,3_D,test,01,5,21.0,11011,kill,1.0,1900.0,2.78827647919
449,3_1_1,1,1.0,2019.12831246,3_D,test,01,5,22.0,01101,kill,0.0,1800.0,2.3472356571
450,3_1_1,1,1.0,2022.73783163,3_D,test,01,5,23.0,01100,ignore,1.0,1900.0,1.83565453892
451,3_1_1,1,1.0,2026.76928914,3_D,test,01,5,24.0,10101,ignore,0.0,1800.0,2.26467131934
452,3_1_1,1,1.0,2030.70701076,3_D,test,01,5,25.0,00110,ignore,1.0,1900.0,2.15552451634
453,3_1_1,1,1.0,2038.28868027,3_D,test,01,5,26.0,10100,ignore,0.0,1800.0,5.86081394006
454,3_1_1,1,1.0,2051.25806082,3_D,test,01,5,27.0,11101,ignore,0.0,1700.0,11.2310155488
455,3_1_1,1,1.0,2055.00824973,3_D,test,01,5,28.0,11010,ignore,1.0,1800.0,1.99687932981
456,3_1_1,1,1.0,2057.58652788,3_D,test,01,5,29.0,11001,ignore,0.0,1700.0,0.837201082773
457,3_1_1,1,1.0,2062.29586615,3_D,test,01,5,30.0,11000,ignore,1.0,1800.0,2.95516947196
458,3_1_1,1,1.0,2064.93658048,3_D,test,01,5,31.0,11100,ignore,1.0,1900.0,0.899822958896
459,3_1_1,1,1.0,2068.17115385,3_D,test,01,5,32.0,01110,kill,0.0,1800.0,1.47103485657
460,3_1_1,1,1.0,2071.20466657,3_D,test,01,5,33.0,01000,ignore,1.0,1900.0,1.27490923436
461,3_1_1,1,1.0,2073.89234426,3_D,test,01,5,34.0,00001,kill,0.0,1800.0,0.935826127676
462,3_1_1,1,1.0,2077.90814966,3_D,test,01,5,35.0,00101,ignore,1.0,1900.0,2.24096962077
463,3_1_1,1,1.0,2080.09578565,3_D,test,01,5,36.0,00111,ignore,1.0,2000.0,0.446998960846
464,3_1_1,1,1.0,2082.22401826,3_D,test,01,5,37.0,01011,ignore,1.0,2100.0,0.364525067995
465,3_1_1,1,1.0,2084.4115731,3_D,test,01,5,38.0,10001,ignore,0.0,2000.0,0.413401241853
466,3_1_1,1,1.0,2087.95870869,3_D,test,01,5,39.0,11111,kill,1.0,2100.0,1.81406514599
467,3_1_1,1,1.0,2090.67758538,3_D,test,01,5,40.0,01001,ignore,1.0,2200.0,0.93930793606
468,3_1_1,1,1.0,2093.22457087,3_D,test,01,5,41.0,10111,kill,1.0,2300.0,0.822356250321
469,3_1_1,1,1.0,2096.33409324,3_D,test,01,5,42.0,00100,ignore,1.0,2400.0,1.34090194745
470,3_1_1,1,1.0,2099.24049623,3_D,test,01,5,43.0,01010,ignore,1.0,2500.0,1.15829046287
471,3_1_1,1,1.0,2102.16255388,3_D,test,01,5,44.0,00011,ignore,1.0,2600.0,1.19260885462
472,3_1_1,1,1.0,2105.11583299,3_D,test,01,5,45.0,10110,kill,1.0,2700.0,1.20066614923
473,3_1_1,1,1.0,2108.33472604,3_D,test,01,5,46.0,01111,ignore,1.0,2800.0,1.4476991071
474,3_1_1,1,1.0,2110.88173622,3_D,test,01,5,47.0,11110,kill,0.0,2700.0,0.797687881666
475,3_1_1,1,1.0,2116.6634192,3_D,test,01,5,48.0,00010,kill,0.0,2600.0,4.00464251809
476,3_1_1,1,1.0,2119.89796948,3_D,test,01,5,49.0,00000,ignore,1.0,2700.0,1.48155404885
477,3_1_1,1,1.0,2122.64809649,3_D,test,01,5,50.0,10011,ignore,0.0,2600.0,0.964173872326
478,3_1_1,1,1.0,2126.7264824,3_D,test,01,5,51.0,10000,ignore,0.0,2500.0,2.2917874737
479,3_1_1,1,1.0,2130.96105801,3_D,test,01,5,52.0,10010,kill,1.0,2600.0,2.49524490686
480,3_1_1,1,1.0,2133.46114397,3_D,test,01,5,53.0,00011,kill,0.0,2500.0,0.712860496742
481,3_1_1,1,1.0,2137.16450326,3_D,test,01,5,54.0,10111,ignore,0.0,2400.0,1.9559610253
482,3_1_1,1,1.0,2140.94591138,3_D,test,01,5,55.0,10010,ignore,0.0,2300.0,2.01156379894
483,3_1_1,1,1.0,2144.93051522,3_D,test,01,5,56.0,01110,kill,0.0,2200.0,2.21771982604
484,3_1_1,1,1.0,2148.79899484,3_D,test,01,5,57.0,10001,kill,1.0,2300.0,2.13655385642
485,3_1_1,1,1.0,2151.40382755,3_D,test,01,5,58.0,11001,kill,1.0,2400.0,0.833763213939
486,3_1_1,1,1.0,2154.12270039,3_D,test,01,5,59.0,01011,ignore,1.0,2500.0,0.99253925694
487,3_1_1,1,1.0,2157.18533991,3_D,test,01,5,60.0,00000,ignore,1.0,2600.0,1.28040969621
488,3_1_1,1,1.0,2159.76361837,3_D,test,01,5,61.0,01010,ignore,1.0,2700.0,0.81091144096
489,3_1_1,1,1.0,2162.26373063,3_D,test,01,5,62.0,11011,kill,1.0,2800.0,0.780210204239
490,3_1_1,1,1.0,2164.73263201,3_D,test,01,5,63.0,11101,kill,1.0,2900.0,0.741563927235
491,3_1_1,1,1.0,2167.10775966,3_D,test,01,5,64.0,00010,ignore,1.0,3000.0,0.590791938215
492,3_1_1,1,1.0,2169.46724387,3_D,test,01,5,65.0,10011,kill,1.0,3100.0,0.598831272129
493,3_1_1,1,1.0,2171.81109875,3_D,test,01,5,66.0,11111,kill,1.0,3200.0,0.5660481988
494,3_1_1,1,1.0,2174.24873281,3_D,test,01,6,0.0,00100,ignore,1.0,3300.0,0.67958895674
495,3_1_1,1,1.0,2176.74884474,3_D,test,01,6,1.0,11000,kill,0.0,3200.0,0.764874980758
496,3_1_1,1,1.0,2186.48373178,3_D,test,01,6,2.0,01111,kill,0.0,3100.0,7.96460781547
