,unique_id,pair_id,sbj_id,wall_time,condition,block,rule_id,rule_num,trial,stimulus,choice,correct,points,reaction_time
0,3_4_1,4,1.0,33.0392656001,3_D,training,04,1_A,1.0,11011,ignore,1.0,100.0,2.6738598168
1,3_4_1,4,1.0,36.9253383666,3_D,training,04,1_A,2.0,11100,kill,1.0,200.0,2.08935508287
2,3_4_1,4,1.0,40.0973690794,3_D,training,04,1_A,3.0,00101,kill,0.0,100.0,1.37910979114
3,3_4_1,4,1.0,44.0194347514,3_D,training,04,1_A,4.0,01110,kill,1.0,200.0,2.14624429107
4,3_4_1,4,1.0,48.5509381254,3_D,training,04,1_A,5.0,00100,kill,0.0,100.0,2.70501873043
5,3_4_1,4,1.0,53.0667996613,3_D,training,04,1_A,6.0,00001,ignore,1.0,200.0,2.71263149792
6,3_4_1,4,1.0,56.7426011572,3_D,training,04,1_A,7.0,00011,ignore,1.0,300.0,1.88907252271
7,3_4_1,4,1.0,61.117830156,3_D,training,04,1_A,8.0,11000,ignore,0.0,200.0,2.58672127572
8,3_4_1,4,1.0,65.6649195618,3_D,training,04,1_A,9.0,11010,ignore,0.0,100.0,2.75278551085
9,3_4_1,4,1.0,70.8839591779,3_D,training,04,1_A,10.0,10111,kill,0.0,0.0,3.40648380972
10,3_4_1,4,1.0,74.7279218197,3_D,training,04,1_A,11.0,10110,kill,1.0,100.0,2.04147733104
11,3_4_1,4,1.0,77.7124371376,3_D,training,04,1_A,12.0,10101,ignore,1.0,200.0,1.18905809001
12,3_4_1,4,1.0,80.5875971802,3_D,training,04,1_A,13.0,10010,kill,1.0,300.0,1.07523990352
13,3_4_1,4,1.0,83.9627495253,3_D,training,04,1_A,14.0,11110,kill,1.0,400.0,1.59085095191
14,3_4_1,4,1.0,86.681627816,3_D,training,04,1_A,15.0,11001,ignore,1.0,500.0,0.924603902604
15,3_4_1,4,1.0,89.8068164032,3_D,training,04,1_A,16.0,10001,ignore,1.0,600.0,1.3337266511
16,3_4_1,4,1.0,92.4944325063,3_D,training,04,1_A,17.0,01101,ignore,1.0,700.0,0.910349207163
17,3_4_1,4,1.0,95.2289776518,3_D,training,04,1_A,18.0,01100,kill,1.0,800.0,0.952950364346
18,3_4_1,4,1.0,98.2135006671,3_D,training,04,1_A,19.0,01000,kill,1.0,900.0,1.20934565351
19,3_4_1,4,1.0,101.13551374,3_D,training,04,1_A,20.0,00000,kill,0.0,800.0,1.11899279007
20,3_4_1,4,1.0,104.166908388,3_D,training,04,1_A,21.0,01011,ignore,1.0,900.0,1.27318083851
21,3_4_1,4,1.0,107.307698081,3_D,training,04,1_A,22.0,00110,kill,1.0,1000.0,1.34850028224
22,3_4_1,4,1.0,110.8547583,3_D,training,04,1_A,23.0,01010,kill,1.0,1100.0,1.7812102299
23,3_4_1,4,1.0,114.292465169,3_D,training,04,1_A,24.0,11101,ignore,1.0,1200.0,1.67616199261
24,3_4_1,4,1.0,116.954605955,3_D,training,04,1_A,25.0,01111,ignore,1.0,1300.0,0.879475740239
25,3_4_1,4,1.0,119.423473662,3_D,training,04,1_A,26.0,11111,ignore,1.0,1400.0,0.683392453942
26,3_4_1,4,1.0,121.861074049,3_D,training,04,1_A,27.0,01001,ignore,1.0,1500.0,0.654469004978
27,3_4_1,4,1.0,124.533104121,3_D,training,04,1_A,28.0,10000,kill,0.0,1400.0,0.907010442861
28,3_4_1,4,1.0,128.408281483,3_D,training,04,1_A,29.0,10011,ignore,1.0,1500.0,2.09348700416
29,3_4_1,4,1.0,131.861615115,3_D,training,04,1_A,30.0,00111,ignore,1.0,1600.0,1.65499884538
30,3_4_1,4,1.0,135.783687522,3_D,training,04,1_A,31.0,00010,kill,1.0,1700.0,2.14690915739
31,3_4_1,4,1.0,139.768246138,3_D,training,04,1_A,32.0,10100,kill,0.0,1600.0,2.19434141992
32,3_4_1,4,1.0,144.455992136,3_D,training,04,1_A,33.0,10111,ignore,1.0,1700.0,2.8961038128
33,3_4_1,4,1.0,147.487409234,3_D,training,04,1_A,34.0,00010,kill,1.0,1800.0,1.2491295479
34,3_4_1,4,1.0,150.409428401,3_D,training,04,1_A,35.0,10011,ignore,1.0,1900.0,1.14122363627
35,3_4_1,4,1.0,153.831489262,3_D,training,04,1_A,36.0,11110,kill,1.0,2000.0,1.65484617951
36,3_4_1,4,1.0,156.769114987,3_D,training,04,1_A,37.0,11101,ignore,1.0,2100.0,1.13781848155
37,3_4_1,4,1.0,159.488022143,3_D,training,04,1_A,38.0,11100,ignore,0.0,2000.0,0.938884256171
38,3_4_1,4,1.0,162.55067962,3_D,training,04,1_A,39.0,01110,ignore,0.0,1900.0,1.30070880587
39,3_4_1,4,1.0,164.988308231,3_D,training,04,1_A,40.0,00001,ignore,1.0,2000.0,0.646659311336
40,3_4_1,4,1.0,167.644730461,3_D,training,04,1_A,41.0,01010,kill,1.0,2100.0,0.89206297788
41,3_4_1,4,1.0,170.316677464,3_D,training,04,1_A,42.0,00011,ignore,1.0,2200.0,0.895159272848
42,3_4_1,4,1.0,173.707479987,3_D,training,04,1_A,43.0,10010,kill,1.0,2300.0,1.61826506132
43,3_4_1,4,1.0,176.44201519,3_D,training,04,1_A,44.0,01111,ignore,1.0,2400.0,0.976195668907
44,3_4_1,4,1.0,179.098425232,3_D,training,04,1_A,45.0,10110,kill,1.0,2500.0,0.880522591986
45,3_4_1,4,1.0,182.332915533,3_D,training,04,1_A,46.0,00101,ignore,1.0,2600.0,1.45186759121
46,3_4_1,4,1.0,186.411328065,3_D,training,04,1_A,47.0,11001,ignore,1.0,2700.0,2.29600695335
47,3_4_1,4,1.0,188.880170113,3_D,training,04,1_A,48.0,11010,kill,1.0,2800.0,0.689571252631
48,3_4_1,4,1.0,191.270915867,3_D,training,04,1_A,49.0,11011,ignore,1.0,2900.0,0.63753527993
49,3_4_1,4,1.0,193.724149433,3_D,training,04,1_A,50.0,11111,ignore,1.0,3000.0,0.683648393802
50,3_4_1,4,1.0,195.989877226,3_D,training,04,1_A,51.0,10001,ignore,1.0,3100.0,0.462940357673
51,3_4_1,4,1.0,198.396276043,3_D,training,04,1_A,52.0,00100,kill,0.0,3000.0,0.626162634064
52,3_4_1,4,1.0,201.037009609,3_D,training,04,1_A,53.0,11000,kill,1.0,3100.0,0.873099373941
53,3_4_1,4,1.0,203.318372825,3_D,training,04,1_A,54.0,10000,kill,0.0,3000.0,0.508672769025
54,3_4_1,4,1.0,206.490432404,3_D,training,04,1_A,55.0,01100,kill,1.0,3100.0,1.38368303228
55,3_4_1,4,1.0,210.240648894,3_D,training,04,1_A,56.0,10100,kill,0.0,3000.0,1.94970332786
56,3_4_1,4,1.0,213.162638233,3_D,training,04,1_A,57.0,01011,ignore,1.0,3100.0,1.15795658644
57,3_4_1,4,1.0,217.084721224,3_D,training,04,1_A,58.0,00000,kill,0.0,3000.0,2.12542111408
58,3_4_1,4,1.0,221.538094627,3_D,training,04,1_A,59.0,00111,ignore,1.0,3100.0,2.67798500282
59,3_4_1,4,1.0,227.178969634,3_D,training,04,1_A,60.0,00110,kill,1.0,3200.0,3.84776036588
60,3_4_1,4,1.0,231.226074755,3_D,training,04,1_A,61.0,01000,kill,1.0,3300.0,2.26652223277
61,3_4_1,4,1.0,235.663784831,3_D,training,04,1_A,62.0,01001,ignore,1.0,3400.0,2.66988986247
62,3_4_1,4,1.0,238.538942949,3_D,training,04,1_A,63.0,10101,ignore,1.0,3500.0,1.09621285985
63,3_4_1,4,1.0,240.914054883,3_D,training,04,1_A,64.0,01101,ignore,1.0,3600.0,0.602967362858
64,3_4_1,4,1.0,243.523567635,3_D,training,04,1_A,65.0,01101,ignore,1.0,3700.0,0.817772425205
65,3_4_1,4,1.0,245.8361847,3_D,training,04,1_A,66.0,11101,ignore,1.0,3800.0,0.53576551034
66,3_4_1,4,1.0,248.101917945,3_D,training,04,1_A,67.0,10001,ignore,1.0,3900.0,0.481052111663
67,3_4_1,4,1.0,252.008371927,3_D,training,04,1_A,68.0,10010,kill,1.0,4000.0,2.14102286139
68,3_4_1,4,1.0,254.867930864,3_D,training,04,1_A,69.0,01011,ignore,1.0,4100.0,1.06926572843
69,3_4_1,4,1.0,259.930700916,3_D,training,04,1_A,70.0,00100,ignore,1.0,4200.0,3.2799039103
70,3_4_1,4,1.0,263.555872825,3_D,training,04,1_A,71.0,01010,kill,1.0,4300.0,1.8505429902
71,3_4_1,4,1.0,266.227871786,3_D,training,04,1_A,72.0,00010,kill,1.0,4400.0,0.88641145379
72,3_4_1,4,1.0,268.962378124,3_D,training,04,1_A,73.0,00011,ignore,1.0,4500.0,0.944523271923
73,3_4_1,4,1.0,271.978186419,3_D,training,04,1_A,74.0,11000,kill,1.0,4600.0,1.24174385488
74,3_4_1,4,1.0,274.993959755,3_D,training,04,1_A,75.0,10111,ignore,1.0,4700.0,1.24642967106
75,3_4_1,4,1.0,277.947221866,3_D,training,04,1_A,76.0,11110,kill,1.0,4800.0,1.18805838508
76,3_4_1,4,1.0,280.369223713,3_D,training,04,1_A,77.0,00110,kill,1.0,4900.0,0.643015535999
77,3_4_1,4,1.0,282.697491597,3_D,training,04,1_A,78.0,01110,kill,1.0,5000.0,0.552458690407
78,3_4_1,4,1.0,285.541342305,3_D,training,04,1_A,79.0,00001,ignore,1.0,5100.0,1.05687188895
79,3_4_1,4,1.0,288.263484631,3_D,training,04,1_A,80.0,10011,ignore,1.0,5200.0,0.957242328219
80,3_4_1,4,1.0,290.794868695,3_D,training,04,1_A,81.0,01001,ignore,1.0,5300.0,0.733808436395
81,3_4_1,4,1.0,293.123110279,3_D,training,04,1_A,82.0,00111,ignore,1.0,5400.0,0.559012097809
82,3_4_1,4,1.0,295.842004926,3_D,training,04,1_A,83.0,11001,ignore,1.0,5500.0,0.952421806844
83,3_4_1,4,1.0,298.857760622,3_D,training,04,1_A,84.0,10110,kill,1.0,5600.0,1.22476843537
84,3_4_1,4,1.0,301.389133461,3_D,training,04,1_A,85.0,11010,kill,1.0,5700.0,0.766901331655
85,3_4_1,4,1.0,304.311170267,3_D,training,04,1_A,86.0,00000,kill,0.0,5600.0,1.14293759942
86,3_4_1,4,1.0,308.373906964,3_D,training,04,1_A,87.0,01000,kill,1.0,5700.0,2.29573978806
87,3_4_1,4,1.0,311.545915867,3_D,training,04,1_A,88.0,11011,ignore,1.0,5800.0,1.4021972982
88,3_4_1,4,1.0,313.82730859,3_D,training,04,1_A,89.0,00101,ignore,1.0,5900.0,0.504500756913
89,3_4_1,4,1.0,318.030647355,3_D,training,04,1_A,90.0,10000,kill,0.0,5800.0,2.43589668754
90,3_4_1,4,1.0,320.733907862,3_D,training,04,1_A,91.0,10101,ignore,1.0,5900.0,0.919661184376
91,3_4_1,4,1.0,323.221545133,3_D,training,04,1_A,92.0,01111,ignore,1.0,6000.0,0.713534022681
92,3_4_1,4,1.0,325.659167971,3_D,training,04,1_A,93.0,11111,ignore,1.0,6100.0,0.676628970596
93,3_4_1,4,1.0,329.06558988,3_D,training,04,1_A,94.0,01100,ignore,0.0,6000.0,1.61672974291
94,3_4_1,4,1.0,334.347059578,3_D,training,04,1_A,95.0,10100,ignore,1.0,6100.0,3.50191634167
95,3_4_1,4,1.0,338.45665155,3_D,training,04,1_A,96.0,11100,ignore,0.0,6000.0,2.32611933596
96,3_4_1,4,1.0,341.519301329,3_D,training,04,1_A,97.0,00000,kill,0.0,5900.0,1.27791380151
97,3_4_1,4,1.0,344.31634904,3_D,training,04,1_A,98.0,10110,kill,1.0,6000.0,1.03418561092
98,3_4_1,4,1.0,347.363366924,3_D,training,04,1_A,99.0,11011,ignore,1.0,6100.0,1.27186265203
99,3_4_1,4,1.0,349.613578283,3_D,training,04,1_A,100.0,11111,ignore,1.0,6200.0,0.49224611279
100,3_4_1,4,1.0,351.848052227,3_D,training,04,1_A,101.0,10111,ignore,1.0,6300.0,0.44751276492
101,3_4_1,4,1.0,354.39507428,3_D,training,04,1_A,102.0,11101,ignore,1.0,6400.0,0.764203379174
102,3_4_1,4,1.0,357.567210512,3_D,training,04,1_A,103.0,10000,kill,0.0,6300.0,1.41279987941
103,3_4_1,4,1.0,360.145471981,3_D,training,04,1_A,104.0,00010,kill,1.0,6400.0,0.802690575769
104,3_4_1,4,1.0,362.676831349,3_D,training,04,1_A,105.0,11010,kill,1.0,6500.0,0.770804574844
105,3_4_1,4,1.0,365.755130664,3_D,training,04,1_A,106.0,01101,ignore,1.0,6600.0,1.29866385282
106,3_4_1,4,1.0,368.208344024,3_D,training,04,1_A,107.0,01001,ignore,1.0,6700.0,0.668893685535
107,3_4_1,4,1.0,370.474110946,3_D,training,04,1_A,108.0,00011,ignore,1.0,6800.0,0.480577756967
108,3_4_1,4,1.0,372.724229935,3_D,training,04,1_A,109.0,10011,ignore,1.0,6900.0,0.484859778317
109,3_4_1,4,1.0,374.943087699,3_D,training,04,1_A,110.0,10101,ignore,1.0,7000.0,0.43231834043
110,3_4_1,4,1.0,377.958865205,3_D,training,04,1_A,111.0,11110,kill,1.0,7100.0,1.26238453841
111,3_4_1,4,1.0,380.771467838,3_D,training,04,1_A,112.0,10010,kill,1.0,7200.0,1.02669824755
112,3_4_1,4,1.0,383.787293773,3_D,training,04,1_A,113.0,11100,ignore,0.0,7100.0,1.25689594345
113,3_4_1,4,1.0,386.365541771,3_D,training,04,1_A,114.0,01110,kill,1.0,7200.0,0.796908195207
114,3_4_1,4,1.0,388.975060938,3_D,training,04,1_A,115.0,01011,ignore,1.0,7300.0,0.844124608713
115,3_4_1,4,1.0,392.443977716,3_D,training,04,1_A,116.0,10100,kill,0.0,7200.0,1.68924924309
116,3_4_1,4,1.0,395.100372364,3_D,training,04,1_A,117.0,00110,kill,1.0,7300.0,0.8510523041
117,3_4_1,4,1.0,398.788050688,3_D,training,04,1_A,118.0,00101,ignore,1.0,7400.0,1.89508775081
118,3_4_1,4,1.0,401.288190845,3_D,training,04,1_A,119.0,00001,ignore,1.0,7500.0,0.696543529019
119,3_4_1,4,1.0,403.460186599,3_D,training,04,1_A,120.0,01111,ignore,1.0,7600.0,0.37824350849
120,3_4_1,4,1.0,405.694672731,3_D,training,04,1_A,121.0,10001,ignore,1.0,7700.0,0.450862433929
121,3_4_1,4,1.0,407.819762855,3_D,training,04,1_A,122.0,11001,ignore,1.0,7800.0,0.359505696106
122,3_4_1,4,1.0,411.304342318,3_D,training,04,1_A,123.0,11000,ignore,0.0,7700.0,1.72910850824
123,3_4_1,4,1.0,416.382769282,3_D,training,04,1_A,124.0,01000,ignore,0.0,7600.0,3.29876808898
124,3_4_1,4,1.0,420.039175476,3_D,training,04,1_A,125.0,00100,kill,0.0,7500.0,1.85052246369
125,3_4_1,4,1.0,422.851856045,3_D,training,04,1_A,126.0,00111,ignore,1.0,7600.0,1.03018262175
126,3_4_1,4,1.0,427.315482116,3_D,training,04,1_A,127.0,01100,kill,1.0,7700.0,2.70796717042
127,3_4_1,4,1.0,430.440639593,3_D,training,04,1_A,128.0,01010,kill,1.0,7800.0,1.34955515215
128,3_4_1,4,1.0,432.847049956,3_D,training,04,1_A,129.0,11010,kill,1.0,7900.0,0.638562567354
129,3_4_1,4,1.0,437.347270616,3_D,training,04,1_A,130.0,11000,ignore,0.0,7800.0,2.71553375327
130,3_4_1,4,1.0,440.284911415,3_D,training,04,1_A,131.0,10101,ignore,1.0,7900.0,1.15595108277
131,3_4_1,4,1.0,442.925663583,3_D,training,04,1_A,132.0,10011,ignore,1.0,8000.0,0.852322702314
132,3_4_1,4,1.0,445.144564004,3_D,training,04,1_A,133.0,01111,ignore,1.0,8100.0,0.432729191256
133,3_4_1,4,1.0,447.472776723,3_D,training,04,1_A,134.0,00101,ignore,1.0,8200.0,0.558083594191
134,3_4_1,4,1.0,449.894763496,3_D,training,04,1_A,135.0,10111,ignore,1.0,8300.0,0.630811566683
135,3_4_1,4,1.0,453.301198235,3_D,training,04,1_A,136.0,01110,kill,1.0,8400.0,1.64485586545
136,3_4_1,4,1.0,455.879459062,3_D,training,04,1_A,137.0,10110,kill,1.0,8500.0,0.809504733927
137,3_4_1,4,1.0,459.458033882,3_D,training,04,1_A,138.0,11011,ignore,1.0,8600.0,1.81658830246
138,3_4_1,4,1.0,464.208250372,3_D,training,04,1_A,139.0,11100,kill,1.0,8700.0,2.98299539437
139,3_4_1,4,1.0,467.536570855,3_D,training,04,1_A,140.0,10000,kill,0.0,8600.0,1.54851375276
140,3_4_1,4,1.0,470.536682147,3_D,training,04,1_A,141.0,01011,ignore,1.0,8700.0,1.24487863704
141,3_4_1,4,1.0,473.849362716,3_D,training,04,1_A,142.0,10100,kill,0.0,8600.0,1.51369214092
142,3_4_1,4,1.0,477.677706612,3_D,training,04,1_A,143.0,01100,kill,1.0,8700.0,2.05088488479
143,3_4_1,4,1.0,481.599745343,3_D,training,04,1_A,144.0,00000,kill,0.0,8600.0,2.1590143429
144,3_4_1,4,1.0,484.631178799,3_D,training,04,1_A,145.0,01010,kill,1.0,8700.0,1.27120644532
145,3_4_1,4,1.0,487.568848463,3_D,training,04,1_A,146.0,11111,ignore,1.0,8800.0,1.1792044055
146,3_4_1,4,1.0,489.790105262,3_D,training,04,1_A,147.0,01101,ignore,1.0,8900.0,0.434989672602
147,3_4_1,4,1.0,491.868318623,3_D,training,04,1_A,148.0,00011,ignore,1.0,9000.0,0.304495304561
148,3_4_1,4,1.0,493.930940499,3_D,training,04,1_A,149.0,11101,ignore,1.0,9100.0,0.292053676811
149,3_4_1,4,1.0,496.102934328,3_D,training,04,1_A,150.0,01001,ignore,1.0,9200.0,0.391571624674
150,3_4_1,4,1.0,498.181856815,3_D,training,04,1_A,151.0,00001,ignore,1.0,9300.0,0.294736555141
151,3_4_1,4,1.0,500.260064081,3_D,training,04,1_A,152.0,10001,ignore,1.0,9400.0,0.298115410274
152,3_4_1,4,1.0,503.916505234,3_D,training,04,1_A,153.0,10010,kill,1.0,9500.0,1.88585082363
153,3_4_1,4,1.0,506.55733598,3_D,training,04,1_A,154.0,11001,ignore,1.0,9600.0,0.864850284805
154,3_4_1,4,1.0,509.651272002,3_D,training,04,1_A,155.0,00010,kill,1.0,9700.0,1.31632209935
155,3_4_1,4,1.0,514.69836686,3_D,training,04,1_A,156.0,00100,ignore,1.0,9800.0,3.2451538205
156,3_4_1,4,1.0,517.979779468,3_D,training,04,1_A,157.0,00110,kill,1.0,9900.0,1.51304523529
157,3_4_1,4,1.0,520.979919626,3_D,training,04,1_A,158.0,00111,ignore,1.0,10000.0,1.21814126084
158,3_4_1,4,1.0,523.995707395,3_D,training,04,1_A,159.0,11110,kill,1.0,10100.0,1.26520597065
159,3_4_1,4,1.0,527.824041027,3_D,training,04,1_A,160.0,01000,ignore,0.0,10000.0,2.06116032483
160,3_4_1,4,1.0,530.933548327,3_D,training,04,1_A,161.0,10010,kill,1.0,10100.0,1.33665071586
161,3_4_1,4,1.0,534.761886771,3_D,training,04,1_A,162.0,01100,ignore,0.0,10000.0,2.05834594858
162,3_4_1,4,1.0,537.558900485,3_D,training,04,1_A,163.0,11101,ignore,1.0,10100.0,1.01374890953
163,3_4_1,4,1.0,540.418455573,3_D,training,04,1_A,164.0,10100,kill,0.0,10000.0,1.09207388259
164,3_4_1,4,1.0,543.19983226,3_D,training,04,1_A,165.0,00101,ignore,1.0,10100.0,0.999049045517
165,3_4_1,4,1.0,545.731193552,3_D,training,04,1_A,166.0,10110,kill,1.0,10200.0,0.749197221223
166,3_4_1,4,1.0,549.059512431,3_D,training,04,1_A,167.0,10000,kill,0.0,10100.0,1.55857141941
167,3_4_1,4,1.0,551.7817622,3_D,training,04,1_A,168.0,01111,ignore,1.0,10200.0,0.967152781344
168,3_4_1,4,1.0,554.063159414,3_D,training,04,1_A,169.0,10111,ignore,1.0,10300.0,0.511639811157
169,3_4_1,4,1.0,556.250773272,3_D,training,04,1_A,170.0,11111,ignore,1.0,10400.0,0.427096269308
170,3_4_1,4,1.0,558.78215028,3_D,training,04,1_A,171.0,00000,kill,0.0,10300.0,0.736486183094
171,3_4_1,4,1.0,561.797938048,3_D,training,04,1_A,172.0,00010,kill,1.0,10400.0,1.23376674193
172,3_4_1,4,1.0,563.93865654,3_D,training,04,1_A,173.0,11100,kill,1.0,10500.0,0.358639413455
173,3_4_1,4,1.0,566.160644596,3_D,training,04,1_A,174.0,00110,kill,1.0,10600.0,0.455545684301
174,3_4_1,4,1.0,568.238862126,3_D,training,04,1_A,175.0,11010,kill,1.0,10700.0,0.325584684662
175,3_4_1,4,1.0,571.145273131,3_D,training,04,1_A,176.0,11001,ignore,1.0,10800.0,1.12801835839
176,3_4_1,4,1.0,573.536050957,3_D,training,04,1_A,177.0,01001,ignore,1.0,10900.0,0.634329296456
177,3_4_1,4,1.0,575.661129856,3_D,training,04,1_A,178.0,10101,ignore,1.0,11000.0,0.32701127675
178,3_4_1,4,1.0,578.317491148,3_D,training,04,1_A,179.0,11000,kill,1.0,11100.0,0.86509211269
179,3_4_1,4,1.0,580.926992675,3_D,training,04,1_A,180.0,01011,ignore,1.0,11200.0,0.861533650641
180,3_4_1,4,1.0,583.005216298,3_D,training,04,1_A,181.0,00111,ignore,1.0,11300.0,0.282127187354
181,3_4_1,4,1.0,585.270993483,3_D,training,04,1_A,182.0,10011,ignore,1.0,11400.0,0.510282816751
182,3_4_1,4,1.0,587.849251103,3_D,training,04,1_A,183.0,11110,kill,1.0,11500.0,0.834961448658
183,3_4_1,4,1.0,589.958711898,3_D,training,04,1_A,184.0,00100,kill,0.0,11400.0,0.328146007596
184,3_4_1,4,1.0,592.552599489,3_D,training,04,1_A,185.0,00001,ignore,1.0,11500.0,0.817998858216
185,3_4_1,4,1.0,595.646540001,3_D,training,04,1_A,186.0,01010,kill,1.0,11600.0,1.34495336634
186,3_4_1,4,1.0,598.224793773,3_D,training,04,1_A,187.0,01101,ignore,1.0,11700.0,0.809616346796
187,3_4_1,4,1.0,600.334265151,3_D,training,04,1_A,188.0,10001,ignore,1.0,11800.0,0.328107199672
188,3_4_1,4,1.0,602.428116821,3_D,training,04,1_A,189.0,11011,ignore,1.0,11900.0,0.339226471493
189,3_4_1,4,1.0,605.490763073,3_D,training,04,1_A,190.0,01110,kill,1.0,12000.0,1.30229993072
190,3_4_1,4,1.0,608.381515562,3_D,training,04,1_A,191.0,00011,ignore,1.0,12100.0,1.12011886129
191,3_4_1,4,1.0,612.584871324,3_D,training,04,1_A,192.0,01000,kill,1.0,12200.0,2.4424472084
192,3_4_1,4,1.0,614.944402037,3_D,training,04,1_A,193.0,01010,kill,1.0,12300.0,0.60767242264
193,3_4_1,4,1.0,618.116417997,3_D,training,04,1_A,194.0,00101,ignore,1.0,12400.0,1.36584678247
194,3_4_1,4,1.0,620.382172731,3_D,training,04,1_A,195.0,10011,ignore,1.0,12500.0,0.493072946068
195,3_4_1,4,1.0,624.257352017,3_D,training,04,1_A,196.0,11000,ignore,0.0,12400.0,2.08058481295
196,3_4_1,4,1.0,626.976229345,3_D,training,04,1_A,197.0,11010,kill,1.0,12500.0,0.930535421048
197,3_4_1,4,1.0,629.304498512,3_D,training,04,1_A,198.0,01110,kill,1.0,12600.0,0.572572420075
198,3_4_1,4,1.0,632.039014471,3_D,training,04,1_A,199.0,10101,ignore,1.0,12700.0,0.956485092625
199,3_4_1,4,1.0,635.0704274,3_D,training,04,1_A,200.0,00110,kill,1.0,12800.0,1.27753534408
200,3_4_1,4,1.0,637.492390119,3_D,training,04,1_A,201.0,01001,ignore,1.0,12900.0,0.657790450045
201,3_4_1,4,1.0,640.117706035,3_D,training,04,1_A,202.0,01000,kill,1.0,13000.0,0.846976830708
202,3_4_1,4,1.0,642.805355493,3_D,training,04,1_A,203.0,01111,ignore,1.0,13100.0,0.916142171704
203,3_4_1,4,1.0,645.555493727,3_D,training,04,1_A,204.0,00000,kill,0.0,13000.0,0.966078347101
204,3_4_1,4,1.0,647.680646072,3_D,training,04,1_A,205.0,11110,kill,1.0,13100.0,0.382949851184
205,3_4_1,4,1.0,650.35262611,3_D,training,04,1_A,206.0,11001,ignore,1.0,13200.0,0.920013983683
206,3_4_1,4,1.0,652.6340044,3_D,training,04,1_A,207.0,10001,ignore,1.0,13300.0,0.506070393083
207,3_4_1,4,1.0,655.02474406,3_D,training,04,1_A,208.0,11111,ignore,1.0,13400.0,0.637715528301
208,3_4_1,4,1.0,657.337374596,3_D,training,04,1_A,209.0,11101,ignore,1.0,13500.0,0.555694501461
209,3_4_1,4,1.0,660.103126123,3_D,training,04,1_A,210.0,10000,kill,0.0,13400.0,0.981157310001
210,3_4_1,4,1.0,662.478270129,3_D,training,04,1_A,211.0,01101,ignore,1.0,13500.0,0.596203238056
211,3_4_1,4,1.0,665.056519731,3_D,training,04,1_A,212.0,01100,kill,1.0,13600.0,0.795008852056
212,3_4_1,4,1.0,667.431627816,3_D,training,04,1_A,213.0,10100,kill,0.0,13500.0,0.626769769591
213,3_4_1,4,1.0,669.963028878,3_D,training,04,1_A,214.0,11011,ignore,1.0,13600.0,0.753346141017
214,3_4_1,4,1.0,672.713149792,3_D,training,04,1_A,215.0,00111,ignore,1.0,13700.0,0.953341650846
215,3_4_1,4,1.0,675.04137534,3_D,training,04,1_A,216.0,01011,ignore,1.0,13800.0,0.570481603121
216,3_4_1,4,1.0,677.88545184,3_D,training,04,1_A,217.0,11100,kill,1.0,13900.0,1.05050129574
217,3_4_1,4,1.0,680.278602081,3_D,training,04,1_A,218.0,10110,kill,1.0,14000.0,0.63942147329
218,3_4_1,4,1.0,682.388090458,3_D,training,04,1_A,219.0,10010,kill,1.0,14100.0,0.324877482424
219,3_4_1,4,1.0,684.560117963,3_D,training,04,1_A,220.0,00100,kill,0.0,14000.0,0.382410388978
220,3_4_1,4,1.0,686.74772252,3_D,training,04,1_A,221.0,00010,kill,1.0,14100.0,0.414543990864
221,3_4_1,4,1.0,689.279146354,3_D,training,04,1_A,222.0,00001,ignore,1.0,14200.0,0.740723944171
222,3_4_1,4,1.0,691.388615487,3_D,training,04,1_A,223.0,10111,ignore,1.0,14300.0,0.342058808437
223,3_4_1,4,1.0,693.638710422,3_D,training,04,1_A,224.0,00011,ignore,1.0,14400.0,0.480172358493
224,3_4_1,4,1.0,696.998248512,3_D,training,04,1_A,225.0,00110,kill,1.0,14500.0,1.56368348129
225,3_4_1,4,1.0,699.329904552,3_D,training,04,1_A,226.0,00011,ignore,1.0,14600.0,0.579751565143
226,3_4_1,4,1.0,701.486238903,3_D,training,04,1_A,227.0,10001,ignore,1.0,14700.0,0.380280443373
227,3_4_1,4,1.0,704.033281803,3_D,training,04,1_A,228.0,11110,kill,1.0,14800.0,0.780418355829
228,3_4_1,4,1.0,706.28964951,3_D,training,04,1_A,229.0,01001,ignore,1.0,14900.0,0.508422602248
229,3_4_1,4,1.0,708.602280046,3_D,training,04,1_A,230.0,11111,ignore,1.0,15000.0,0.552899689537
230,3_4_1,4,1.0,711.243024837,3_D,training,04,1_A,231.0,01000,kill,1.0,15100.0,0.883013675786
231,3_4_1,4,1.0,713.868179748,3_D,training,04,1_A,232.0,00001,ignore,1.0,15200.0,0.829069700314
232,3_4_1,4,1.0,716.477680954,3_D,training,04,1_A,233.0,11000,kill,1.0,15300.0,0.834912377482
233,3_4_1,4,1.0,719.352808282,3_D,training,04,1_A,234.0,11001,ignore,1.0,15400.0,1.09673083337
234,3_4_1,4,1.0,722.259170857,3_D,training,04,1_A,235.0,01010,kill,1.0,15500.0,1.14751917945
235,3_4_1,4,1.0,724.993689703,3_D,training,04,1_A,236.0,10011,ignore,1.0,15600.0,0.981225304051
236,3_4_1,4,1.0,729.322062785,3_D,training,04,1_A,237.0,10010,kill,1.0,15700.0,2.55692673321
237,3_4_1,4,1.0,731.369057256,3_D,training,04,1_A,238.0,01110,kill,1.0,15800.0,0.292678452301
238,3_4_1,4,1.0,733.822336686,3_D,training,04,1_A,239.0,00111,ignore,1.0,15900.0,0.680894955611
239,3_4_1,4,1.0,736.322461449,3_D,training,04,1_A,240.0,10100,kill,0.0,15800.0,0.716145058243
240,3_4_1,4,1.0,739.338190845,3_D,training,04,1_A,241.0,10101,ignore,1.0,15900.0,1.24672794684
241,3_4_1,4,1.0,743.275907977,3_D,training,04,1_A,242.0,10000,kill,0.0,15800.0,2.1803048186
242,3_4_1,4,1.0,745.682310322,3_D,training,04,1_A,243.0,00010,kill,1.0,15900.0,0.635122774158
243,3_4_1,4,1.0,748.838680915,3_D,training,04,1_A,244.0,01100,kill,1.0,16000.0,1.40167804177
244,3_4_1,4,1.0,751.123214515,3_D,training,04,1_A,245.0,01111,kill,0.0,15900.0,0.553291617489
245,3_4_1,4,1.0,754.045248114,3_D,training,04,1_A,246.0,11011,ignore,1.0,16000.0,1.15512553241
246,3_4_1,4,1.0,756.685983925,3_D,training,04,1_A,247.0,00100,kill,0.0,15900.0,0.867547916561
247,3_4_1,4,1.0,759.592370555,3_D,training,04,1_A,248.0,10110,kill,1.0,16000.0,1.12729223328
248,3_4_1,4,1.0,762.514436868,3_D,training,04,1_A,249.0,11100,kill,1.0,16100.0,1.16265138297
249,3_4_1,4,1.0,765.530185829,3_D,training,04,1_A,250.0,11101,ignore,1.0,16200.0,1.27519756761
250,3_4_1,4,1.0,768.467853569,3_D,training,04,1_A,251.0,11010,ignore,0.0,16100.0,1.1843876687
251,3_4_1,4,1.0,771.483634923,3_D,training,04,1_A,252.0,00000,ignore,1.0,16200.0,1.25585005388
252,3_4_1,4,1.0,776.124505119,3_D,training,04,1_A,253.0,10111,ignore,1.0,16300.0,2.85153114897
253,3_4_1,4,1.0,779.140266588,3_D,training,04,1_A,254.0,01011,ignore,1.0,16400.0,1.2718780469
254,3_4_1,4,1.0,782.359167971,3_D,training,04,1_A,255.0,01101,ignore,1.0,16500.0,1.44335646842
255,3_4_1,4,1.0,785.359363293,3_D,training,04,1_A,256.0,00101,ignore,1.0,16600.0,1.21609181762
256,3_4_1,4,1.0,787.562578899,3_D,training,04,1_A,257.0,00011,ignore,1.0,16700.0,0.447078501053
257,3_4_1,4,1.0,791.078393609,3_D,training,04,1_A,258.0,10010,kill,1.0,16800.0,1.74038076667
258,3_4_1,4,1.0,793.328512277,3_D,training,04,1_A,259.0,11010,kill,1.0,16900.0,0.50210268384
259,3_4_1,4,1.0,796.033659619,3_D,training,04,1_A,260.0,00101,ignore,1.0,17000.0,0.896066608508
260,3_4_1,4,1.0,799.28381004,3_D,training,04,1_A,261.0,00100,kill,0.0,16900.0,1.45779365731
261,3_4_1,4,1.0,802.612101978,3_D,training,04,1_A,262.0,00000,ignore,1.0,17000.0,1.5745051188
262,3_4_1,4,1.0,805.846633974,3_D,training,04,1_A,263.0,01010,kill,1.0,17100.0,1.47102587622
263,3_4_1,4,1.0,809.409322561,3_D,training,04,1_A,264.0,01101,ignore,1.0,17200.0,1.81101118695
264,3_4_1,4,1.0,813.378246074,3_D,training,04,1_A,265.0,10111,ignore,1.0,17300.0,2.20151158465
265,3_4_1,4,1.0,815.987782239,3_D,training,04,1_A,266.0,01111,ignore,1.0,17400.0,0.838836788629
266,3_4_1,4,1.0,820.494295235,3_D,training,04,1_A,267.0,01000,ignore,0.0,17300.0,2.75735490327
267,3_4_1,4,1.0,823.619425771,3_D,training,04,1_A,268.0,10011,ignore,1.0,17400.0,1.37364140196
268,3_4_1,4,1.0,827.650920485,3_D,training,04,1_A,269.0,10000,kill,0.0,17300.0,2.26098232155
269,3_4_1,4,1.0,830.26042105,3_D,training,04,1_A,270.0,00110,kill,1.0,17400.0,0.841057820599
270,3_4_1,4,1.0,832.619909106,3_D,training,04,1_A,271.0,01110,kill,1.0,17500.0,0.598859816801
271,3_4_1,4,1.0,835.527981475,3_D,training,04,1_A,272.0,10001,ignore,1.0,17600.0,1.15081785293
272,3_4_1,4,1.0,839.918812862,3_D,training,04,1_A,273.0,10110,kill,1.0,17700.0,2.60722532971
273,3_4_1,4,1.0,842.387690512,3_D,training,04,1_A,274.0,11001,ignore,1.0,17800.0,0.644005939856
274,3_4_1,4,1.0,918.282208973,3_D,test,04,2,0.0,11101,ignore,0.0,0.0,6.30502642788
275,3_4_1,4,1.0,928.923411762,3_D,test,04,2,1.0,10100,ignore,0.0,0.0,8.84622633037
276,3_4_1,4,1.0,934.376813388,3_D,test,04,2,2.0,01001,ignore,0.0,0.0,3.68545151896
277,3_4_1,4,1.0,937.970729204,3_D,test,04,2,3.0,00001,kill,1.0,100.0,1.80565858008
278,3_4_1,4,1.0,942.361574383,3_D,test,04,2,4.0,11100,kill,1.0,200.0,2.62806261867
279,3_4_1,4,1.0,946.721170845,3_D,test,04,2,5.0,11111,kill,0.0,100.0,2.60986170267
280,3_4_1,4,1.0,952.252730025,3_D,test,04,2,6.0,01011,ignore,1.0,200.0,3.750823626
281,3_4_1,4,1.0,956.268553715,3_D,test,04,2,7.0,11110,ignore,1.0,300.0,2.29481898189
282,3_4_1,4,1.0,960.128116821,3_D,test,04,2,8.0,10101,kill,1.0,400.0,2.08164449376
283,3_4_1,4,1.0,963.081401062,3_D,test,04,2,9.0,01100,kill,0.0,300.0,1.19619265408
284,3_4_1,4,1.0,966.081523901,3_D,test,04,2,10.0,11011,ignore,1.0,400.0,1.27721590034
285,3_4_1,4,1.0,968.756749371,3_D,test,04,2,11.0,00111,ignore,1.0,500.0,0.946279891723
286,3_4_1,4,1.0,971.413110984,3_D,test,04,2,12.0,00010,ignore,1.0,600.0,0.892007492173
287,3_4_1,4,1.0,980.288554549,3_D,test,04,2,13.0,11000,kill,1.0,700.0,7.1368883743
288,3_4_1,4,1.0,983.132496664,3_D,test,04,2,14.0,11000,kill,1.0,800.0,1.07783811002
289,3_4_1,4,1.0,986.49201968,3_D,test,04,2,15.0,00100,kill,0.0,700.0,1.60197311028
290,3_4_1,4,1.0,993.633004375,3_D,test,04,2,16.0,11100,kill,1.0,800.0,5.40174924308
291,3_4_1,4,1.0,997.117565877,3_D,test,04,2,17.0,01011,ignore,1.0,900.0,1.72514977934
292,3_4_1,4,1.0,1000.46149164,3_D,test,04,2,18.0,10101,ignore,0.0,800.0,1.57503239339
293,3_4_1,4,1.0,1003.58662057,3_D,test,04,2,19.0,11101,kill,1.0,900.0,1.34203411248
294,3_4_1,4,1.0,1006.4930367,3_D,test,04,2,20.0,11011,ignore,1.0,1000.0,1.17628932108
295,3_4_1,4,1.0,1013.21212122,3_D,test,04,2,21.0,00001,ignore,0.0,900.0,4.91968235234
296,3_4_1,4,1.0,1024.72836314,3_D,test,04,2,22.0,10001,ignore,0.0,800.0,9.75013951609
297,3_4_1,4,1.0,1027.36912301,3_D,test,04,2,23.0,11001,kill,1.0,900.0,0.889347064709
298,3_4_1,4,1.0,1032.75998454,3_D,test,04,2,24.0,01000,kill,1.0,1000.0,3.60445457228
299,3_4_1,4,1.0,1035.9945438,3_D,test,04,2,25.0,11110,ignore,1.0,1100.0,1.48982206086
300,3_4_1,4,1.0,1038.44870747,3_D,test,04,2,26.0,11111,ignore,1.0,1200.0,0.668671101244
301,3_4_1,4,1.0,1042.8551916,3_D,test,04,2,27.0,01001,kill,1.0,1300.0,2.63259705188
302,3_4_1,4,1.0,1045.94909876,3_D,test,04,2,28.0,01110,ignore,1.0,1400.0,1.35010616052
303,3_4_1,4,1.0,1053.77772874,3_D,test,04,2,29.0,00101,ignore,1.0,1500.0,6.02161056089
304,3_4_1,4,1.0,1056.37162018,3_D,test,04,2,30.0,01101,ignore,1.0,1600.0,0.839817891414
305,3_4_1,4,1.0,1059.05928696,3_D,test,04,2,31.0,00010,ignore,1.0,1700.0,0.942373441267
306,3_4_1,4,1.0,1061.62187452,3_D,test,04,2,32.0,00110,ignore,1.0,1800.0,0.783431582593
307,3_4_1,4,1.0,1071.21614185,3_D,test,04,3,0.0,00000,ignore,0.0,1700.0,7.83999557397
308,3_4_1,4,1.0,1073.82563504,3_D,test,04,3,1.0,10111,ignore,0.0,1600.0,0.856772463696
309,3_4_1,4,1.0,1076.91956625,3_D,test,04,3,2.0,01111,ignore,1.0,1700.0,1.3252347719
310,3_4_1,4,1.0,1081.4198023,3_D,test,04,3,3.0,01010,ignore,1.0,1800.0,2.76869355211
311,3_4_1,4,1.0,1084.12303844,3_D,test,04,3,4.0,00111,ignore,0.0,1700.0,0.926879137376
312,3_4_1,4,1.0,1090.37336911,3_D,test,04,3,5.0,10010,ignore,0.0,1600.0,4.50652293837
313,3_4_1,4,1.0,1095.42047358,3_D,test,04,3,6.0,10000,ignore,0.0,1500.0,3.24924468877
314,3_4_1,4,1.0,1100.81142108,3_D,test,04,3,7.0,01100,ignore,1.0,1600.0,3.60387630215
315,3_4_1,4,1.0,1104.92098931,3_D,test,04,3,8.0,11010,kill,0.0,1500.0,2.37804016781
316,3_4_1,4,1.0,1110.98382993,3_D,test,04,3,9.0,00011,ignore,0.0,1400.0,4.29658586493
317,3_4_1,4,1.0,1114.87464014,3_D,test,04,3,10.0,10110,ignore,0.0,1300.0,2.13040103659
318,3_4_1,4,1.0,1122.17188671,3_D,test,04,3,11.0,10100,ignore,0.0,1200.0,5.50556781444
319,3_4_1,4,1.0,1125.78144789,3_D,test,04,3,12.0,10011,kill,1.0,1300.0,1.84090226818
320,3_4_1,4,1.0,1128.81283676,3_D,test,04,3,13.0,11000,kill,0.0,1200.0,1.31140920871
321,3_4_1,4,1.0,1131.23486234,3_D,test,04,3,14.0,11110,kill,0.0,1100.0,0.650247600963
322,3_4_1,4,1.0,1135.29755574,3_D,test,04,3,15.0,10011,kill,1.0,1200.0,2.32052041105
323,3_4_1,4,1.0,1139.67277352,3_D,test,04,3,16.0,11101,kill,0.0,1100.0,2.6260619259
324,3_4_1,4,1.0,1143.67297365,3_D,test,04,3,17.0,10101,ignore,1.0,1200.0,2.22249352132
325,3_4_1,4,1.0,1147.34504638,3_D,test,04,3,18.0,10100,ignore,0.0,1100.0,1.91648534921
326,3_4_1,4,1.0,1156.86117604,3_D,test,04,3,19.0,00010,kill,1.0,1200.0,7.75878790989
327,3_4_1,4,1.0,1162.36141979,3_D,test,04,3,20.0,00101,kill,0.0,1100.0,3.71277357982
328,3_4_1,4,1.0,1166.83035293,3_D,test,04,3,21.0,10111,kill,1.0,1200.0,2.71385827731
329,3_4_1,4,1.0,1172.33066179,3_D,test,04,3,22.0,00000,ignore,0.0,1100.0,3.72265388464
330,3_4_1,4,1.0,1176.62777396,3_D,test,04,3,23.0,00111,kill,1.0,1200.0,2.54730333042
331,3_4_1,4,1.0,1180.87795133,3_D,test,04,3,24.0,10110,kill,1.0,1300.0,2.46739332632
332,3_4_1,4,1.0,1190.72225073,3_D,test,04,3,25.0,11010,kill,0.0,1200.0,8.07831759635
333,3_4_1,4,1.0,1195.7381607,3_D,test,04,3,26.0,01010,ignore,1.0,1300.0,3.26934462719
334,3_4_1,4,1.0,1201.70721731,3_D,test,04,3,27.0,01101,kill,0.0,1200.0,4.18337417252
335,3_4_1,4,1.0,1213.0984185,3_D,test,04,3,28.0,10001,ignore,1.0,1300.0,9.63687297942
336,3_4_1,4,1.0,1216.48918157,3_D,test,04,3,29.0,01001,ignore,1.0,1400.0,1.60303503618
337,3_4_1,4,1.0,1221.9738688,3_D,test,04,3,30.0,00011,ignore,0.0,1300.0,3.70449466311
338,3_4_1,4,1.0,1226.17723354,3_D,test,04,3,31.0,10000,ignore,0.0,1200.0,2.45810508287
339,3_4_1,4,1.0,1229.55240032,3_D,test,04,3,32.0,10010,kill,1.0,1300.0,1.60599373941
340,3_4_1,4,1.0,1232.52127989,3_D,test,04,3,33.0,01011,kill,0.0,1200.0,1.22911716786
341,3_4_1,4,1.0,1239.81855917,3_D,test,04,3,34.0,01100,ignore,1.0,1300.0,5.52260096474
342,3_4_1,4,1.0,1243.49061361,3_D,test,04,3,35.0,11111,kill,0.0,1200.0,1.89713559039
343,3_4_1,4,1.0,1249.1627492,3_D,test,04,3,36.0,11011,ignore,1.0,1300.0,3.93289789347
344,3_4_1,4,1.0,1254.14787487,3_D,test,04,3,37.0,00100,kill,1.0,1400.0,3.19471121774
345,3_4_1,4,1.0,1261.07010539,3_D,test,04,3,38.0,00001,kill,0.0,1300.0,5.17746799148
346,3_4_1,4,1.0,1264.4452927,3_D,test,04,3,39.0,01000,ignore,1.0,1400.0,1.62279628727
347,3_4_1,4,1.0,1268.58609522,3_D,test,04,3,40.0,01110,ignore,1.0,1500.0,2.37283734028
348,3_4_1,4,1.0,1275.60206997,3_D,test,04,3,41.0,11001,kill,0.0,1400.0,5.26864512239
349,3_4_1,4,1.0,1279.18039366,3_D,test,04,3,42.0,01111,ignore,1.0,1500.0,1.82237004157
350,3_4_1,4,1.0,1285.57135879,3_D,test,04,3,43.0,11100,ignore,1.0,1600.0,4.60566178734
351,3_4_1,4,1.0,1288.66529706,3_D,test,04,3,44.0,00110,ignore,0.0,1500.0,1.33518531585
352,3_4_1,4,1.0,1291.60289231,3_D,test,04,3,45.0,01100,ignore,1.0,1600.0,1.1520010135
353,3_4_1,4,1.0,1296.38440787,3_D,test,04,3,46.0,10011,kill,1.0,1700.0,3.03352908349
354,3_4_1,4,1.0,1300.7908904,3_D,test,04,3,47.0,00101,ignore,1.0,1800.0,2.60415565505
355,3_4_1,4,1.0,1306.77556672,3_D,test,04,3,48.0,10110,ignore,0.0,1700.0,4.20917374404
356,3_4_1,4,1.0,1311.32267185,3_D,test,04,3,49.0,10000,kill,1.0,1800.0,2.78234111202
357,3_4_1,4,1.0,1314.79288628,3_D,test,04,3,50.0,11110,kill,0.0,1700.0,1.69209216401
358,3_4_1,4,1.0,1318.91804055,3_D,test,04,3,51.0,11101,kill,0.0,1600.0,2.36702064197
359,3_4_1,4,1.0,1328.66544748,3_D,test,04,3,52.0,11111,kill,0.0,1500.0,7.9655497896
360,3_4_1,4,1.0,1331.80623589,3_D,test,04,3,53.0,00001,ignore,1.0,1600.0,1.36014073485
361,3_4_1,4,1.0,1334.71263727,3_D,test,04,3,54.0,01111,ignore,1.0,1700.0,1.17764920203
362,3_4_1,4,1.0,1340.69733316,3_D,test,04,3,55.0,00010,ignore,0.0,1600.0,4.19306107918
363,3_4_1,4,1.0,1343.71313087,3_D,test,04,3,56.0,00000,ignore,0.0,1500.0,1.27075518294
364,3_4_1,4,1.0,1349.85404757,3_D,test,04,3,57.0,10001,kill,0.0,1400.0,4.37919221789
365,3_4_1,4,1.0,1356.62175104,3_D,test,04,3,58.0,01001,kill,0.0,1300.0,4.98385494176
366,3_4_1,4,1.0,1361.66885167,3_D,test,04,3,59.0,01010,kill,0.0,1200.0,3.30116680351
367,3_4_1,4,1.0,1367.12226805,3_D,test,04,3,60.0,10111,kill,1.0,1300.0,3.71063561605
368,3_4_1,4,1.0,1369.4505138,3_D,test,04,3,61.0,01110,kill,0.0,1200.0,0.559613460257
369,3_4_1,4,1.0,1373.82574056,3_D,test,04,3,62.0,11010,ignore,1.0,1300.0,2.62547146816
370,3_4_1,4,1.0,1377.35716952,3_D,test,04,3,63.0,11011,ignore,1.0,1400.0,1.75002982758
371,3_4_1,4,1.0,1379.57601542,3_D,test,04,3,64.0,01011,ignore,1.0,1500.0,0.479010686609
372,3_4_1,4,1.0,1383.73252649,3_D,test,04,3,65.0,11000,ignore,1.0,1600.0,2.37926021194
373,3_4_1,4,1.0,1385.99823889,3_D,test,04,3,66.0,11001,ignore,1.0,1700.0,0.481818327604
374,3_4_1,4,1.0,1388.07648112,3_D,test,04,3,67.0,01000,ignore,1.0,1800.0,0.334575935241
375,3_4_1,4,1.0,1390.23285844,3_D,test,04,3,68.0,00011,ignore,0.0,1700.0,0.376166482783
376,3_4_1,4,1.0,1402.04593671,3_D,test,04,3,69.0,00111,kill,1.0,1800.0,10.0576454816
377,3_4_1,4,1.0,1404.29608104,3_D,test,04,3,70.0,10100,kill,1.0,1900.0,0.445956599273
378,3_4_1,4,1.0,1406.44017101,3_D,test,04,3,71.0,00110,kill,1.0,2000.0,0.370732411353
379,3_4_1,4,1.0,1408.50278166,3_D,test,04,3,72.0,11100,kill,0.0,1900.0,0.324861766821
380,3_4_1,4,1.0,1412.51862877,3_D,test,04,3,73.0,10010,ignore,0.0,1800.0,2.23928291938
381,3_4_1,4,1.0,1417.66547923,3_D,test,04,3,74.0,10101,kill,0.0,1700.0,3.40463161338
382,3_4_1,4,1.0,1423.05676701,3_D,test,04,3,75.0,00100,ignore,0.0,1600.0,3.61755721763
383,3_4_1,4,1.0,1427.30694662,3_D,test,04,3,76.0,01101,ignore,1.0,1700.0,2.47687657156
384,3_4_1,4,1.0,1431.08842658,3_D,test,04,3,77.0,01111,ignore,1.0,1800.0,2.04153281675
385,3_4_1,4,1.0,1434.57296723,3_D,test,04,3,78.0,00101,ignore,1.0,1900.0,1.68529372145
386,3_4_1,4,1.0,1437.77627393,3_D,test,04,3,79.0,11111,ignore,1.0,2000.0,1.45683340176
387,3_4_1,4,1.0,1443.77657605,3_D,test,04,3,80.0,00010,ignore,0.0,1900.0,4.24570611176
388,3_4_1,4,1.0,1447.32363114,3_D,test,04,3,81.0,11110,ignore,1.0,2000.0,1.78455091856
389,3_4_1,4,1.0,1450.91755048,3_D,test,04,3,82.0,00111,ignore,0.0,1900.0,1.83226125109
390,3_4_1,4,1.0,1455.54280225,3_D,test,04,3,83.0,11000,kill,0.0,1800.0,2.87797890901
391,3_4_1,4,1.0,1460.98057968,3_D,test,04,3,84.0,10101,kill,0.0,1700.0,3.63929414481
392,3_4_1,4,1.0,1466.82775087,3_D,test,04,3,85.0,01000,ignore,1.0,1800.0,4.11488075383
393,3_4_1,4,1.0,1471.29671159,3_D,test,04,3,86.0,11011,ignore,1.0,1900.0,2.68340047211
394,3_4_1,4,1.0,1476.04701339,3_D,test,04,3,87.0,00110,kill,1.0,2000.0,3.01439068353
395,3_4_1,4,1.0,1479.43779379,3_D,test,04,3,88.0,10111,kill,1.0,2100.0,1.60313446143
396,3_4_1,4,1.0,1482.54733348,3_D,test,04,3,89.0,10100,kill,1.0,2200.0,1.29630394622
397,3_4_1,4,1.0,1486.09437285,3_D,test,04,4,0.0,00001,ignore,1.0,2300.0,1.79484945091
398,3_4_1,4,1.0,1489.70396707,3_D,test,04,4,1.0,00100,kill,0.0,2200.0,1.80056736542
399,3_4_1,4,1.0,1496.50116905,3_D,test,04,4,2.0,01110,ignore,1.0,2300.0,5.05567589932
400,3_4_1,4,1.0,1499.51691801,3_D,test,04,4,3.0,01101,ignore,1.0,2400.0,1.24090900344
401,3_4_1,4,1.0,1503.86066256,3_D,test,04,4,4.0,11001,kill,1.0,2500.0,2.57405738441
402,3_4_1,4,1.0,1509.29843229,3_D,test,04,4,5.0,00011,kill,0.0,2400.0,3.69391453277
403,3_4_1,4,1.0,1511.7047923,3_D,test,04,4,6.0,11100,kill,1.0,2500.0,0.622598719659
404,3_4_1,4,1.0,1514.6893182,3_D,test,04,4,7.0,11101,kill,1.0,2600.0,1.24636424283
405,3_4_1,4,1.0,1517.67386238,3_D,test,04,4,8.0,01100,ignore,1.0,2700.0,1.21959896341
406,3_4_1,4,1.0,1520.45521469,3_D,test,04,4,9.0,10001,kill,1.0,2800.0,0.992469979989
407,3_4_1,4,1.0,1522.9865917,3_D,test,04,4,10.0,01010,ignore,1.0,2900.0,0.801424667727
408,3_4_1,4,1.0,1525.86176586,3_D,test,04,4,11.0,01011,ignore,1.0,3000.0,1.14595595782
409,3_4_1,4,1.0,1528.19000006,3_D,test,04,4,12.0,01001,ignore,1.0,3100.0,0.555222391849
410,3_4_1,4,1.0,1530.97139215,3_D,test,04,4,13.0,10000,kill,1.0,3200.0,1.02910113152
411,3_4_1,4,1.0,1533.58091773,3_D,test,04,4,14.0,10110,kill,0.0,3100.0,0.817888848975
412,3_4_1,4,1.0,1536.54979858,3_D,test,04,4,15.0,10011,kill,1.0,3200.0,1.21747639452
413,3_4_1,4,1.0,1539.69064248,3_D,test,04,4,16.0,00000,ignore,1.0,3300.0,1.3341817622
414,3_4_1,4,1.0,1544.10025017,3_D,test,04,4,17.0,10010,kill,1.0,3400.0,2.62216156925
415,3_4_1,4,1.0,1550.80372524,3_D,test,04,4,18.0,11010,kill,1.0,3500.0,4.96452442654
416,3_4_1,4,1.0,1554.46282169,3_D,test,04,4,19.0,11010,kill,1.0,3600.0,1.88153480526
417,3_4_1,4,1.0,1558.21303786,3_D,test,04,4,20.0,10011,kill,1.0,3700.0,1.99745375122
418,3_4_1,4,1.0,1560.58840509,3_D,test,04,4,21.0,11110,kill,1.0,3800.0,0.594787229948
419,3_4_1,4,1.0,1563.61977184,3_D,test,04,4,22.0,01000,ignore,1.0,3900.0,1.25802137322
420,3_4_1,4,1.0,1566.05740462,3_D,test,04,4,23.0,01110,ignore,1.0,4000.0,0.704390106224
421,3_4_1,4,1.0,1568.41690069,3_D,test,04,4,24.0,00011,ignore,1.0,4100.0,0.56321169241
422,3_4_1,4,1.0,1570.47950717,3_D,test,04,5,0.0,01010,ignore,1.0,4200.0,0.340945245549
423,3_4_1,4,1.0,1572.55771797,3_D,test,04,5,1.0,01111,ignore,1.0,4300.0,0.343895609894
424,3_4_1,4,1.0,1575.82355032,3_D,test,04,5,2.0,11000,kill,1.0,4400.0,1.48220416175
425,3_4_1,4,1.0,1578.82370394,3_D,test,04,5,3.0,00110,ignore,1.0,4500.0,1.24610220917
426,3_4_1,4,1.0,1581.13630337,3_D,test,04,5,4.0,01001,ignore,0.0,4400.0,0.521612164521
427,3_4_1,4,1.0,1584.46462706,3_D,test,04,5,5.0,11011,kill,0.0,4300.0,1.58978806384
428,3_4_1,4,1.0,1587.57414366,3_D,test,04,5,6.0,00000,ignore,0.0,4200.0,1.33214226151
429,3_4_1,4,1.0,1592.41816596,3_D,test,04,5,7.0,10101,ignore,0.0,4100.0,3.03629567147
430,3_4_1,4,1.0,1597.48087956,3_D,test,04,5,8.0,11111,kill,0.0,4000.0,3.32908958536
431,3_4_1,4,1.0,1604.10318802,3_D,test,04,5,9.0,00101,ignore,1.0,4100.0,4.86626629292
432,3_4_1,4,1.0,1607.40023221,3_D,test,04,5,10.0,10100,ignore,0.0,4000.0,1.50686002207
433,3_4_1,4,1.0,1610.15038648,3_D,test,04,5,11.0,10111,ignore,1.0,4100.0,0.964679658235
434,3_4_1,4,1.0,1612.65051701,3_D,test,04,5,12.0,11101,ignore,0.0,4000.0,0.724240198593
435,3_4_1,4,1.0,1615.26002142,3_D,test,04,5,13.0,00001,ignore,0.0,3900.0,0.871657386979
436,3_4_1,4,1.0,1624.3717318,3_D,test,04,5,14.0,10010,ignore,1.0,4000.0,7.32325236055
437,3_4_1,4,1.0,1627.41875962,3_D,test,04,5,15.0,10000,kill,1.0,4100.0,1.27178471545
438,3_4_1,4,1.0,1629.87200634,3_D,test,04,5,16.0,11100,kill,1.0,4200.0,0.72537108072
439,3_4_1,4,1.0,1632.76277935,3_D,test,04,5,17.0,01011,ignore,1.0,4300.0,1.10324447067
440,3_4_1,4,1.0,1635.40355493,3_D,test,04,5,18.0,10001,kill,1.0,4400.0,0.890746395031
441,3_4_1,4,1.0,1638.12242809,3_D,test,04,5,19.0,00010,ignore,1.0,4500.0,0.942087673833
442,3_4_1,4,1.0,1641.06014651,3_D,test,04,5,20.0,01100,kill,0.0,4400.0,1.15921094832
443,3_4_1,4,1.0,1644.04464739,3_D,test,04,5,21.0,11001,kill,1.0,4500.0,1.23262655873
444,3_4_1,4,1.0,1646.49788,3_D,test,04,5,22.0,01101,kill,0.0,4400.0,0.669429299021
445,3_4_1,4,1.0,1652.42009481,3_D,test,04,5,23.0,00100,ignore,1.0,4500.0,4.16208241392
446,3_4_1,4,1.0,1658.62349419,3_D,test,04,5,24.0,10110,ignore,1.0,4600.0,4.43257812901
447,3_4_1,4,1.0,1661.60804094,3_D,test,04,5,25.0,00111,ignore,1.0,4700.0,1.18625590137
448,3_4_1,4,1.0,1664.65507999,3_D,test,04,5,26.0,11101,ignore,0.0,4600.0,1.29833703238
449,3_4_1,4,1.0,1667.62399516,3_D,test,04,5,27.0,10110,ignore,1.0,4700.0,1.21374281573
450,3_4_1,4,1.0,1670.24908016,3_D,test,04,5,28.0,01111,ignore,1.0,4800.0,0.835443500793
451,3_4_1,4,1.0,1674.70248756,3_D,test,04,5,29.0,00010,kill,0.0,4700.0,2.68889034998
452,3_4_1,4,1.0,1679.1401553,3_D,test,04,5,30.0,11001,kill,1.0,4800.0,2.65066518705
453,3_4_1,4,1.0,1683.04664328,3_D,test,04,5,31.0,01000,kill,1.0,4900.0,2.1509355596
454,3_4_1,4,1.0,1687.24998877,3_D,test,04,5,32.0,11100,ignore,0.0,4800.0,2.40557422897
455,3_4_1,4,1.0,1691.81270623,3_D,test,04,5,33.0,01100,ignore,1.0,4900.0,2.77825248884
456,3_4_1,4,1.0,1698.2193055,3_D,test,04,5,34.0,11010,ignore,1.0,5000.0,4.66657739775
457,3_4_1,4,1.0,1700.81320079,3_D,test,04,5,35.0,10111,ignore,1.0,5100.0,0.802593395594
458,3_4_1,4,1.0,1705.18842562,3_D,test,04,5,36.0,01001,kill,1.0,5200.0,2.63523534921
459,3_4_1,4,1.0,1709.21985266,3_D,test,04,5,37.0,11000,kill,1.0,5300.0,2.27931858418
460,3_4_1,4,1.0,1716.18901896,3_D,test,04,5,38.0,00101,ignore,1.0,5400.0,5.15326146918
461,3_4_1,4,1.0,1721.11117412,3_D,test,04,5,39.0,00000,kill,1.0,5500.0,3.15075499051
462,3_4_1,4,1.0,1724.61763291,3_D,test,04,5,40.0,11011,ignore,1.0,5600.0,1.74152127059
463,3_4_1,4,1.0,1726.89899516,3_D,test,04,5,41.0,10010,ignore,1.0,5700.0,0.535868142862
464,3_4_1,4,1.0,1729.63352074,3_D,test,04,5,42.0,01110,ignore,1.0,5800.0,0.961372325142
465,3_4_1,4,1.0,1734.38915655,3_D,test,04,6,0.0,00100,ignore,0.0,5700.0,2.95235252989
466,3_4_1,4,1.0,1741.04576416,3_D,test,04,6,1.0,10001,kill,0.0,5600.0,4.912544581
467,3_4_1,4,1.0,1746.29602074,3_D,test,04,6,2.0,10100,kill,1.0,5700.0,3.46363216503
468,3_4_1,4,1.0,1751.04626129,3_D,test,04,6,3.0,11110,kill,0.0,5600.0,3.02776947452
469,3_4_1,4,1.0,1754.34326827,3_D,test,04,6,4.0,10011,ignore,0.0,5500.0,1.54446008877
470,3_4_1,4,1.0,1757.54657881,3_D,test,04,6,5.0,00111,ignore,0.0,5400.0,1.42514015754
471,3_4_1,4,1.0,1760.23422089,3_D,test,04,6,6.0,00110,kill,1.0,5500.0,0.960553830759
472,3_4_1,4,1.0,1762.79682865,3_D,test,04,6,7.0,00011,kill,1.0,5600.0,0.826411838661
473,3_4_1,4,1.0,1765.12796833,3_D,test,04,6,8.0,01011,kill,0.0,5500.0,0.560790527019
474,3_4_1,4,1.0,1768.90938639,3_D,test,04,6,9.0,01010,ignore,1.0,5600.0,2.02627649202
475,3_4_1,4,1.0,1772.14395398,3_D,test,04,6,10.0,11111,kill,0.0,5500.0,1.44704931493
476,3_4_1,4,1.0,1775.66292881,3_D,test,04,6,11.0,10000,ignore,0.0,5400.0,1.7962603274
477,3_4_1,4,1.0,1779.85068379,3_D,test,04,6,12.0,00001,ignore,1.0,5500.0,2.41152691538
478,3_4_1,4,1.0,1785.3665604,3_D,test,04,6,13.0,01101,kill,0.0,5400.0,3.74481834043
479,3_4_1,4,1.0,1787.92917201,3_D,test,04,6,14.0,10101,kill,0.0,5300.0,0.808825434906
480,3_4_1,4,1.0,1790.53873448,3_D,test,04,6,15.0,10001,kill,0.0,5200.0,0.814696656747
481,3_4_1,4,1.0,1793.9295107,3_D,test,04,6,16.0,11111,ignore,1.0,5300.0,1.6623242418
482,3_4_1,4,1.0,1797.4765892,3_D,test,04,6,17.0,01101,ignore,1.0,5400.0,1.75371946682
483,3_4_1,4,1.0,1800.61735708,3_D,test,04,6,18.0,00011,ignore,0.0,5300.0,1.35327942988
484,3_4_1,4,1.0,1804.82071477,3_D,test,04,6,19.0,10010,kill,1.0,5400.0,2.45064433982
485,3_4_1,4,1.0,1810.74288276,3_D,test,04,6,20.0,10000,ignore,0.0,5300.0,4.13390305076
486,3_4_1,4,1.0,1813.93053927,3_D,test,04,6,21.0,00001,ignore,1.0,5400.0,1.42989492995
487,3_4_1,4,1.0,1816.89947144,3_D,test,04,6,22.0,01110,kill,0.0,5300.0,1.21108206753
488,3_4_1,4,1.0,1820.46213822,3_D,test,04,6,23.0,11100,ignore,1.0,5400.0,1.79320893416
489,3_4_1,4,1.0,1827.46249808,3_D,test,04,6,24.0,10110,ignore,0.0,5300.0,5.2495256453
490,3_4_1,4,1.0,1833.99408035,3_D,test,04,6,25.0,00010,kill,1.0,5400.0,4.78774888387
491,3_4_1,4,1.0,1838.60657073,3_D,test,04,6,26.0,00101,ignore,1.0,5500.0,2.80688054857
492,3_4_1,4,1.0,1841.68483252,3_D,test,04,6,27.0,11110,ignore,1.0,5600.0,1.32458401755
493,3_4_1,4,1.0,1864.4828918,3_D,test,04,6,28.0,01100,ignore,1.0,5700.0,21.0217180043
494,3_4_1,4,1.0,1868.56120811,3_D,test,04,6,29.0,00000,kill,1.0,5800.0,2.32491468672
495,3_4_1,4,1.0,1872.07698786,3_D,test,04,6,30.0,00110,kill,1.0,5900.0,1.7670463001
496,3_4_1,4,1.0,1878.96800367,3_D,test,04,6,31.0,01001,kill,0.0,5800.0,5.10207093191
497,3_4_1,4,1.0,1882.53069418,3_D,test,04,6,32.0,10101,ignore,1.0,5900.0,1.81352472161
498,3_4_1,4,1.0,1888.59350753,3_D,test,04,6,33.0,01000,ignore,1.0,6000.0,4.26718677836
499,3_4_1,4,1.0,1893.23436201,3_D,test,04,6,34.0,00111,kill,1.0,6100.0,2.87703212398
500,3_4_1,4,1.0,1896.56269372,3_D,test,04,6,35.0,11011,ignore,1.0,6200.0,1.5509823857
501,3_4_1,4,1.0,1899.85975266,3_D,test,04,6,36.0,10100,kill,1.0,6300.0,1.51052079591
502,3_4_1,4,1.0,1903.20371401,3_D,test,04,6,37.0,11000,ignore,1.0,6400.0,1.6103508108
503,3_4_1,4,1.0,1906.62577295,3_D,test,04,6,38.0,11001,ignore,1.0,6500.0,1.64036729615
504,3_4_1,4,1.0,1909.57904789,3_D,test,04,6,39.0,01010,ignore,1.0,6600.0,1.2226859573
505,3_4_1,4,1.0,1913.43865301,3_D,test,04,6,40.0,10111,kill,1.0,6700.0,2.07550963463
506,3_4_1,4,1.0,1916.4543978,3_D,test,04,6,41.0,01111,ignore,1.0,6800.0,1.21438298609
507,3_4_1,4,1.0,1918.87643237,3_D,test,04,7,0.0,00100,ignore,1.0,6900.0,0.676501000667
508,3_4_1,4,1.0,1921.8453036,3_D,test,04,7,1.0,11101,kill,1.0,7000.0,1.19265632216
509,3_4_1,4,1.0,1924.73606731,3_D,test,04,7,2.0,01011,ignore,1.0,7100.0,1.15339777801
510,3_4_1,4,1.0,1927.55497704,3_D,test,04,7,3.0,11010,kill,1.0,7200.0,1.07499134038
511,3_4_1,4,1.0,1929.69573177,3_D,test,04,7,4.0,10011,kill,1.0,7300.0,0.350772309746
512,3_4_1,4,1.0,1932.2427256,3_D,test,04,7,5.0,01101,ignore,1.0,7400.0,0.800892261508
513,3_4_1,4,1.0,1935.03975022,3_D,test,04,7,6.0,01000,ignore,1.0,7500.0,1.04892813157
514,3_4_1,4,1.0,1937.97742181,3_D,test,04,7,7.0,10111,kill,0.0,7400.0,1.14913532098
515,3_4_1,4,1.0,1941.82131485,3_D,test,04,7,8.0,00110,ignore,1.0,7500.0,2.07797217376
516,3_4_1,4,1.0,1944.22770244,3_D,test,04,7,9.0,00100,ignore,1.0,7600.0,0.608178208549
517,3_4_1,4,1.0,1947.04032785,3_D,test,04,7,10.0,10100,kill,0.0,7500.0,1.0556431852
518,3_4_1,4,1.0,1954.66894179,3_D,test,04,7,11.0,01001,ignore,1.0,7600.0,5.85185829014
519,3_4_1,4,1.0,1957.65349047,3_D,test,04,7,12.0,11001,ignore,0.0,7500.0,1.18021790168
520,3_4_1,4,1.0,1960.10671153,3_D,test,04,7,13.0,10000,ignore,0.0,7400.0,0.69160241443
521,3_4_1,4,1.0,1962.43496818,3_D,test,04,7,14.0,00001,ignore,1.0,7500.0,0.534332824449
522,3_4_1,4,1.0,1967.16957427,3_D,test,04,7,15.0,11111,kill,1.0,7600.0,2.98519878637
523,3_4_1,4,1.0,1970.82601382,3_D,test,04,7,16.0,01111,kill,0.0,7500.0,1.87033438959
524,3_4_1,4,1.0,1975.18564395,3_D,test,04,7,17.0,10010,ignore,0.0,7400.0,2.56922980705
525,3_4_1,4,1.0,1979.59210628,3_D,test,04,7,18.0,01100,ignore,1.0,7500.0,2.65630484425
526,3_4_1,4,1.0,1984.2329614,3_D,test,04,7,19.0,11010,kill,1.0,7600.0,2.875827154
527,3_4_1,4,1.0,1992.0614416,3_D,test,04,7,20.0,10110,kill,0.0,7500.0,6.07955656335
528,3_4_1,4,1.0,1995.7022855,3_D,test,04,7,21.0,00011,kill,0.0,7400.0,1.85486029148
529,3_4_1,4,1.0,1999.04623724,3_D,test,04,7,22.0,00000,ignore,1.0,7500.0,1.5539840663
530,3_4_1,4,1.0,2002.76516556,3_D,test,04,7,23.0,10011,kill,1.0,7600.0,1.97131613383
531,3_4_1,4,1.0,2008.29667342,3_D,test,04,7,24.0,00101,kill,0.0,7500.0,3.76271360394
532,3_4_1,4,1.0,2011.82810431,3_D,test,04,7,25.0,10001,kill,1.0,7600.0,1.71962494227
533,3_4_1,4,1.0,2015.45331246,3_D,test,04,7,26.0,00010,ignore,1.0,7700.0,1.84912441628
534,3_4_1,4,1.0,2019.23477511,3_D,test,04,7,27.0,01011,ignore,1.0,7800.0,1.98829443989
535,3_4_1,4,1.0,2023.18806544,3_D,test,04,7,28.0,10101,kill,0.0,7700.0,2.19542194797
536,3_4_1,4,1.0,2026.34448382,3_D,test,04,7,29.0,11101,kill,1.0,7800.0,1.41059873249
537,3_4_1,4,1.0,2030.09469358,3_D,test,04,7,30.0,01010,ignore,1.0,7900.0,1.96845364858
538,3_4_1,4,1.0,2033.29799129,3_D,test,04,7,31.0,11000,ignore,0.0,7800.0,1.43210024632
539,3_4_1,4,1.0,2036.17310932,3_D,test,04,7,32.0,11100,ignore,0.0,7700.0,1.10077615847
540,3_4_1,4,1.0,2043.28290014,3_D,test,04,7,33.0,00111,ignore,1.0,7800.0,5.35232334377
541,3_4_1,4,1.0,2045.5486414,3_D,test,04,7,34.0,01110,ignore,1.0,7900.0,0.493286229281
542,3_4_1,4,1.0,2048.97073401,3_D,test,04,7,35.0,11011,kill,1.0,8000.0,1.63247100631
543,3_4_1,4,1.0,2051.23276479,3_D,test,04,7,36.0,11110,kill,1.0,8100.0,0.535105454917
544,3_4_1,4,1.0,2054.02979999,3_D,test,04,7,37.0,11000,kill,1.0,8200.0,1.00067833684
545,3_4_1,4,1.0,2057.09244849,3_D,test,04,7,38.0,01100,ignore,1.0,8300.0,1.3201454816
546,3_4_1,4,1.0,2059.93632261,3_D,test,04,7,39.0,00011,ignore,1.0,8400.0,1.05784914302
547,3_4_1,4,1.0,2063.01460685,3_D,test,04,7,40.0,01110,ignore,1.0,8500.0,1.30193269872
548,3_4_1,4,1.0,2065.73349509,3_D,test,04,7,41.0,00010,ignore,1.0,8600.0,0.977550418225
549,3_4_1,4,1.0,2068.1398397,3_D,test,04,7,42.0,00111,ignore,1.0,8700.0,0.608636526915
550,3_4_1,4,1.0,2071.93693167,3_D,test,04,8,0.0,11011,kill,1.0,8800.0,2.06537467286
551,3_4_1,4,1.0,2074.31205002,3_D,test,04,8,1.0,10011,kill,0.0,8700.0,0.604795183972
552,3_4_1,4,1.0,2076.88724246,3_D,test,04,8,2.0,11101,kill,1.0,8800.0,0.795785972703
553,3_4_1,4,1.0,2079.18422153,3_D,test,04,8,3.0,10010,kill,0.0,8700.0,0.548067301279
554,3_4_1,4,1.0,2086.49711346,3_D,test,04,8,4.0,01111,ignore,0.0,8600.0,5.57422031355
555,3_4_1,4,1.0,2089.51289065,3_D,test,04,8,5.0,11010,ignore,0.0,8500.0,1.23469011392
556,3_4_1,4,1.0,2093.29431769,3_D,test,04,8,6.0,11110,kill,1.0,8600.0,2.02415392313
557,3_4_1,4,1.0,2096.46635289,3_D,test,04,8,7.0,11111,kill,1.0,8700.0,1.38092959409
558,3_4_1,4,1.0,2100.7947202,3_D,test,04,8,8.0,01011,kill,1.0,8800.0,2.59715034382
559,3_4_1,4,1.0,2103.63861164,3_D,test,04,8,9.0,00101,ignore,1.0,8900.0,1.04192987633
560,3_4_1,4,1.0,2105.90437664,3_D,test,04,8,10.0,01101,ignore,0.0,8800.0,0.470469736232
561,3_4_1,4,1.0,2112.37344768,3_D,test,04,8,11.0,10101,ignore,1.0,8900.0,4.70708966234
562,3_4_1,4,1.0,2115.6079909,3_D,test,04,8,12.0,10100,ignore,1.0,9000.0,1.43378470262
563,3_4_1,4,1.0,2120.15509186,3_D,test,04,8,13.0,10000,ignore,1.0,9100.0,2.79179998204
564,3_4_1,4,1.0,2125.36163436,3_D,test,04,8,14.0,01001,ignore,1.0,9200.0,3.42053773028
565,3_4_1,4,1.0,2127.53364326,3_D,test,04,8,15.0,11001,ignore,1.0,9300.0,0.384226343205
566,3_4_1,4,1.0,2130.20559604,3_D,test,04,8,16.0,11100,ignore,0.0,9200.0,0.937980769231
567,3_4_1,4,1.0,2132.94012964,3_D,test,04,8,17.0,00100,ignore,1.0,9300.0,0.946239159439
568,3_4_1,4,1.0,2135.31526274,3_D,test,04,8,18.0,10001,ignore,1.0,9400.0,0.61263855391
569,3_4_1,4,1.0,2138.65920165,3_D,test,04,8,19.0,10111,kill,0.0,9300.0,1.5952718479
570,3_4_1,4,1.0,2141.59686618,3_D,test,04,8,20.0,01000,ignore,1.0,9400.0,1.16194065274
571,3_4_1,4,1.0,2144.05009814,3_D,test,04,8,21.0,00001,ignore,1.0,9500.0,0.682815787448
572,3_4_1,4,1.0,2147.50337052,3_D,test,04,8,22.0,00110,kill,0.0,9400.0,1.67797121157
573,3_4_1,4,1.0,2151.92549584,3_D,test,04,8,23.0,01010,ignore,0.0,9300.0,2.68314581516
574,3_4_1,4,1.0,2155.36317898,3_D,test,04,8,24.0,00000,ignore,1.0,9400.0,1.6531508185
575,3_4_1,4,1.0,2159.28711256,3_D,test,04,8,25.0,10110,kill,0.0,9300.0,2.14480070047
