,unique_id,pair_id,sbj_id,wall_time,condition,block,rule_id,rule_num,trial,stimulus,choice,correct,points,reaction_time
0,2_39_1,39,1.0,26.7105662124,2_ND,training,05,1_A,1.0,01000,ignore,0.0,0.0,4.61713015274
1,2_39_1,39,1.0,33.757800771,2_ND,training,05,1_A,2.0,01001,kill,0.0,0.0,4.88330298733
2,2_39_1,39,1.0,38.3048825037,2_ND,training,05,1_A,3.0,10101,kill,0.0,0.0,2.38827150971
3,2_39_1,39,1.0,44.3051522341,2_ND,training,05,1_A,4.0,01010,ignore,0.0,0.0,3.85962829814
4,2_39_1,39,1.0,47.9460555388,2_ND,training,05,1_A,5.0,00111,kill,0.0,0.0,1.50253966655
5,2_39_1,39,1.0,51.6337219353,2_ND,training,05,1_A,6.0,10000,kill,1.0,100.0,1.52967594836
6,2_39_1,39,1.0,55.1182935853,2_ND,training,05,1_A,7.0,11001,kill,0.0,0.0,1.34791587621
7,2_39_1,39,1.0,59.2903709482,2_ND,training,05,1_A,8.0,00000,kill,1.0,100.0,2.02103575803
8,2_39_1,39,1.0,62.4936433767,2_ND,training,05,1_A,9.0,00001,kill,0.0,0.0,1.06767280461
9,2_39_1,39,1.0,70.5633431679,2_ND,training,05,1_A,10.0,01111,ignore,1.0,100.0,5.93686482277
10,2_39_1,39,1.0,73.7353996836,2_ND,training,05,1_A,11.0,01101,ignore,1.0,200.0,1.03154882616
11,2_39_1,39,1.0,77.344941466,2_ND,training,05,1_A,12.0,11110,kill,0.0,100.0,1.47826971044
12,2_39_1,39,1.0,81.245157603,2_ND,training,05,1_A,13.0,00011,kill,0.0,0.0,1.76266938728
13,2_39_1,39,1.0,84.8703232178,2_ND,training,05,1_A,14.0,01100,kill,1.0,100.0,1.53394576977
14,2_39_1,39,1.0,88.9338852809,2_ND,training,05,1_A,15.0,10110,kill,0.0,0.0,1.94403240099
15,2_39_1,39,1.0,93.9498086711,2_ND,training,05,1_A,16.0,10010,ignore,0.0,0.0,2.9315077412
16,2_39_1,39,1.0,97.4030572858,2_ND,training,05,1_A,17.0,11111,kill,0.0,0.0,1.39209167367
17,2_39_1,39,1.0,100.63757353,2_ND,training,05,1_A,18.0,11011,ignore,1.0,100.0,1.19561798873
18,2_39_1,39,1.0,103.623632546,2_ND,training,05,1_A,19.0,10111,ignore,1.0,200.0,0.894349101599
19,2_39_1,39,1.0,106.436240209,2_ND,training,05,1_A,20.0,01110,kill,1.0,300.0,0.733128304077
20,2_39_1,39,1.0,109.545769644,2_ND,training,05,1_A,21.0,00110,kill,1.0,400.0,1.05074522223
21,2_39_1,39,1.0,112.295893845,2_ND,training,05,1_A,22.0,00100,kill,1.0,500.0,0.634213287089
22,2_39_1,39,1.0,114.967897601,2_ND,training,05,1_A,23.0,10100,kill,0.0,400.0,0.628255486254
23,2_39_1,39,1.0,118.655548924,2_ND,training,05,1_A,24.0,00101,ignore,1.0,500.0,1.60594612642
24,2_39_1,39,1.0,122.140112235,2_ND,training,05,1_A,25.0,11010,kill,1.0,600.0,1.38278998656
25,2_39_1,39,1.0,124.921475762,2_ND,training,05,1_A,26.0,11000,kill,1.0,700.0,0.697718261064
26,2_39_1,39,1.0,127.749737727,2_ND,training,05,1_A,27.0,00010,kill,1.0,800.0,0.760100053593
27,2_39_1,39,1.0,131.671823188,2_ND,training,05,1_A,28.0,11101,ignore,1.0,900.0,1.85313328174
28,2_39_1,39,1.0,134.484484413,2_ND,training,05,1_A,29.0,11100,kill,0.0,800.0,0.757091967136
29,2_39_1,39,1.0,138.109678572,2_ND,training,05,1_A,30.0,10011,ignore,1.0,900.0,1.56239414047
30,2_39_1,39,1.0,141.281697563,2_ND,training,05,1_A,31.0,10001,ignore,1.0,1000.0,1.10260400413
31,2_39_1,39,1.0,144.484944975,2_ND,training,05,1_A,32.0,01011,ignore,1.0,1100.0,1.14126524369
32,2_39_1,39,1.0,147.766346508,2_ND,training,05,1_A,33.0,01010,kill,1.0,1200.0,1.22648559348
33,2_39_1,39,1.0,150.547761671,2_ND,training,05,1_A,34.0,00100,kill,1.0,1300.0,0.699727607653
34,2_39_1,39,1.0,153.219782747,2_ND,training,05,1_A,35.0,10010,kill,1.0,1400.0,0.610752521947
35,2_39_1,39,1.0,155.829241461,2_ND,training,05,1_A,36.0,11110,kill,0.0,1300.0,0.55872567977
36,2_39_1,39,1.0,159.048168191,2_ND,training,05,1_A,37.0,01110,kill,1.0,1400.0,1.14790202086
37,2_39_1,39,1.0,161.923302295,2_ND,training,05,1_A,38.0,11011,ignore,1.0,1500.0,0.841228264017
38,2_39_1,39,1.0,164.657795287,2_ND,training,05,1_A,39.0,10001,ignore,1.0,1600.0,0.691283220369
39,2_39_1,39,1.0,167.673574029,2_ND,training,05,1_A,40.0,11000,kill,1.0,1700.0,0.947693805728
40,2_39_1,39,1.0,170.189327916,2_ND,training,05,1_A,41.0,00010,kill,1.0,1800.0,0.465574424562
41,2_39_1,39,1.0,174.97082711,2_ND,training,05,1_A,42.0,01001,ignore,1.0,1900.0,2.71390977793
42,2_39_1,39,1.0,178.955355302,2_ND,training,05,1_A,43.0,11010,kill,1.0,2000.0,1.94337106458
43,2_39_1,39,1.0,182.111873619,2_ND,training,05,1_A,44.0,00011,ignore,1.0,2100.0,1.06734502293
44,2_39_1,39,1.0,185.658926165,2_ND,training,05,1_A,45.0,01011,ignore,1.0,2200.0,1.49152819067
45,2_39_1,39,1.0,190.315415457,2_ND,training,05,1_A,46.0,10110,kill,0.0,2100.0,2.61980757099
46,2_39_1,39,1.0,193.487436693,2_ND,training,05,1_A,47.0,00101,ignore,1.0,2200.0,1.10035283036
47,2_39_1,39,1.0,196.607582148,2_ND,training,05,1_A,48.0,00000,kill,1.0,2300.0,1.05115927912
48,2_39_1,39,1.0,199.654605669,2_ND,training,05,1_A,49.0,00001,ignore,1.0,2400.0,1.02116019961
49,2_39_1,39,1.0,202.592255308,2_ND,training,05,1_A,50.0,01000,kill,1.0,2500.0,0.904946841317
50,2_39_1,39,1.0,205.373624287,2_ND,training,05,1_A,51.0,11001,ignore,1.0,2600.0,0.736727808748
51,2_39_1,39,1.0,208.31127585,2_ND,training,05,1_A,52.0,00110,kill,1.0,2700.0,0.886541354855
52,2_39_1,39,1.0,212.077052107,2_ND,training,05,1_A,53.0,10100,kill,0.0,2600.0,1.70296661662
53,2_39_1,39,1.0,216.98356858,2_ND,training,05,1_A,54.0,01100,kill,1.0,2700.0,2.87797605398
54,2_39_1,39,1.0,219.98371868,2_ND,training,05,1_A,55.0,00111,ignore,1.0,2800.0,0.957600381535
55,2_39_1,39,1.0,224.124532663,2_ND,training,05,1_A,56.0,10000,ignore,0.0,2700.0,2.08239186973
56,2_39_1,39,1.0,227.812238829,2_ND,training,05,1_A,57.0,10011,ignore,1.0,2800.0,1.64177471649
57,2_39_1,39,1.0,230.749887185,2_ND,training,05,1_A,58.0,11111,ignore,1.0,2900.0,0.883355586352
58,2_39_1,39,1.0,233.453121928,2_ND,training,05,1_A,59.0,10111,ignore,1.0,3000.0,0.65154017298
59,2_39_1,39,1.0,236.156398366,2_ND,training,05,1_A,60.0,01111,ignore,1.0,3100.0,0.644790821087
60,2_39_1,39,1.0,240.81286681,2_ND,training,05,1_A,61.0,11100,kill,0.0,3000.0,2.60714275405
61,2_39_1,39,1.0,243.797353628,2_ND,training,05,1_A,62.0,01101,ignore,1.0,3100.0,0.946047520646
62,2_39_1,39,1.0,246.625630346,2_ND,training,05,1_A,63.0,10101,ignore,1.0,3200.0,0.791375621447
63,2_39_1,39,1.0,249.438352509,2_ND,training,05,1_A,64.0,11101,ignore,1.0,3300.0,0.772596810254
64,2_39_1,39,1.0,253.969777695,2_ND,training,05,1_A,65.0,10110,ignore,1.0,3400.0,2.46477453463
65,2_39_1,39,1.0,259.329421869,2_ND,training,05,1_A,66.0,11010,ignore,0.0,3300.0,3.32093258057
66,2_39_1,39,1.0,263.501511099,2_ND,training,05,1_A,67.0,10100,kill,0.0,3200.0,2.14237559611
67,2_39_1,39,1.0,266.611023535,2_ND,training,05,1_A,68.0,01010,kill,1.0,3300.0,1.06777222958
68,2_39_1,39,1.0,270.814365241,2_ND,training,05,1_A,69.0,01000,kill,1.0,3400.0,2.18186623236
69,2_39_1,39,1.0,273.924632986,2_ND,training,05,1_A,70.0,01101,ignore,1.0,3500.0,1.07377685637
70,2_39_1,39,1.0,278.471711511,2_ND,training,05,1_A,71.0,10010,kill,1.0,3600.0,2.49836510068
71,2_39_1,39,1.0,282.128187011,2_ND,training,05,1_A,72.0,00001,ignore,1.0,3700.0,1.6420405981
72,2_39_1,39,1.0,285.550176415,2_ND,training,05,1_A,73.0,10000,kill,1.0,3800.0,1.39702828384
73,2_39_1,39,1.0,288.456600198,2_ND,training,05,1_A,74.0,01110,ignore,0.0,3700.0,0.864664012554
74,2_39_1,39,1.0,291.784860079,2_ND,training,05,1_A,75.0,11101,ignore,1.0,3800.0,1.29829928776
75,2_39_1,39,1.0,294.831886486,2_ND,training,05,1_A,76.0,10101,ignore,1.0,3900.0,1.00953453398
76,2_39_1,39,1.0,297.847664908,2_ND,training,05,1_A,77.0,01011,ignore,1.0,4000.0,0.990356740002
77,2_39_1,39,1.0,300.613601208,2_ND,training,05,1_A,78.0,01111,ignore,1.0,4100.0,0.714399846821
78,2_39_1,39,1.0,303.566866981,2_ND,training,05,1_A,79.0,11000,kill,1.0,4200.0,0.922084178312
79,2_39_1,39,1.0,306.473271842,2_ND,training,05,1_A,80.0,00101,ignore,1.0,4300.0,0.88168685047
80,2_39_1,39,1.0,309.348428717,2_ND,training,05,1_A,81.0,00111,ignore,1.0,4400.0,0.842533296942
81,2_39_1,39,1.0,312.504829007,2_ND,training,05,1_A,82.0,00000,kill,1.0,4500.0,1.15097072448
82,2_39_1,39,1.0,316.411241885,2_ND,training,05,1_A,83.0,00110,kill,1.0,4600.0,1.8521810471
83,2_39_1,39,1.0,319.145774326,2_ND,training,05,1_A,84.0,11001,ignore,1.0,4700.0,0.709857729281
84,2_39_1,39,1.0,322.849077705,2_ND,training,05,1_A,85.0,01100,kill,1.0,4800.0,1.68681294539
85,2_39_1,39,1.0,326.161731393,2_ND,training,05,1_A,86.0,11100,kill,0.0,4700.0,1.28700942196
86,2_39_1,39,1.0,329.039966914,2_ND,training,05,1_A,87.0,11011,ignore,1.0,4800.0,0.897707099809
87,2_39_1,39,1.0,332.399516474,2_ND,training,05,1_A,88.0,11110,ignore,1.0,4900.0,1.35527524841
88,2_39_1,39,1.0,336.227829434,2_ND,training,05,1_A,89.0,00100,kill,1.0,5000.0,1.78513237473
89,2_39_1,39,1.0,338.962317615,2_ND,training,05,1_A,90.0,10011,ignore,1.0,5100.0,0.725980931574
90,2_39_1,39,1.0,342.993805824,2_ND,training,05,1_A,91.0,00011,ignore,1.0,5200.0,2.02243957447
91,2_39_1,39,1.0,346.009549929,2_ND,training,05,1_A,92.0,11111,ignore,1.0,5300.0,1.00964646725
92,2_39_1,39,1.0,349.665978282,2_ND,training,05,1_A,93.0,00010,kill,1.0,5400.0,1.63039184022
93,2_39_1,39,1.0,353.166156125,2_ND,training,05,1_A,94.0,01001,ignore,1.0,5500.0,1.46476362996
94,2_39_1,39,1.0,355.900671568,2_ND,training,05,1_A,95.0,10001,ignore,1.0,5600.0,0.722649553598
95,2_39_1,39,1.0,358.619543934,2_ND,training,05,1_A,96.0,10111,ignore,1.0,5700.0,0.665401938274
96,2_39_1,39,1.0,363.463541665,2_ND,training,05,1_A,97.0,10000,kill,1.0,5800.0,2.81130872448
97,2_39_1,39,1.0,366.432404009,2_ND,training,05,1_A,98.0,10110,ignore,1.0,5900.0,0.950671743969
98,2_39_1,39,1.0,370.073236113,2_ND,training,05,1_A,99.0,01000,kill,1.0,6000.0,1.61269451614
99,2_39_1,39,1.0,374.604682788,2_ND,training,05,1_A,100.0,10101,ignore,1.0,6100.0,2.52915765561
100,2_39_1,39,1.0,377.307939341,2_ND,training,05,1_A,101.0,11001,ignore,1.0,6200.0,0.663237039715
101,2_39_1,39,1.0,380.073705335,2_ND,training,05,1_A,102.0,01101,ignore,1.0,6300.0,0.729269332303
102,2_39_1,39,1.0,383.448874237,2_ND,training,05,1_A,103.0,10010,kill,1.0,6400.0,1.37737838161
103,2_39_1,39,1.0,386.714660597,2_ND,training,05,1_A,104.0,11010,kill,1.0,6500.0,1.2474475846
104,2_39_1,39,1.0,389.792931783,2_ND,training,05,1_A,105.0,00010,kill,1.0,6600.0,1.08284473444
105,2_39_1,39,1.0,392.777442014,2_ND,training,05,1_A,106.0,11000,kill,1.0,6700.0,0.988611992127
106,2_39_1,39,1.0,395.824467459,2_ND,training,05,1_A,107.0,00110,kill,1.0,6800.0,1.01830606149
107,2_39_1,39,1.0,398.652708897,2_ND,training,05,1_A,108.0,11100,ignore,1.0,6900.0,0.855779589592
108,2_39_1,39,1.0,403.700035825,2_ND,training,05,1_A,109.0,01011,ignore,1.0,7000.0,3.05196750792
109,2_39_1,39,1.0,406.293915288,2_ND,training,05,1_A,110.0,00101,ignore,1.0,7100.0,0.564413429555
110,2_39_1,39,1.0,408.82528531,2_ND,training,05,1_A,111.0,10011,ignore,1.0,7200.0,0.531859769739
111,2_39_1,39,1.0,411.434794057,2_ND,training,05,1_A,112.0,10111,ignore,1.0,7300.0,0.587568543094
112,2_39_1,39,1.0,414.528710243,2_ND,training,05,1_A,113.0,00000,kill,1.0,7400.0,1.09832231587
113,2_39_1,39,1.0,417.466339997,2_ND,training,05,1_A,114.0,00001,ignore,1.0,7500.0,0.939650967036
114,2_39_1,39,1.0,420.1071102,2_ND,training,05,1_A,115.0,01001,ignore,1.0,7600.0,0.627125569569
115,2_39_1,39,1.0,422.544734662,2_ND,training,05,1_A,116.0,01111,ignore,1.0,7700.0,0.423760451248
116,2_39_1,39,1.0,425.107335991,2_ND,training,05,1_A,117.0,11111,ignore,1.0,7800.0,0.548149428675
117,2_39_1,39,1.0,427.685556021,2_ND,training,05,1_A,118.0,11011,ignore,1.0,7900.0,0.605490375182
118,2_39_1,39,1.0,430.173221392,2_ND,training,05,1_A,119.0,00111,ignore,1.0,8000.0,0.466024402737
119,2_39_1,39,1.0,432.610847136,2_ND,training,05,1_A,120.0,11101,ignore,1.0,8100.0,0.428642217318
120,2_39_1,39,1.0,436.470384669,2_ND,training,05,1_A,121.0,11110,ignore,1.0,8200.0,1.88320997688
121,2_39_1,39,1.0,439.689321662,2_ND,training,05,1_A,122.0,10100,ignore,1.0,8300.0,1.19611383069
122,2_39_1,39,1.0,442.408204933,2_ND,training,05,1_A,123.0,00011,ignore,1.0,8400.0,0.730143630595
123,2_39_1,39,1.0,445.533345692,2_ND,training,05,1_A,124.0,01100,kill,1.0,8500.0,1.08105348133
124,2_39_1,39,1.0,448.2990825,2_ND,training,05,1_A,125.0,00100,kill,1.0,8600.0,0.72992938582
125,2_39_1,39,1.0,450.939862325,2_ND,training,05,1_A,126.0,01110,kill,1.0,8700.0,0.63402021021
126,2_39_1,39,1.0,453.908741668,2_ND,training,05,1_A,127.0,01010,kill,1.0,8800.0,0.957830983322
127,2_39_1,39,1.0,457.065147731,2_ND,training,05,1_A,128.0,10001,ignore,1.0,8900.0,1.16555893351
128,2_39_1,39,1.0,459.630896983,2_ND,training,05,1_A,129.0,01011,ignore,1.0,9000.0,0.588742719927
129,2_39_1,39,1.0,462.5997914,2_ND,training,05,1_A,130.0,00100,kill,1.0,9100.0,0.938875452263
130,2_39_1,39,1.0,465.287377294,2_ND,training,05,1_A,131.0,10011,ignore,1.0,9200.0,0.723492741496
131,2_39_1,39,1.0,468.256323027,2_ND,training,05,1_A,132.0,01010,kill,1.0,9300.0,0.981446658984
132,2_39_1,39,1.0,471.272064566,2_ND,training,05,1_A,133.0,01110,kill,1.0,9400.0,1.00363253942
133,2_39_1,39,1.0,474.100339681,2_ND,training,05,1_A,134.0,11100,ignore,1.0,9500.0,0.849804148844
134,2_39_1,39,1.0,476.803615798,2_ND,training,05,1_A,135.0,01101,ignore,1.0,9600.0,0.684818352182
135,2_39_1,39,1.0,479.322484572,2_ND,training,05,1_A,136.0,10111,ignore,1.0,9700.0,0.559844371055
136,2_39_1,39,1.0,483.713334075,2_ND,training,05,1_A,137.0,11000,kill,1.0,9800.0,2.36772966928
137,2_39_1,39,1.0,486.525958417,2_ND,training,05,1_A,138.0,11001,ignore,1.0,9900.0,0.796578113229
138,2_39_1,39,1.0,489.21360589,2_ND,training,05,1_A,139.0,10001,ignore,1.0,10000.0,0.690509309225
139,2_39_1,39,1.0,492.260640316,2_ND,training,05,1_A,140.0,00000,kill,1.0,10100.0,1.03597387881
140,2_39_1,39,1.0,495.385767925,2_ND,training,05,1_A,141.0,10110,ignore,1.0,10200.0,1.13699157357
141,2_39_1,39,1.0,498.620292508,2_ND,training,05,1_A,142.0,00111,ignore,1.0,10300.0,1.19954752016
142,2_39_1,39,1.0,501.557957542,2_ND,training,05,1_A,143.0,00110,kill,1.0,10400.0,0.916332924836
143,2_39_1,39,1.0,504.486411333,2_ND,training,05,1_A,144.0,11111,ignore,1.0,10500.0,0.94112213588
144,2_39_1,39,1.0,507.205294604,2_ND,training,05,1_A,145.0,11011,ignore,1.0,10600.0,0.717513131312
145,2_39_1,39,1.0,510.283519926,2_ND,training,05,1_A,146.0,11110,ignore,1.0,10700.0,1.09590372327
146,2_39_1,39,1.0,513.39306668,2_ND,training,05,1_A,147.0,01111,ignore,1.0,10800.0,1.1132123278
147,2_39_1,39,1.0,516.221312288,2_ND,training,05,1_A,148.0,01100,kill,1.0,10900.0,0.801443201562
148,2_39_1,39,1.0,519.049588685,2_ND,training,05,1_A,149.0,00011,ignore,1.0,11000.0,0.847802178947
149,2_39_1,39,1.0,521.690334834,2_ND,training,05,1_A,150.0,10101,ignore,1.0,11100.0,0.635420819396
150,2_39_1,39,1.0,524.377960178,2_ND,training,05,1_A,151.0,01001,ignore,1.0,11200.0,0.654504961466
151,2_39_1,39,1.0,526.971849904,2_ND,training,05,1_A,152.0,00001,ignore,1.0,11300.0,0.585782742326
152,2_39_1,39,1.0,530.06577475,2_ND,training,05,1_A,153.0,11010,kill,1.0,11400.0,1.08815338643
153,2_39_1,39,1.0,533.050291716,2_ND,training,05,1_A,154.0,00010,kill,1.0,11500.0,1.02764655642
154,2_39_1,39,1.0,535.84732526,2_ND,training,05,1_A,155.0,00101,ignore,1.0,11600.0,0.75842394102
155,2_39_1,39,1.0,539.053749139,2_ND,training,05,1_A,156.0,10010,kill,1.0,11700.0,1.21396798965
156,2_39_1,39,1.0,541.960132511,2_ND,training,05,1_A,157.0,01000,kill,1.0,11800.0,0.916011557671
157,2_39_1,39,1.0,545.007144807,2_ND,training,05,1_A,158.0,11101,ignore,1.0,11900.0,1.04432750072
158,2_39_1,39,1.0,547.726047963,2_ND,training,05,1_A,159.0,10000,kill,1.0,12000.0,0.744995796889
159,2_39_1,39,1.0,551.116837811,2_ND,training,05,1_A,160.0,10100,ignore,1.0,12100.0,1.36006432475
160,2_39_1,39,1.0,555.117025436,2_ND,training,05,1_A,161.0,10010,kill,1.0,12200.0,1.99074032795
161,2_39_1,39,1.0,557.873492629,2_ND,training,05,1_A,162.0,01100,kill,1.0,12300.0,0.780764731974
162,2_39_1,39,1.0,560.639238738,2_ND,training,05,1_A,163.0,10101,ignore,1.0,12400.0,0.755134578113
163,2_39_1,39,1.0,563.686260335,2_ND,training,05,1_A,164.0,11011,ignore,1.0,12500.0,1.09221377395
164,2_39_1,39,1.0,567.530163451,2_ND,training,05,1_A,165.0,01010,kill,1.0,12600.0,1.84711005286
165,2_39_1,39,1.0,570.327186732,2_ND,training,05,1_A,166.0,11001,ignore,1.0,12700.0,0.809901380051
166,2_39_1,39,1.0,575.014970514,2_ND,training,05,1_A,167.0,01110,kill,1.0,12800.0,2.72872281569
167,2_39_1,39,1.0,577.95258808,2_ND,training,05,1_A,168.0,11100,ignore,1.0,12900.0,0.944119959115
168,2_39_1,39,1.0,580.843384824,2_ND,training,05,1_A,169.0,11000,kill,1.0,13000.0,0.913950574244
169,2_39_1,39,1.0,583.656050859,2_ND,training,05,1_A,170.0,10100,ignore,1.0,13100.0,0.801900235701
170,2_39_1,39,1.0,586.593662332,2_ND,training,05,1_A,171.0,01101,ignore,1.0,13200.0,0.943569273066
171,2_39_1,39,1.0,590.468879824,2_ND,training,05,1_A,172.0,00100,kill,1.0,13300.0,1.88885763595
172,2_39_1,39,1.0,593.172130283,2_ND,training,05,1_A,173.0,11101,ignore,1.0,13400.0,0.714629165706
173,2_39_1,39,1.0,595.969297248,2_ND,training,05,1_A,174.0,00110,kill,1.0,13500.0,0.779145708578
174,2_39_1,39,1.0,598.891286492,2_ND,training,05,1_A,175.0,00010,kill,1.0,13600.0,0.913607077006
175,2_39_1,39,1.0,601.641423201,2_ND,training,05,1_A,176.0,10000,kill,1.0,13700.0,0.729691086615
176,2_39_1,39,1.0,604.547810422,2_ND,training,05,1_A,177.0,01000,kill,1.0,13800.0,0.914806911896
177,2_39_1,39,1.0,607.297952583,2_ND,training,05,1_A,178.0,00001,ignore,1.0,13900.0,0.714193620189
178,2_39_1,39,1.0,609.985533346,2_ND,training,05,1_A,179.0,11010,kill,1.0,14000.0,0.700065652553
179,2_39_1,39,1.0,613.560760043,2_ND,training,05,1_A,180.0,10011,ignore,1.0,14100.0,1.60647019223
180,2_39_1,39,1.0,616.310887451,2_ND,training,05,1_A,181.0,10111,ignore,1.0,14200.0,0.747559678235
181,2_39_1,39,1.0,619.107907845,2_ND,training,05,1_A,182.0,01001,ignore,1.0,14300.0,0.820763397755
182,2_39_1,39,1.0,621.686119216,2_ND,training,05,1_A,183.0,01111,ignore,1.0,14400.0,0.577039759404
183,2_39_1,39,1.0,624.217531252,2_ND,training,05,1_A,184.0,01011,ignore,1.0,14500.0,0.528377971404
184,2_39_1,39,1.0,626.983248175,2_ND,training,05,1_A,185.0,10110,ignore,1.0,14600.0,0.794006855191
185,2_39_1,39,1.0,630.561525615,2_ND,training,05,1_A,186.0,00111,ignore,1.0,14700.0,1.56784647758
186,2_39_1,39,1.0,633.061664329,2_ND,training,05,1_A,187.0,00011,ignore,1.0,14800.0,0.518784744618
187,2_39_1,39,1.0,636.077447883,2_ND,training,05,1_A,188.0,11110,ignore,1.0,14900.0,1.03251805926
188,2_39_1,39,1.0,638.749427906,2_ND,training,05,1_A,189.0,00000,kill,1.0,15000.0,0.668809328244
189,2_39_1,39,1.0,641.312057459,2_ND,training,05,1_A,190.0,10001,ignore,1.0,15100.0,0.593468292574
190,2_39_1,39,1.0,643.796588697,2_ND,training,05,1_A,191.0,11111,ignore,1.0,15200.0,0.49651066461
191,2_39_1,39,1.0,646.249795938,2_ND,training,05,1_A,192.0,00101,ignore,1.0,15300.0,0.441731675096
192,2_39_1,39,1.0,648.796864842,2_ND,training,05,1_A,193.0,10101,ignore,1.0,15400.0,0.558393728658
193,2_39_1,39,1.0,651.859494556,2_ND,training,05,1_A,194.0,10011,ignore,1.0,15500.0,1.06227563232
194,2_39_1,39,1.0,655.062768267,2_ND,training,05,1_A,195.0,10100,ignore,1.0,15600.0,1.24259564602
195,2_39_1,39,1.0,657.922283028,2_ND,training,05,1_A,196.0,11110,ignore,1.0,15700.0,0.846266223509
196,2_39_1,39,1.0,660.594277484,2_ND,training,05,1_A,197.0,00000,kill,1.0,15800.0,0.657351722891
197,2_39_1,39,1.0,663.266305936,2_ND,training,05,1_A,198.0,10010,kill,1.0,15900.0,0.68518430022
198,2_39_1,39,1.0,666.094562769,2_ND,training,05,1_A,199.0,11000,kill,1.0,16000.0,0.815452821408
199,2_39_1,39,1.0,668.954060853,2_ND,training,05,1_A,200.0,00100,kill,1.0,16100.0,0.885433888969
200,2_39_1,39,1.0,671.860464751,2_ND,training,05,1_A,201.0,11001,ignore,1.0,16200.0,0.878859332589
201,2_39_1,39,1.0,674.751213386,2_ND,training,05,1_A,202.0,01000,kill,1.0,16300.0,0.889231602131
202,2_39_1,39,1.0,677.985729309,2_ND,training,05,1_A,203.0,01110,kill,1.0,16400.0,1.27678885568
203,2_39_1,39,1.0,681.485938262,2_ND,training,05,1_A,204.0,01111,ignore,1.0,16500.0,1.51123614425
204,2_39_1,39,1.0,684.486057572,2_ND,training,05,1_A,205.0,10110,ignore,1.0,16600.0,1.03382020566
205,2_39_1,39,1.0,687.158081214,2_ND,training,05,1_A,206.0,00111,ignore,1.0,16700.0,0.686714482595
206,2_39_1,39,1.0,690.861446171,2_ND,training,05,1_A,207.0,01100,kill,1.0,16800.0,1.69706782932
207,2_39_1,39,1.0,695.189806118,2_ND,training,05,1_A,208.0,10111,ignore,1.0,16900.0,2.355227781
208,2_39_1,39,1.0,698.111786381,2_ND,training,05,1_A,209.0,00010,kill,1.0,17000.0,0.946449069238
209,2_39_1,39,1.0,701.283833275,2_ND,training,05,1_A,210.0,00101,ignore,1.0,17100.0,1.16990733272
210,2_39_1,39,1.0,703.940180164,2_ND,training,05,1_A,211.0,01011,ignore,1.0,17200.0,0.689925267701
211,2_39_1,39,1.0,707.471616576,2_ND,training,05,1_A,212.0,11111,ignore,1.0,17300.0,1.54058479202
212,2_39_1,39,1.0,710.346777621,2_ND,training,05,1_A,213.0,01001,ignore,1.0,17400.0,0.918316292641
213,2_39_1,39,1.0,713.550080197,2_ND,training,05,1_A,214.0,11010,kill,1.0,17500.0,1.24924974238
214,2_39_1,39,1.0,716.315818609,2_ND,training,05,1_A,215.0,11011,ignore,1.0,17600.0,0.781264101909
215,2_39_1,39,1.0,719.112834513,2_ND,training,05,1_A,216.0,10001,ignore,1.0,17700.0,0.812170193741
216,2_39_1,39,1.0,722.201801901,2_ND,training,05,1_A,217.0,10000,kill,1.0,17800.0,1.10612910044
217,2_39_1,39,1.0,725.108176613,2_ND,training,05,1_A,218.0,11100,ignore,1.0,17900.0,0.957476260684
218,2_39_1,39,1.0,727.858329359,2_ND,training,05,1_A,219.0,11101,ignore,1.0,18000.0,0.732151694281
219,2_39_1,39,1.0,731.077250316,2_ND,training,05,1_A,220.0,00110,kill,1.0,18100.0,1.22053581079
220,2_39_1,39,1.0,733.749258562,2_ND,training,05,1_A,221.0,01101,ignore,1.0,18200.0,0.706579271048
221,2_39_1,39,1.0,736.546414623,2_ND,training,05,1_A,222.0,00011,ignore,1.0,18300.0,0.796474839549
222,2_39_1,39,1.0,739.296524712,2_ND,training,05,1_A,223.0,00001,ignore,1.0,18400.0,0.79618297915
223,2_39_1,39,1.0,742.359181046,2_ND,training,05,1_A,224.0,01010,kill,1.0,18500.0,1.06642935102
224,2_39_1,39,1.0,745.046786184,2_ND,training,05,1_A,225.0,10101,ignore,1.0,18600.0,0.685365830973
225,2_39_1,39,1.0,748.156302148,2_ND,training,05,1_A,226.0,11100,ignore,1.0,18700.0,1.16114286117
226,2_39_1,39,1.0,752.312796411,2_ND,training,05,1_A,227.0,01001,ignore,1.0,18800.0,2.16907344587
227,2_39_1,39,1.0,755.328531856,2_ND,training,05,1_A,228.0,01110,kill,1.0,18900.0,1.07315304486
228,2_39_1,39,1.0,758.031807331,2_ND,training,05,1_A,229.0,11001,ignore,1.0,19000.0,0.733173205675
229,2_39_1,39,1.0,760.703793448,2_ND,training,05,1_A,230.0,00110,kill,1.0,19100.0,0.677673545485
230,2_39_1,39,1.0,763.828956015,2_ND,training,05,1_A,231.0,10111,ignore,1.0,19200.0,1.16270543685
231,2_39_1,39,1.0,766.875968632,2_ND,training,05,1_A,232.0,11110,ignore,1.0,19300.0,1.09087249902
232,2_39_1,39,1.0,769.860522161,2_ND,training,05,1_A,233.0,11111,ignore,1.0,19400.0,0.997681153099
233,2_39_1,39,1.0,772.813764842,2_ND,training,05,1_A,234.0,10011,ignore,1.0,19500.0,0.963962296768
234,2_39_1,39,1.0,775.860795419,2_ND,training,05,1_A,235.0,01101,ignore,1.0,19600.0,1.05879351326
235,2_39_1,39,1.0,779.829729926,2_ND,training,05,1_A,236.0,00100,kill,1.0,19700.0,2.00755437343
236,2_39_1,39,1.0,783.099667119,2_ND,training,05,1_A,237.0,10000,kill,1.0,19800.0,1.2760781275
237,2_39_1,39,1.0,787.724889181,2_ND,training,05,1_A,238.0,10001,ignore,1.0,19900.0,2.62282527922
238,2_39_1,39,1.0,791.475063736,2_ND,training,05,1_A,239.0,00011,ignore,1.0,20000.0,1.787598114
239,2_39_1,39,1.0,794.147087698,2_ND,training,05,1_A,240.0,11011,ignore,1.0,20100.0,0.698664722641
240,2_39_1,39,1.0,797.13159825,2_ND,training,05,1_A,241.0,00010,kill,1.0,20200.0,1.03042083383
241,2_39_1,39,1.0,801.053659015,2_ND,training,05,1_A,242.0,11010,kill,1.0,20300.0,1.91472448539
242,2_39_1,39,1.0,804.163160547,2_ND,training,05,1_A,243.0,00001,ignore,1.0,20400.0,1.09870911108
243,2_39_1,39,1.0,807.694597279,2_ND,training,05,1_A,244.0,01000,kill,1.0,20500.0,1.56546701352
244,2_39_1,39,1.0,810.600985783,2_ND,training,05,1_A,245.0,01111,ignore,1.0,20600.0,0.916478213584
245,2_39_1,39,1.0,813.773007339,2_ND,training,05,1_A,246.0,00000,kill,1.0,20700.0,1.22259294551
246,2_39_1,39,1.0,816.491890931,2_ND,training,05,1_A,247.0,10010,kill,1.0,20800.0,0.748753098611
247,2_39_1,39,1.0,819.179526538,2_ND,training,05,1_A,248.0,11101,ignore,1.0,20900.0,0.701067278954
248,2_39_1,39,1.0,821.992131636,2_ND,training,05,1_A,249.0,10110,ignore,1.0,21000.0,0.856855945084
249,2_39_1,39,1.0,825.554866387,2_ND,training,05,1_A,250.0,00101,ignore,1.0,21100.0,1.58132818291
250,2_39_1,39,1.0,828.33623697,2_ND,training,05,1_A,251.0,01011,ignore,1.0,21200.0,0.811634902526
251,2_39_1,39,1.0,831.617654539,2_ND,training,05,1_A,252.0,10100,ignore,1.0,21300.0,1.30654995672
252,2_39_1,39,1.0,835.430321537,2_ND,training,05,1_A,253.0,01010,kill,1.0,21400.0,1.82002572862
253,2_39_1,39,1.0,838.368015115,2_ND,training,05,1_A,254.0,11000,kill,1.0,21500.0,0.986131820193
254,2_39_1,39,1.0,841.196193371,2_ND,training,05,1_A,255.0,00111,ignore,1.0,21600.0,0.865771157713
255,2_39_1,39,1.0,962.233322824,2_ND,test,05,2,0.0,01100,kill,0.0,0.0,15.3422903472
256,2_39_1,39,1.0,968.67111727,2_ND,test,05,2,1.0,01001,kill,0.0,0.0,4.45195192065
257,2_39_1,39,1.0,975.499596687,2_ND,test,05,2,2.0,10111,ignore,0.0,0.0,4.82033426675
258,2_39_1,39,1.0,983.500006254,2_ND,test,05,2,3.0,01111,ignore,0.0,0.0,6.05600416174
259,2_39_1,39,1.0,986.218877659,2_ND,test,05,2,4.0,11101,ignore,1.0,100.0,0.710698672099
260,2_39_1,39,1.0,988.97151667,2_ND,test,05,2,5.0,10000,ignore,1.0,200.0,0.769201287137
261,2_39_1,39,1.0,991.656062406,2_ND,test,05,2,6.0,11110,kill,1.0,300.0,0.746155861792
262,2_39_1,39,1.0,994.39055187,2_ND,test,05,2,7.0,00110,kill,1.0,400.0,0.755409440048
263,2_39_1,39,1.0,998.734484012,2_ND,test,05,2,8.0,01011,kill,0.0,300.0,2.41454728443
264,2_39_1,39,1.0,1007.82867153,2_ND,test,05,2,9.0,00010,ignore,1.0,400.0,7.0814983279
265,2_39_1,39,1.0,1010.86008405,2_ND,test,05,2,10.0,10100,kill,1.0,500.0,1.03932931122
266,2_39_1,39,1.0,1013.62582695,2_ND,test,05,2,11.0,01010,ignore,1.0,600.0,0.821489520768
267,2_39_1,39,1.0,1016.59476467,2_ND,test,05,2,12.0,00000,ignore,1.0,700.0,0.995360381843
268,2_39_1,39,1.0,1019.29801929,2_ND,test,05,2,13.0,00100,ignore,0.0,600.0,0.772167999977
269,2_39_1,39,1.0,1031.81422669,2_ND,test,05,2,14.0,10010,ignore,1.0,700.0,10.5150771554
270,2_39_1,39,1.0,1035.20503417,2_ND,test,05,2,15.0,00101,kill,1.0,800.0,1.40469234546
271,2_39_1,39,1.0,1040.75215888,2_ND,test,05,2,16.0,00111,kill,1.0,900.0,3.61279778981
272,2_39_1,39,1.0,1046.12742657,2_ND,test,05,2,17.0,11001,ignore,1.0,1000.0,3.41795050497
273,2_39_1,39,1.0,1067.81648973,2_ND,test,05,2,18.0,11111,ignore,0.0,900.0,19.645405973
274,2_39_1,39,1.0,1075.81684926,2_ND,test,05,2,19.0,00001,ignore,1.0,1000.0,6.04966950819
275,2_39_1,39,1.0,1079.83267098,2_ND,test,05,2,20.0,11010,kill,0.0,900.0,2.05920115564
276,2_39_1,39,1.0,1085.2391982,2_ND,test,05,2,21.0,10110,ignore,0.0,800.0,3.49728970737
277,2_39_1,39,1.0,1106.63083701,2_ND,test,05,2,22.0,01000,kill,0.0,700.0,19.3843814275
278,2_39_1,39,1.0,1118.67833103,2_ND,test,05,2,23.0,01101,ignore,1.0,800.0,10.0813690754
279,2_39_1,39,1.0,1147.53908508,2_ND,test,05,2,24.0,00011,ignore,1.0,900.0,26.9026549354
280,2_39_1,39,1.0,1157.2270629,2_ND,test,05,2,25.0,11000,kill,0.0,800.0,7.73298782621
281,2_39_1,39,1.0,1163.83672463,2_ND,test,05,2,26.0,11011,ignore,1.0,900.0,4.70839137132
282,2_39_1,39,1.0,1182.24390164,2_ND,test,05,2,27.0,01100,ignore,1.0,1000.0,16.418457893
283,2_39_1,39,1.0,1189.86927124,2_ND,test,05,2,28.0,11100,kill,0.0,900.0,5.66936065574
284,2_39_1,39,1.0,1200.55728626,2_ND,test,05,2,29.0,10001,ignore,1.0,1000.0,8.75902273593
285,2_39_1,39,1.0,1203.8386647,2_ND,test,05,2,30.0,10101,ignore,0.0,900.0,1.29787336402
286,2_39_1,39,1.0,1211.99533857,2_ND,test,05,2,31.0,01110,kill,1.0,1000.0,6.25484544388
287,2_39_1,39,1.0,1245.45011801,2_ND,test,05,2,32.0,10011,,,900.0,
288,2_39_1,39,1.0,1252.32858606,2_ND,test,05,2,33.0,11101,kill,0.0,800.0,4.93076654407
289,2_39_1,39,1.0,1259.76647704,2_ND,test,05,2,34.0,01111,kill,1.0,900.0,5.53247235585
290,2_39_1,39,1.0,1263.64162654,2_ND,test,05,2,35.0,11010,ignore,1.0,1000.0,1.9649119656
291,2_39_1,39,1.0,1268.79936297,2_ND,test,05,2,36.0,00001,kill,0.0,900.0,3.17130088594
292,2_39_1,39,1.0,1273.31518967,2_ND,test,05,2,37.0,01001,ignore,1.0,1000.0,2.59521432335
293,2_39_1,39,1.0,1280.51868981,2_ND,test,05,2,38.0,00101,kill,1.0,1100.0,5.22529730472
294,2_39_1,39,1.0,1289.9097651,2_ND,test,05,2,39.0,01100,kill,0.0,1000.0,7.47797688786
295,2_39_1,39,1.0,1296.80071547,2_ND,test,05,2,40.0,01000,ignore,1.0,1100.0,4.97420787965
296,2_39_1,39,1.0,1303.44167876,2_ND,test,05,2,41.0,01011,kill,0.0,1000.0,4.68409928513
297,2_39_1,39,1.0,1307.59810695,2_ND,test,05,2,42.0,10001,ignore,1.0,1100.0,2.24658611534
298,2_39_1,39,1.0,1310.25450098,2_ND,test,05,2,43.0,01110,ignore,0.0,1000.0,0.707753768607
299,2_39_1,39,1.0,1313.7390287,2_ND,test,05,2,44.0,10101,ignore,0.0,900.0,1.57694835258
300,2_39_1,39,1.0,1318.25485603,2_ND,test,05,2,45.0,11111,kill,1.0,1000.0,2.54406723181
301,2_39_1,39,1.0,1325.27084196,2_ND,test,05,2,46.0,01010,kill,0.0,900.0,5.0651044331
302,2_39_1,39,1.0,1330.27108924,2_ND,test,05,2,47.0,11110,kill,1.0,1000.0,3.08440795156
303,2_39_1,39,1.0,1334.97444009,2_ND,test,05,2,48.0,10111,kill,1.0,1100.0,2.74230875687
304,2_39_1,39,1.0,1340.63101693,2_ND,test,05,2,49.0,10100,kill,1.0,1200.0,3.74443997923
305,2_39_1,39,1.0,1348.31885107,2_ND,test,05,2,50.0,11000,kill,0.0,1100.0,5.70303300685
306,2_39_1,39,1.0,1353.0847136,2_ND,test,05,2,51.0,11001,ignore,1.0,1200.0,2.80601418442
307,2_39_1,39,1.0,1360.50694451,2_ND,test,05,2,52.0,00011,ignore,1.0,1300.0,5.50923962669
308,2_39_1,39,1.0,1369.0386343,2_ND,test,05,2,53.0,11100,kill,0.0,1200.0,6.57322921721
309,2_39_1,39,1.0,1372.58563296,2_ND,test,05,3,0.0,10010,ignore,0.0,1100.0,1.65958301167
310,2_39_1,39,1.0,1376.80460588,2_ND,test,05,3,1.0,11011,ignore,0.0,1000.0,2.28913647488
311,2_39_1,39,1.0,1390.83656972,2_ND,test,05,3,2.0,10110,kill,1.0,1100.0,12.0597544075
312,2_39_1,39,1.0,1397.85250049,2_ND,test,05,3,3.0,00010,ignore,1.0,1200.0,5.13002573182
313,2_39_1,39,1.0,1407.35295416,2_ND,test,05,3,4.0,01101,ignore,1.0,1300.0,7.5709264066
314,2_39_1,39,1.0,1413.60326358,2_ND,test,05,3,5.0,10011,kill,1.0,1400.0,4.28581985029
315,2_39_1,39,1.0,1418.49413858,2_ND,test,05,3,6.0,00100,ignore,1.0,1500.0,2.93553605614
316,2_39_1,39,1.0,1437.6669565,2_ND,test,05,3,7.0,00111,kill,0.0,1400.0,17.2062920612
317,2_39_1,39,1.0,1444.32354136,2_ND,test,05,3,8.0,00110,ignore,1.0,1500.0,4.73860758215
318,2_39_1,39,1.0,1448.55808487,2_ND,test,05,3,9.0,10000,kill,1.0,1600.0,2.21506551304
319,2_39_1,39,1.0,1457.17100742,2_ND,test,05,3,10.0,00000,ignore,1.0,1700.0,6.66019367343
320,2_39_1,39,1.0,1464.34325188,2_ND,test,05,3,11.0,00011,ignore,1.0,1800.0,5.25535539777
321,2_39_1,39,1.0,1470.54666703,2_ND,test,05,3,12.0,00010,ignore,1.0,1900.0,4.26511411902
322,2_39_1,39,1.0,1480.75366726,2_ND,test,05,3,13.0,01010,ignore,1.0,2000.0,8.31865061712
323,2_39_1,39,1.0,1508.06747043,2_ND,test,05,3,14.0,10010,kill,1.0,2100.0,25.3221449238
324,2_39_1,39,1.0,1511.92705479,2_ND,test,05,3,15.0,11101,kill,0.0,2000.0,1.90515916174
325,2_39_1,39,1.0,1516.16502557,2_ND,test,05,3,16.0,00000,ignore,1.0,2100.0,2.32514627498
326,2_39_1,39,1.0,1525.88426067,2_ND,test,05,3,17.0,01111,ignore,1.0,2200.0,7.75893870579
327,2_39_1,39,1.0,1535.60348199,2_ND,test,05,3,18.0,00100,ignore,1.0,2300.0,7.80423640179
328,2_39_1,39,1.0,1543.11945461,2_ND,test,05,3,19.0,11000,kill,1.0,2400.0,5.60784674699
329,2_39_1,39,1.0,1566.68311145,2_ND,test,05,3,20.0,01011,ignore,1.0,2500.0,21.6034544084
330,2_39_1,39,1.0,1572.69903195,2_ND,test,05,3,21.0,11110,kill,1.0,2600.0,4.1413489531
331,2_39_1,39,1.0,1599.23155659,2_ND,test,05,3,22.0,10100,kill,1.0,2700.0,24.6219112109
332,2_39_1,39,1.0,1607.04443815,2_ND,test,05,3,23.0,11001,ignore,0.0,2600.0,5.85848459025
333,2_39_1,39,1.0,1615.65423876,2_ND,test,05,3,24.0,01110,ignore,1.0,2700.0,6.6851977707
334,2_39_1,39,1.0,1621.27950636,2_ND,test,05,3,25.0,10000,kill,1.0,2800.0,3.65986877828
335,2_39_1,39,1.0,1625.92036701,2_ND,test,05,3,26.0,01100,ignore,1.0,2900.0,2.77804914737
336,2_39_1,39,1.0,1629.27990759,2_ND,test,05,3,27.0,10001,kill,1.0,3000.0,1.367954498
337,2_39_1,39,1.0,1632.48317521,2_ND,test,05,3,28.0,10111,kill,0.0,2900.0,1.24854607016
338,2_39_1,39,1.0,1645.20252097,2_ND,test,05,3,29.0,11010,ignore,0.0,2800.0,10.8319320292
339,2_39_1,39,1.0,1649.68713367,2_ND,test,05,3,30.0,11100,kill,1.0,2900.0,2.52697126843
340,2_39_1,39,1.0,1663.18778234,2_ND,test,05,3,31.0,10011,ignore,0.0,2800.0,11.6105341077
341,2_39_1,39,1.0,1674.75080254,2_ND,test,05,3,32.0,11111,kill,0.0,2700.0,9.60059385573
342,2_39_1,39,1.0,1680.92303609,2_ND,test,05,3,33.0,00101,ignore,1.0,2800.0,4.20132401989
343,2_39_1,39,1.0,1685.98577838,2_ND,test,05,3,34.0,00110,kill,0.0,2700.0,3.15127573463
344,2_39_1,39,1.0,1702.87725538,2_ND,test,05,3,35.0,00111,ignore,1.0,2800.0,14.9272616535
345,2_39_1,39,1.0,1711.674567,2_ND,test,05,3,36.0,11011,kill,1.0,2900.0,6.92089107866
346,2_39_1,39,1.0,1716.11223668,2_ND,test,05,3,37.0,01000,ignore,1.0,3000.0,2.47035195477
347,2_39_1,39,1.0,1722.69070944,2_ND,test,05,3,38.0,01001,ignore,1.0,3100.0,4.64280200094
348,2_39_1,39,1.0,1729.55680646,2_ND,test,05,3,39.0,10101,kill,0.0,3000.0,4.95932075426
349,2_39_1,39,1.0,1733.72887003,2_ND,test,05,3,40.0,00001,ignore,1.0,3100.0,2.22961266918
350,2_39_1,39,1.0,1750.13595499,2_ND,test,05,3,41.0,10110,kill,1.0,3200.0,14.5099076983
351,2_39_1,39,1.0,1776.69971317,2_ND,test,05,3,42.0,01101,ignore,1.0,3300.0,24.6390790169
352,2_39_1,39,1.0,1781.04376687,2_ND,test,05,3,43.0,01000,ignore,1.0,3400.0,2.38670540606
353,2_39_1,39,1.0,1792.45054201,2_ND,test,05,3,44.0,11010,kill,1.0,3500.0,9.53239666458
354,2_39_1,39,1.0,1812.48278649,2_ND,test,05,4,0.0,01101,ignore,1.0,3600.0,18.1213760801
355,2_39_1,39,1.0,1818.04553151,2_ND,test,05,4,1.0,10010,kill,1.0,3700.0,3.63078954011
356,2_39_1,39,1.0,1821.81137896,2_ND,test,05,4,2.0,00001,ignore,1.0,3800.0,1.82024285992
357,2_39_1,39,1.0,1824.79588727,2_ND,test,05,4,3.0,10111,kill,1.0,3900.0,1.04246568796
358,2_39_1,39,1.0,1839.65596907,2_ND,test,05,4,4.0,01010,kill,1.0,4000.0,12.9873723872
359,2_39_1,39,1.0,1845.14062508,2_ND,test,05,4,5.0,10001,kill,0.0,3900.0,3.50526423148
360,2_39_1,39,1.0,1860.09444955,2_ND,test,05,4,6.0,01100,kill,0.0,3800.0,13.0182999677
361,2_39_1,39,1.0,1864.37590272,2_ND,test,05,4,7.0,11100,kill,0.0,3700.0,2.38713357488
362,2_39_1,39,1.0,1870.43870402,2_ND,test,05,4,8.0,01001,ignore,1.0,3800.0,4.1300802552
363,2_39_1,39,1.0,1885.68944065,2_ND,test,05,4,9.0,00100,kill,0.0,3700.0,13.3569908102
364,2_39_1,39,1.0,1889.58027716,2_ND,test,05,4,10.0,10110,kill,1.0,3800.0,1.90693758581
365,2_39_1,39,1.0,1906.61232215,2_ND,test,05,4,11.0,10100,kill,0.0,3700.0,15.0856748181
366,2_39_1,39,1.0,1928.16024836,2_ND,test,05,4,12.0,11101,kill,0.0,3600.0,19.6402397232
367,2_39_1,39,1.0,1932.31671857,2_ND,test,05,4,13.0,00000,ignore,1.0,3700.0,2.183099102
368,2_39_1,39,1.0,1942.73908739,2_ND,test,05,4,14.0,00011,ignore,0.0,3600.0,8.54544154148
369,2_39_1,39,1.0,1953.72399115,2_ND,test,05,4,15.0,00101,ignore,1.0,3700.0,9.06184361479
370,2_39_1,39,1.0,1957.69293015,2_ND,test,05,4,16.0,11000,ignore,1.0,3800.0,2.04529833745
371,2_39_1,39,1.0,1977.74080648,2_ND,test,05,4,17.0,01111,kill,1.0,3900.0,18.18201986
372,2_39_1,39,1.0,1989.49135949,2_ND,test,05,4,18.0,01011,ignore,0.0,3800.0,9.85949359334
373,2_39_1,39,1.0,1998.14797835,2_ND,test,05,4,19.0,11110,ignore,1.0,3900.0,6.72241606528
374,2_39_1,39,1.0,2003.28888054,2_ND,test,05,4,20.0,00010,kill,1.0,4000.0,3.22594484993
375,2_39_1,39,1.0,2008.96103247,2_ND,test,05,4,21.0,11001,kill,0.0,3900.0,3.72717659703
376,2_39_1,39,1.0,2018.55535197,2_ND,test,05,4,22.0,11111,kill,0.0,3800.0,7.70660460838
377,2_39_1,39,1.0,2027.7745619,2_ND,test,05,4,23.0,10101,kill,0.0,3700.0,7.24683275341
378,2_39_1,39,1.0,2035.66566557,2_ND,test,05,4,24.0,01110,kill,1.0,3800.0,5.95284273632
379,2_39_1,39,1.0,2041.00035184,2_ND,test,05,4,25.0,11011,ignore,1.0,3900.0,3.48085860839
380,2_39_1,39,1.0,2044.25051885,2_ND,test,05,4,26.0,00111,ignore,0.0,3800.0,1.28375277307
381,2_39_1,39,1.0,2056.56359847,2_ND,test,05,4,27.0,00110,ignore,0.0,3700.0,10.4509765938
382,2_39_1,39,1.0,2067.90786897,2_ND,test,05,4,28.0,10011,ignore,0.0,3600.0,9.36790125753
383,2_39_1,39,1.0,2071.31528203,2_ND,test,05,4,29.0,10000,ignore,1.0,3700.0,1.45887735096
384,2_39_1,39,1.0,2074.58106262,2_ND,test,05,4,30.0,01001,ignore,1.0,3800.0,1.37014120591
385,2_39_1,39,1.0,2093.51947815,2_ND,test,05,4,31.0,00110,kill,1.0,3900.0,16.9947054599
386,2_39_1,39,1.0,2097.37901344,2_ND,test,05,4,32.0,00100,kill,0.0,3800.0,1.97613736554
387,2_39_1,39,1.0,2100.61354059,2_ND,test,05,4,33.0,00000,ignore,1.0,3900.0,1.3382437509
388,2_39_1,39,1.0,2106.08255223,2_ND,test,05,4,34.0,00111,kill,1.0,4000.0,3.52416267336
389,2_39_1,39,1.0,2109.06734502,2_ND,test,05,4,35.0,10011,ignore,0.0,3900.0,1.11185982747
390,2_39_1,39,1.0,2112.70820567,2_ND,test,05,4,36.0,01000,ignore,1.0,4000.0,1.69998162242
391,2_39_1,39,1.0,2117.63027606,2_ND,test,05,4,37.0,01010,ignore,0.0,3900.0,3.06693834273
392,2_39_1,39,1.0,2121.021089,2_ND,test,05,4,38.0,01111,kill,1.0,4000.0,1.4637450051
393,2_39_1,39,1.0,2138.6781588,2_ND,test,05,4,39.0,01100,ignore,1.0,4100.0,15.7081075291
394,2_39_1,39,1.0,2141.53768768,2_ND,test,05,4,40.0,00011,kill,1.0,4200.0,0.990922820885
395,2_39_1,39,1.0,2144.83474576,2_ND,test,05,4,41.0,11100,kill,0.0,4100.0,1.42570084181
396,2_39_1,39,1.0,2148.03798098,2_ND,test,05,4,42.0,00101,kill,0.0,4000.0,1.25624348726
397,2_39_1,39,1.0,2154.75708074,2_ND,test,05,4,43.0,10010,kill,1.0,4100.0,4.81521708801
398,2_39_1,39,1.0,2157.99161206,2_ND,test,05,4,44.0,11010,kill,0.0,4000.0,1.30019926689
399,2_39_1,39,1.0,2165.50756993,2_ND,test,05,4,45.0,01101,ignore,1.0,4100.0,5.64270963194
400,2_39_1,39,1.0,2170.74221767,2_ND,test,05,4,46.0,01011,kill,1.0,4200.0,3.27664966072
