,unique_id,pair_id,sbj_id,wall_time,condition,block,rule_id,rule_num,trial,stimulus,choice,correct,points,reaction_time
0,1_11_1,11,1.0,96.5422330091,1_I,training,01,1_A,1.0,11101,kill,0.0,0.0,10.4382713591
1,1_11_1,11,1.0,104.673470234,1_I,training,01,1_A,2.0,11100,ignore,1.0,100.0,5.95895403672
2,1_11_1,11,1.0,112.736325573,1_I,training,01,1_A,3.0,00011,kill,1.0,200.0,5.83512851008
3,1_11_1,11,1.0,116.377108223,1_I,training,01,1_A,4.0,11001,ignore,1.0,300.0,1.51325291609
4,1_11_1,11,1.0,121.346121462,1_I,training,01,1_A,5.0,00110,ignore,0.0,200.0,2.82306510299
5,1_11_1,11,1.0,124.643165773,1_I,training,01,1_A,6.0,11010,ignore,1.0,300.0,1.16956507281
6,1_11_1,11,1.0,128.940273306,1_I,training,01,1_A,7.0,10001,ignore,1.0,400.0,2.1342435318
7,1_11_1,11,1.0,133.002967307,1_I,training,01,1_A,8.0,01111,kill,1.0,500.0,1.92695449979
8,1_11_1,11,1.0,137.190707338,1_I,training,01,1_A,9.0,01000,kill,0.0,400.0,2.03781345461
9,1_11_1,11,1.0,140.425215292,1_I,training,01,1_A,10.0,11011,ignore,1.0,500.0,1.08459615605
10,1_11_1,11,1.0,143.925524215,1_I,training,01,1_A,11.0,00101,kill,0.0,400.0,1.34017371142
11,1_11_1,11,1.0,147.550592209,1_I,training,01,1_A,12.0,01001,ignore,1.0,500.0,1.48149394941
12,1_11_1,11,1.0,151.206998788,1_I,training,01,1_A,13.0,01011,ignore,0.0,400.0,1.50653460209
13,1_11_1,11,1.0,156.62915933,1_I,training,01,1_A,14.0,00000,ignore,1.0,500.0,3.25661578428
14,1_11_1,11,1.0,160.25429383,1_I,training,01,1_A,15.0,11111,ignore,0.0,400.0,1.46837712382
15,1_11_1,11,1.0,164.363909702,1_I,training,01,1_A,16.0,10100,ignore,1.0,500.0,1.98258328924
16,1_11_1,11,1.0,169.786048897,1_I,training,01,1_A,17.0,10110,ignore,0.0,400.0,3.29300921762
17,1_11_1,11,1.0,173.14557866,1_I,training,01,1_A,18.0,00111,ignore,0.0,300.0,1.24423380636
18,1_11_1,11,1.0,176.020722704,1_I,training,01,1_A,19.0,01110,ignore,0.0,200.0,0.741077040362
19,1_11_1,11,1.0,179.286492884,1_I,training,01,1_A,20.0,01100,ignore,1.0,300.0,1.14702290221
20,1_11_1,11,1.0,184.911798985,1_I,training,01,1_A,21.0,10010,kill,0.0,200.0,3.47591321244
21,1_11_1,11,1.0,189.365136774,1_I,training,01,1_A,22.0,00100,kill,0.0,100.0,2.29934614979
22,1_11_1,11,1.0,192.255916653,1_I,training,01,1_A,23.0,01101,ignore,1.0,200.0,0.772237044615
23,1_11_1,11,1.0,196.818635901,1_I,training,01,1_A,24.0,10011,ignore,1.0,300.0,2.42891046723
24,1_11_1,11,1.0,202.068889711,1_I,training,01,1_A,25.0,11110,kill,1.0,400.0,3.11706739128
25,1_11_1,11,1.0,206.647228783,1_I,training,01,1_A,26.0,00001,kill,0.0,300.0,2.46575589346
26,1_11_1,11,1.0,211.850631333,1_I,training,01,1_A,27.0,11000,kill,0.0,200.0,3.07217353571
27,1_11_1,11,1.0,215.585188345,1_I,training,01,1_A,28.0,01010,ignore,0.0,100.0,1.60381775942
28,1_11_1,11,1.0,224.570036114,1_I,training,01,1_A,29.0,00010,ignore,0.0,0.0,6.84743495059
29,1_11_1,11,1.0,227.476418164,1_I,training,01,1_A,30.0,10111,ignore,0.0,0.0,0.762262821758
30,1_11_1,11,1.0,231.132856763,1_I,training,01,1_A,31.0,10000,kill,0.0,0.0,1.5215772212
31,1_11_1,11,1.0,234.023653884,1_I,training,01,1_A,32.0,10101,ignore,1.0,100.0,0.717425208723
32,1_11_1,11,1.0,237.601943282,1_I,training,01,1_A,33.0,11000,ignore,1.0,200.0,1.44487267225
33,1_11_1,11,1.0,242.836532931,1_I,training,01,1_A,34.0,11010,ignore,1.0,300.0,3.10929401666
34,1_11_1,11,1.0,247.399247253,1_I,training,01,1_A,35.0,00110,ignore,0.0,200.0,2.41949292227
35,1_11_1,11,1.0,252.665209971,1_I,training,01,1_A,36.0,10001,kill,0.0,100.0,3.14262531103
36,1_11_1,11,1.0,255.571563284,1_I,training,01,1_A,37.0,00011,ignore,0.0,0.0,0.750976136335
37,1_11_1,11,1.0,259.259252615,1_I,training,01,1_A,38.0,00100,ignore,1.0,100.0,1.53459962502
38,1_11_1,11,1.0,262.024993852,1_I,training,01,1_A,39.0,11100,ignore,1.0,200.0,0.639765768333
39,1_11_1,11,1.0,264.993927859,1_I,training,01,1_A,40.0,10010,ignore,1.0,300.0,0.834520516003
40,1_11_1,11,1.0,268.009674126,1_I,training,01,1_A,41.0,11001,ignore,1.0,400.0,0.90316349868
41,1_11_1,11,1.0,273.978714049,1_I,training,01,1_A,42.0,11011,ignore,1.0,500.0,3.84365192195
42,1_11_1,11,1.0,279.697781786,1_I,training,01,1_A,43.0,00101,kill,0.0,400.0,3.56901800131
43,1_11_1,11,1.0,282.572872873,1_I,training,01,1_A,44.0,10111,ignore,0.0,300.0,0.740813891002
44,1_11_1,11,1.0,288.651355835,1_I,training,01,1_A,45.0,01111,ignore,0.0,200.0,3.95965111568
45,1_11_1,11,1.0,292.151543652,1_I,training,01,1_A,46.0,10101,kill,0.0,100.0,1.37547718914
46,1_11_1,11,1.0,294.886017327,1_I,training,01,1_A,47.0,01110,ignore,0.0,0.0,0.59960080119
47,1_11_1,11,1.0,297.917419954,1_I,training,01,1_A,48.0,01000,ignore,1.0,100.0,0.898636180204
48,1_11_1,11,1.0,300.651914976,1_I,training,01,1_A,49.0,00000,ignore,1.0,200.0,0.599741202252
49,1_11_1,11,1.0,305.511531156,1_I,training,01,1_A,50.0,01010,kill,1.0,300.0,2.73942917526
50,1_11_1,11,1.0,308.308594557,1_I,training,01,1_A,51.0,10110,ignore,0.0,200.0,0.668353395222
51,1_11_1,11,1.0,311.699338924,1_I,training,01,1_A,52.0,00010,kill,1.0,300.0,1.26236360673
52,1_11_1,11,1.0,318.090295947,1_I,training,01,1_A,53.0,00001,kill,0.0,200.0,4.26383001783
53,1_11_1,11,1.0,321.184224257,1_I,training,01,1_A,54.0,11111,ignore,0.0,100.0,0.965573413129
54,1_11_1,11,1.0,324.168737856,1_I,training,01,1_A,55.0,01001,kill,0.0,0.0,0.826910121562
55,1_11_1,11,1.0,327.059465597,1_I,training,01,1_A,56.0,11101,ignore,1.0,100.0,0.732387774598
56,1_11_1,11,1.0,331.465941453,1_I,training,01,1_A,57.0,01011,kill,1.0,200.0,2.24732550344
57,1_11_1,11,1.0,336.794384286,1_I,training,01,1_A,58.0,00111,kill,1.0,300.0,3.18912433664
58,1_11_1,11,1.0,345.404143638,1_I,training,01,1_A,59.0,01100,kill,0.0,200.0,6.47641282675
59,1_11_1,11,1.0,349.232456538,1_I,training,01,1_A,60.0,10011,ignore,1.0,300.0,1.69689134805
60,1_11_1,11,1.0,353.357655286,1_I,training,01,1_A,61.0,10100,ignore,1.0,400.0,1.9724908339
61,1_11_1,11,1.0,357.279722843,1_I,training,01,1_A,62.0,11110,ignore,0.0,300.0,1.76517183325
62,1_11_1,11,1.0,360.795562916,1_I,training,01,1_A,63.0,10000,ignore,1.0,400.0,1.38263189592
63,1_11_1,11,1.0,363.811323961,1_I,training,01,1_A,64.0,01101,ignore,1.0,500.0,0.890832015875
64,1_11_1,11,1.0,367.436490482,1_I,training,01,1_A,65.0,11101,ignore,1.0,600.0,1.50552346812
65,1_11_1,11,1.0,373.171154643,1_I,training,01,1_A,66.0,01011,kill,1.0,700.0,3.57055625505
66,1_11_1,11,1.0,377.671369144,1_I,training,01,1_A,67.0,00001,kill,0.0,600.0,2.36512568974
67,1_11_1,11,1.0,380.484017063,1_I,training,01,1_A,68.0,00000,ignore,1.0,700.0,0.677008587043
68,1_11_1,11,1.0,384.156083287,1_I,training,01,1_A,69.0,10010,ignore,1.0,800.0,1.52831688274
69,1_11_1,11,1.0,391.953335531,1_I,training,01,1_A,70.0,11000,ignore,1.0,900.0,5.61745020997
70,1_11_1,11,1.0,397.109852747,1_I,training,01,1_A,71.0,11111,ignore,0.0,800.0,3.01690765428
71,1_11_1,11,1.0,399.969342894,1_I,training,01,1_A,72.0,01001,ignore,1.0,900.0,0.737933206041
72,1_11_1,11,1.0,404.407064965,1_I,training,01,1_A,73.0,01111,kill,1.0,1000.0,2.28294180458
73,1_11_1,11,1.0,408.157252885,1_I,training,01,1_A,74.0,10110,ignore,0.0,900.0,1.59697300236
74,1_11_1,11,1.0,411.173056626,1_I,training,01,1_A,75.0,10000,ignore,1.0,1000.0,0.879986649583
75,1_11_1,11,1.0,415.235742005,1_I,training,01,1_A,76.0,00111,kill,1.0,1100.0,1.91901280811
76,1_11_1,11,1.0,419.189057831,1_I,training,01,1_A,77.0,01010,kill,1.0,1200.0,1.84462241351
77,1_11_1,11,1.0,423.439290293,1_I,training,01,1_A,78.0,10001,kill,0.0,1100.0,2.09875244214
78,1_11_1,11,1.0,426.501918609,1_I,training,01,1_A,79.0,10111,ignore,0.0,1000.0,0.92443097543
79,1_11_1,11,1.0,429.298968052,1_I,training,01,1_A,80.0,10100,ignore,1.0,1100.0,0.658049517238
80,1_11_1,11,1.0,432.861618742,1_I,training,01,1_A,81.0,00110,kill,1.0,1200.0,1.42215027922
81,1_11_1,11,1.0,435.783628415,1_I,training,01,1_A,82.0,11100,ignore,1.0,1300.0,0.809385441558
82,1_11_1,11,1.0,439.643228584,1_I,training,01,1_A,83.0,11011,kill,0.0,1200.0,1.71780412738
83,1_11_1,11,1.0,442.627710572,1_I,training,01,1_A,84.0,01100,ignore,1.0,1300.0,0.824880874625
84,1_11_1,11,1.0,445.627891615,1_I,training,01,1_A,85.0,10101,ignore,1.0,1400.0,0.857412868208
85,1_11_1,11,1.0,449.424906984,1_I,training,01,1_A,86.0,11001,ignore,1.0,1500.0,1.64775795514
86,1_11_1,11,1.0,454.831470282,1_I,training,01,1_A,87.0,11010,ignore,1.0,1600.0,3.28600106984
87,1_11_1,11,1.0,460.878633134,1_I,training,01,1_A,88.0,10011,kill,0.0,1500.0,3.90428547559
88,1_11_1,11,1.0,464.644436772,1_I,training,01,1_A,89.0,01110,kill,1.0,1600.0,1.64024157193
89,1_11_1,11,1.0,467.519597238,1_I,training,01,1_A,90.0,01000,ignore,1.0,1700.0,0.725150140874
90,1_11_1,11,1.0,471.097863646,1_I,training,01,1_A,91.0,00101,ignore,1.0,1800.0,1.43745399505
91,1_11_1,11,1.0,474.160546152,1_I,training,01,1_A,92.0,01101,ignore,1.0,1900.0,0.943264833762
92,1_11_1,11,1.0,477.504455271,1_I,training,01,1_A,93.0,00010,kill,1.0,2000.0,1.2028003033
93,1_11_1,11,1.0,483.004715751,1_I,training,01,1_A,94.0,00011,kill,1.0,2100.0,3.36288091486
94,1_11_1,11,1.0,486.223607987,1_I,training,01,1_A,95.0,11110,ignore,0.0,2000.0,1.09895442261
95,1_11_1,11,1.0,489.708155044,1_I,training,01,1_A,96.0,00100,ignore,1.0,2100.0,1.31791973247
96,1_11_1,11,1.0,494.989684217,1_I,training,01,1_A,97.0,00100,kill,0.0,2000.0,3.11936471393
97,1_11_1,11,1.0,498.489928687,1_I,training,01,1_A,98.0,01110,kill,1.0,2100.0,1.41356241422
98,1_11_1,11,1.0,501.505667974,1_I,training,01,1_A,99.0,10100,ignore,1.0,2200.0,0.879660689221
99,1_11_1,11,1.0,504.568331186,1_I,training,01,1_A,100.0,11101,ignore,1.0,2300.0,0.947218642634
100,1_11_1,11,1.0,508.130957654,1_I,training,01,1_A,101.0,11010,ignore,1.0,2400.0,1.44028870071
101,1_11_1,11,1.0,511.787420475,1_I,training,01,1_A,102.0,10111,ignore,0.0,2300.0,1.51200203294
102,1_11_1,11,1.0,514.709430559,1_I,training,01,1_A,103.0,01001,ignore,1.0,2400.0,0.784977004194
103,1_11_1,11,1.0,518.287737199,1_I,training,01,1_A,104.0,01111,kill,1.0,2500.0,1.44331389203
104,1_11_1,11,1.0,521.178484235,1_I,training,01,1_A,105.0,10101,ignore,1.0,2600.0,0.754797344203
105,1_11_1,11,1.0,525.913138132,1_I,training,01,1_A,106.0,00111,kill,1.0,2700.0,2.58613009924
106,1_11_1,11,1.0,528.882029033,1_I,training,01,1_A,107.0,11100,ignore,1.0,2800.0,0.844681119219
107,1_11_1,11,1.0,532.366555974,1_I,training,01,1_A,108.0,01100,ignore,1.0,2900.0,1.33782219889
108,1_11_1,11,1.0,535.351120478,1_I,training,01,1_A,109.0,11001,ignore,1.0,3000.0,0.878965252379
109,1_11_1,11,1.0,539.210641005,1_I,training,01,1_A,110.0,10011,ignore,1.0,3100.0,1.74518356618
110,1_11_1,11,1.0,542.41392368,1_I,training,01,1_A,111.0,11111,ignore,0.0,3000.0,1.0517172651
111,1_11_1,11,1.0,545.492198504,1_I,training,01,1_A,112.0,10000,ignore,1.0,3100.0,0.940562729102
112,1_11_1,11,1.0,548.757999063,1_I,training,01,1_A,113.0,11011,kill,0.0,3000.0,1.16092014423
113,1_11_1,11,1.0,552.086315043,1_I,training,01,1_A,114.0,01010,kill,1.0,3100.0,1.20831987139
114,1_11_1,11,1.0,554.945817506,1_I,training,01,1_A,115.0,00001,ignore,1.0,3200.0,0.727155577104
115,1_11_1,11,1.0,558.242835954,1_I,training,01,1_A,116.0,10001,ignore,1.0,3300.0,1.15280561965
116,1_11_1,11,1.0,561.9618027,1_I,training,01,1_A,117.0,00011,ignore,0.0,3200.0,1.58123207269
117,1_11_1,11,1.0,565.696322354,1_I,training,01,1_A,118.0,01011,kill,1.0,3300.0,1.60768330447
118,1_11_1,11,1.0,568.571472967,1_I,training,01,1_A,119.0,01000,ignore,1.0,3400.0,0.737439339147
119,1_11_1,11,1.0,573.696761621,1_I,training,01,1_A,120.0,00010,kill,1.0,3500.0,3.00800532375
120,1_11_1,11,1.0,576.946878724,1_I,training,01,1_A,121.0,01101,ignore,1.0,3600.0,1.12483994484
121,1_11_1,11,1.0,580.790831154,1_I,training,01,1_A,122.0,11110,ignore,0.0,3500.0,1.72171975702
122,1_11_1,11,1.0,583.931666557,1_I,training,01,1_A,123.0,00101,ignore,1.0,3600.0,1.00100579709
123,1_11_1,11,1.0,587.806815527,1_I,training,01,1_A,124.0,10010,ignore,1.0,3700.0,1.73821688187
124,1_11_1,11,1.0,592.260208738,1_I,training,01,1_A,125.0,00110,kill,1.0,3800.0,2.30423842892
125,1_11_1,11,1.0,595.463442971,1_I,training,01,1_A,126.0,11000,ignore,1.0,3900.0,1.0695851477
126,1_11_1,11,1.0,599.432413104,1_I,training,01,1_A,127.0,10110,kill,1.0,4000.0,1.84777076365
127,1_11_1,11,1.0,602.401265005,1_I,training,01,1_A,128.0,00000,ignore,1.0,4100.0,0.843145739176
128,1_11_1,11,1.0,607.792164964,1_I,training,01,1_A,129.0,00101,ignore,1.0,4200.0,3.21553451547
129,1_11_1,11,1.0,611.448638869,1_I,training,01,1_A,130.0,01111,kill,1.0,4300.0,1.52925453194
130,1_11_1,11,1.0,614.745637201,1_I,training,01,1_A,131.0,01101,ignore,1.0,4400.0,1.17005976077
131,1_11_1,11,1.0,618.605195907,1_I,training,01,1_A,132.0,11010,ignore,1.0,4500.0,1.69660274587
132,1_11_1,11,1.0,625.230536082,1_I,training,01,1_A,133.0,00000,ignore,1.0,4600.0,4.50172196566
133,1_11_1,11,1.0,630.764910326,1_I,training,01,1_A,134.0,01001,ignore,1.0,4700.0,3.38689811768
134,1_11_1,11,1.0,635.015096809,1_I,training,01,1_A,135.0,00111,kill,1.0,4800.0,2.10657302764
135,1_11_1,11,1.0,639.859087007,1_I,training,01,1_A,136.0,10110,kill,1.0,4900.0,2.63240415472
136,1_11_1,11,1.0,646.018832216,1_I,training,01,1_A,137.0,10111,kill,1.0,5000.0,4.03770014849
137,1_11_1,11,1.0,649.740882039,1_I,training,01,1_A,138.0,01010,kill,1.0,5100.0,1.64639212375
138,1_11_1,11,1.0,653.41296961,1_I,training,01,1_A,139.0,01011,kill,1.0,5200.0,1.56673217348
139,1_11_1,11,1.0,658.069402873,1_I,training,01,1_A,140.0,11011,ignore,1.0,5300.0,2.5137804464
140,1_11_1,11,1.0,661.679031266,1_I,training,01,1_A,141.0,10000,ignore,1.0,5400.0,1.47527114442
141,1_11_1,11,1.0,666.241729577,1_I,training,01,1_A,142.0,11110,kill,1.0,5500.0,2.43185478425
142,1_11_1,11,1.0,671.085700891,1_I,training,01,1_A,143.0,00010,kill,1.0,5600.0,2.72449945174
143,1_11_1,11,1.0,674.789036319,1_I,training,01,1_A,144.0,10101,ignore,1.0,5700.0,1.56113214162
144,1_11_1,11,1.0,679.179869772,1_I,training,01,1_A,145.0,00011,kill,1.0,5800.0,2.23972783541
145,1_11_1,11,1.0,682.711310373,1_I,training,01,1_A,146.0,01110,kill,1.0,5900.0,1.41805730087
146,1_11_1,11,1.0,689.883571393,1_I,training,01,1_A,147.0,00100,ignore,1.0,6000.0,5.0131964683
147,1_11_1,11,1.0,692.899319712,1_I,training,01,1_A,148.0,10001,ignore,1.0,6100.0,0.865131642417
148,1_11_1,11,1.0,695.758816838,1_I,training,01,1_A,149.0,11000,ignore,1.0,6200.0,0.716819267294
149,1_11_1,11,1.0,699.977766548,1_I,training,01,1_A,150.0,00001,ignore,1.0,6300.0,2.06370020843
150,1_11_1,11,1.0,703.431065747,1_I,training,01,1_A,151.0,11111,kill,1.0,6400.0,1.35304134565
151,1_11_1,11,1.0,707.243743224,1_I,training,01,1_A,152.0,01000,ignore,1.0,6500.0,1.65182630172
152,1_11_1,11,1.0,713.619102591,1_I,training,01,1_A,153.0,01100,ignore,1.0,6600.0,4.22094693538
153,1_11_1,11,1.0,720.791326663,1_I,training,01,1_A,154.0,10010,ignore,1.0,6700.0,5.02619177718
154,1_11_1,11,1.0,725.307158114,1_I,training,01,1_A,155.0,11100,ignore,1.0,6800.0,2.29582175469
155,1_11_1,11,1.0,729.385499444,1_I,training,01,1_A,156.0,10011,ignore,1.0,6900.0,1.96222102986
156,1_11_1,11,1.0,732.71377396,1_I,training,01,1_A,157.0,10100,ignore,1.0,7000.0,1.14704137603
157,1_11_1,11,1.0,737.167105591,1_I,training,01,1_A,158.0,11101,ignore,1.0,7100.0,2.32502435466
158,1_11_1,11,1.0,741.854873333,1_I,training,01,1_A,159.0,00110,kill,1.0,7200.0,2.54645037787
159,1_11_1,11,1.0,745.136283863,1_I,training,01,1_A,160.0,11001,ignore,1.0,7300.0,1.14004472308
160,1_11_1,11,1.0,748.823927625,1_I,training,01,1_A,161.0,01001,ignore,1.0,7400.0,1.55508258005
161,1_11_1,11,1.0,751.980351651,1_I,training,01,1_A,162.0,10101,ignore,1.0,7500.0,0.99974382964
162,1_11_1,11,1.0,754.996115571,1_I,training,01,1_A,163.0,11000,ignore,1.0,7600.0,0.888791684643
163,1_11_1,11,1.0,758.527553298,1_I,training,01,1_A,164.0,00111,kill,1.0,7700.0,1.39916350525
164,1_11_1,11,1.0,762.543414102,1_I,training,01,1_A,165.0,01010,kill,1.0,7800.0,1.90142285393
165,1_11_1,11,1.0,765.59041849,1_I,training,01,1_A,166.0,11001,ignore,1.0,7900.0,0.913774863202
166,1_11_1,11,1.0,768.778095299,1_I,training,01,1_A,167.0,10110,kill,1.0,8000.0,1.07858928953
167,1_11_1,11,1.0,776.919104767,1_I,training,01,1_A,168.0,10010,ignore,1.0,8100.0,6.01067828082
168,1_11_1,11,1.0,780.278667372,1_I,training,01,1_A,169.0,01011,kill,1.0,8200.0,1.22974334932
169,1_11_1,11,1.0,783.153769132,1_I,training,01,1_A,170.0,10001,ignore,1.0,8300.0,0.697348677828
170,1_11_1,11,1.0,787.044608127,1_I,training,01,1_A,171.0,10111,kill,1.0,8400.0,1.73380245899
171,1_11_1,11,1.0,790.34159948,1_I,training,01,1_A,172.0,01000,ignore,1.0,8500.0,1.16917712251
172,1_11_1,11,1.0,793.669933934,1_I,training,01,1_A,173.0,00000,ignore,1.0,8600.0,1.18351609419
173,1_11_1,11,1.0,796.779494794,1_I,training,01,1_A,174.0,00001,ignore,1.0,8700.0,0.980236292526
174,1_11_1,11,1.0,800.592125471,1_I,training,01,1_A,175.0,10100,ignore,1.0,8800.0,1.64768077561
175,1_11_1,11,1.0,804.998639505,1_I,training,01,1_A,176.0,00110,kill,1.0,8900.0,2.26685151438
176,1_11_1,11,1.0,809.717569305,1_I,training,01,1_A,177.0,00010,kill,1.0,9000.0,2.59160820385
177,1_11_1,11,1.0,812.85837556,1_I,training,01,1_A,178.0,11110,kill,1.0,9100.0,1.00708327466
178,1_11_1,11,1.0,816.421072639,1_I,training,01,1_A,179.0,01111,kill,1.0,9200.0,1.43436311902
179,1_11_1,11,1.0,820.140014344,1_I,training,01,1_A,180.0,01100,ignore,1.0,9300.0,1.57760176101
180,1_11_1,11,1.0,822.843251245,1_I,training,01,1_A,181.0,00101,ignore,1.0,9400.0,0.555118296106
181,1_11_1,11,1.0,825.608992893,1_I,training,01,1_A,182.0,10000,ignore,1.0,9500.0,0.663058386726
182,1_11_1,11,1.0,828.921663597,1_I,training,01,1_A,183.0,00100,ignore,1.0,9600.0,1.18506296906
183,1_11_1,11,1.0,832.609373454,1_I,training,01,1_A,184.0,00011,ignore,0.0,9500.0,1.53936053474
184,1_11_1,11,1.0,837.406450403,1_I,training,01,1_A,185.0,11111,kill,1.0,9600.0,2.66094580232
185,1_11_1,11,1.0,844.688092471,1_I,training,01,1_A,186.0,11010,ignore,1.0,9700.0,5.15525524872
186,1_11_1,11,1.0,973.036573656,1_I,test,01,2,0.0,11011,ignore,0.0,0.0,3.27305502449
187,1_11_1,11,1.0,978.368127891,1_I,test,01,2,1.0,01110,kill,0.0,0.0,3.22123389544
188,1_11_1,11,1.0,983.618402638,1_I,test,01,2,2.0,11100,ignore,1.0,100.0,3.13133616243
189,1_11_1,11,1.0,987.524836414,1_I,test,01,2,3.0,10011,ignore,0.0,0.0,1.75577727793
190,1_11_1,11,1.0,990.384324098,1_I,test,01,2,4.0,11101,ignore,0.0,0.0,0.716063482629
191,1_11_1,11,1.0,995.618996674,1_I,test,01,2,5.0,01101,ignore,1.0,100.0,3.11930970299
192,1_11_1,11,1.0,1009.77592729,1_I,test,01,2,6.0,00011,kill,0.0,0.0,11.9922459203
193,1_11_1,11,1.0,1014.21368549,1_I,test,01,2,7.0,10010,ignore,0.0,0.0,2.28294878358
194,1_11_1,11,1.0,1020.24522975,1_I,test,01,2,8.0,11010,ignore,1.0,100.0,3.91758129201
195,1_11_1,11,1.0,1023.7297842,1_I,test,01,2,9.0,01101,ignore,1.0,200.0,1.34020326954
196,1_11_1,11,1.0,1027.57366725,1_I,test,01,2,10.0,00101,ignore,1.0,300.0,1.72359792913
197,1_11_1,11,1.0,1032.73021156,1_I,test,01,2,11.0,01110,kill,0.0,200.0,3.0031421922
198,1_11_1,11,1.0,1035.8709784,1_I,test,01,2,12.0,00000,ignore,1.0,300.0,1.01055347987
199,1_11_1,11,1.0,1039.4180261,1_I,test,01,2,13.0,01010,ignore,1.0,400.0,1.42997538055
200,1_11_1,11,1.0,1044.1213993,1_I,test,01,2,14.0,00111,ignore,1.0,500.0,2.56916332872
201,1_11_1,11,1.0,1047.24654714,1_I,test,01,2,15.0,10000,ignore,0.0,400.0,1.00545388338
202,1_11_1,11,1.0,1051.04356702,1_I,test,01,2,16.0,11011,ignore,0.0,300.0,1.51017066119
203,1_11_1,11,1.0,1054.04375751,1_I,test,01,2,17.0,01100,ignore,1.0,400.0,0.722332677444
204,1_11_1,11,1.0,1056.96581973,1_I,test,01,2,18.0,10101,ignore,0.0,300.0,0.766102503449
205,1_11_1,11,1.0,1059.87218084,1_I,test,01,2,19.0,01001,ignore,1.0,400.0,0.772877059984
206,1_11_1,11,1.0,1063.32548497,1_I,test,01,2,20.0,00010,ignore,1.0,500.0,1.29791914951
207,1_11_1,11,1.0,1067.57568541,1_I,test,01,2,21.0,01000,ignore,1.0,600.0,2.13044490305
208,1_11_1,11,1.0,1071.99779997,1_I,test,01,2,22.0,10011,ignore,0.0,500.0,2.2802212261
209,1_11_1,11,1.0,1075.16981919,1_I,test,01,2,23.0,11111,ignore,0.0,400.0,1.06357294431
210,1_11_1,11,1.0,1077.8418226,1_I,test,01,2,24.0,00001,ignore,1.0,500.0,0.497750093498
211,1_11_1,11,1.0,1081.12320275,1_I,test,01,2,25.0,10100,ignore,0.0,400.0,1.16213818502
212,1_11_1,11,1.0,1086.21724971,1_I,test,01,2,26.0,11100,ignore,1.0,500.0,2.97450365967
213,1_11_1,11,1.0,1090.15492888,1_I,test,01,2,27.0,00100,ignore,1.0,600.0,1.79711964346
214,1_11_1,11,1.0,1095.90523544,1_I,test,01,2,28.0,11110,kill,0.0,500.0,3.63714289585
215,1_11_1,11,1.0,1099.01473513,1_I,test,01,2,29.0,11000,ignore,1.0,600.0,0.949902273471
216,1_11_1,11,1.0,1102.10862814,1_I,test,01,2,30.0,00110,ignore,1.0,700.0,0.957046717018
217,1_11_1,11,1.0,1106.03071951,1_I,test,01,2,31.0,01111,ignore,1.0,800.0,1.79362152225
218,1_11_1,11,1.0,1112.2810349,1_I,test,01,2,32.0,01011,kill,0.0,700.0,4.10667032312
219,1_11_1,11,1.0,1117.04690997,1_I,test,01,2,33.0,10111,kill,1.0,800.0,2.61937928772
220,1_11_1,11,1.0,1120.18762714,1_I,test,01,2,34.0,10001,ignore,0.0,700.0,1.01627913373
221,1_11_1,11,1.0,1123.75035829,1_I,test,01,2,35.0,11001,ignore,0.0,600.0,1.43112650505
222,1_11_1,11,1.0,1127.34425602,1_I,test,01,2,36.0,10110,ignore,0.0,500.0,1.46821455417
223,1_11_1,11,1.0,1130.15691173,1_I,test,01,2,37.0,11101,ignore,0.0,400.0,0.694159685272
224,1_11_1,11,1.0,1133.03203115,1_I,test,01,2,38.0,10001,ignore,0.0,300.0,0.725886220129
225,1_11_1,11,1.0,1136.45410137,1_I,test,01,2,39.0,01001,kill,0.0,200.0,1.27605065769
226,1_11_1,11,1.0,1139.28238677,1_I,test,01,2,40.0,11100,ignore,1.0,300.0,0.696415954981
227,1_11_1,11,1.0,1143.81387212,1_I,test,01,2,41.0,01011,ignore,1.0,400.0,2.43976486517
228,1_11_1,11,1.0,1149.68912865,1_I,test,01,2,42.0,10110,ignore,0.0,300.0,3.78126089186
229,1_11_1,11,1.0,1155.34569492,1_I,test,01,2,43.0,11111,ignore,0.0,200.0,3.52691040893
230,1_11_1,11,1.0,1158.08014602,1_I,test,01,2,44.0,11101,ignore,0.0,100.0,0.609615255929
231,1_11_1,11,1.0,1162.23663244,1_I,test,01,2,45.0,11110,kill,0.0,0.0,2.02782281057
232,1_11_1,11,1.0,1165.37741571,1_I,test,01,2,46.0,00010,ignore,1.0,100.0,1.00780046956
233,1_11_1,11,1.0,1168.31505752,1_I,test,01,2,47.0,11010,ignore,1.0,200.0,0.77426013361
234,1_11_1,11,1.0,1171.26837006,1_I,test,01,2,48.0,10100,ignore,0.0,100.0,0.795610537305
235,1_11_1,11,1.0,1174.17471927,1_I,test,01,2,49.0,11000,ignore,1.0,200.0,0.786060801871
236,1_11_1,11,1.0,1182.65949704,1_I,test,01,2,50.0,01101,ignore,1.0,300.0,6.33188224867
237,1_11_1,11,1.0,1186.3472106,1_I,test,01,2,51.0,01100,ignore,1.0,400.0,1.57248410122
238,1_11_1,11,1.0,1190.64431033,1_I,test,01,2,52.0,11011,ignore,0.0,300.0,2.13813781391
239,1_11_1,11,1.0,1193.67568668,1_I,test,01,2,53.0,01111,ignore,1.0,400.0,0.914636564459
240,1_11_1,11,1.0,1198.01964342,1_I,test,01,2,54.0,10010,ignore,0.0,300.0,2.19763091681
241,1_11_1,11,1.0,1200.86355849,1_I,test,01,2,55.0,00011,ignore,1.0,400.0,0.704231203603
242,1_11_1,11,1.0,1204.23870972,1_I,test,01,2,56.0,00101,ignore,1.0,500.0,1.25614285439
243,1_11_1,11,1.0,1209.12958402,1_I,test,01,2,57.0,00000,ignore,1.0,600.0,2.75328372222
244,1_11_1,11,1.0,1212.83288127,1_I,test,01,2,58.0,10101,ignore,0.0,500.0,1.53952392545
245,1_11_1,11,1.0,1216.77059493,1_I,test,01,2,59.0,00111,ignore,1.0,600.0,1.81384009633
246,1_11_1,11,1.0,1219.94260142,1_I,test,01,2,60.0,10111,kill,1.0,700.0,1.04862474696
247,1_11_1,11,1.0,1223.25529716,1_I,test,01,2,61.0,01110,ignore,1.0,800.0,1.17873588959
248,1_11_1,11,1.0,1226.89607735,1_I,test,01,2,62.0,00100,ignore,1.0,900.0,1.49153632015
249,1_11_1,11,1.0,1230.70878521,1_I,test,01,2,63.0,00110,ignore,1.0,1000.0,1.67519158382
250,1_11_1,11,1.0,1236.22466305,1_I,test,01,2,64.0,01000,ignore,1.0,1100.0,3.38731439452
251,1_11_1,11,1.0,1239.81861496,1_I,test,01,2,65.0,01010,ignore,1.0,1200.0,1.44407049776
252,1_11_1,11,1.0,1243.64693525,1_I,test,01,2,66.0,11001,kill,1.0,1300.0,1.69444089793
253,1_11_1,11,1.0,1247.22524066,1_I,test,01,2,67.0,10011,kill,1.0,1400.0,1.45463875669
254,1_11_1,11,1.0,1253.39739453,1_I,test,01,2,68.0,10000,ignore,0.0,1300.0,4.03208656916
255,1_11_1,11,1.0,1257.36638478,1_I,test,01,2,69.0,00001,kill,0.0,1200.0,1.84762872047
256,1_11_1,11,1.0,1260.66340939,1_I,test,01,2,70.0,10111,kill,1.0,1300.0,1.14018963996
257,1_11_1,11,1.0,1263.83544298,1_I,test,01,2,71.0,01110,ignore,1.0,1400.0,1.03412197404
258,1_11_1,11,1.0,1266.89807088,1_I,test,01,2,72.0,01010,ignore,1.0,1500.0,0.955097933847
259,1_11_1,11,1.0,1270.14824094,1_I,test,01,2,73.0,10010,kill,1.0,1600.0,1.11152401248
260,1_11_1,11,1.0,1273.3984147,1_I,test,01,2,74.0,01111,ignore,1.0,1700.0,1.1573674226
261,1_11_1,11,1.0,1276.52356706,1_I,test,01,2,75.0,00010,ignore,1.0,1800.0,0.991615347068
262,1_11_1,11,1.0,1280.24250219,1_I,test,01,2,76.0,00110,ignore,1.0,1900.0,1.57093476318
263,1_11_1,11,1.0,1283.66451536,1_I,test,01,2,77.0,11000,kill,0.0,1800.0,1.31523199634
264,1_11_1,11,1.0,1286.91469404,1_I,test,01,2,78.0,00011,ignore,1.0,1900.0,1.1184545702
265,1_11_1,11,1.0,1290.30548439,1_I,test,01,2,79.0,00001,ignore,1.0,2000.0,1.2226034216
266,1_11_1,11,1.0,1294.96197594,1_I,test,01,2,80.0,11010,kill,0.0,1900.0,2.48859610843
267,1_11_1,11,1.0,1299.8372337,1_I,test,01,2,81.0,10011,ignore,0.0,1800.0,2.71820973045
268,1_11_1,11,1.0,1303.46238052,1_I,test,01,2,82.0,10110,kill,1.0,1900.0,1.51014192413
269,1_11_1,11,1.0,1306.49377617,1_I,test,01,2,83.0,01100,ignore,1.0,2000.0,0.894967689283
270,1_11_1,11,1.0,1310.93149249,1_I,test,01,2,84.0,11110,kill,0.0,1900.0,2.31222856308
271,1_11_1,11,1.0,1314.74423565,1_I,test,01,2,85.0,11111,kill,1.0,2000.0,1.69683182128
272,1_11_1,11,1.0,1318.51001918,1_I,test,01,2,86.0,11001,ignore,0.0,1900.0,1.60756137723
273,1_11_1,11,1.0,1322.30710557,1_I,test,01,2,87.0,11101,kill,1.0,2000.0,1.66977218491
274,1_11_1,11,1.0,1325.66662096,1_I,test,01,2,88.0,10101,kill,1.0,2100.0,1.19672159413
275,1_11_1,11,1.0,1328.83865414,1_I,test,01,2,89.0,00101,ignore,1.0,2200.0,1.02676118149
276,1_11_1,11,1.0,1332.30759738,1_I,test,01,2,90.0,11011,kill,1.0,2300.0,1.30523806807
277,1_11_1,11,1.0,1335.79211201,1_I,test,01,2,91.0,01101,ignore,1.0,2400.0,1.37359737491
278,1_11_1,11,1.0,1339.02670987,1_I,test,01,2,92.0,01000,ignore,1.0,2500.0,1.13800644449
279,1_11_1,11,1.0,1345.51137351,1_I,test,01,2,93.0,11100,ignore,1.0,2600.0,4.34769337886
280,1_11_1,11,1.0,1348.60526775,1_I,test,01,2,94.0,01001,ignore,1.0,2700.0,0.95712266496
281,1_11_1,11,1.0,1351.66792809,1_I,test,01,2,95.0,01011,ignore,1.0,2800.0,0.952445913776
282,1_11_1,11,1.0,1354.65242609,1_I,test,01,2,96.0,00100,ignore,1.0,2900.0,0.796450069975
283,1_11_1,11,1.0,1357.51196919,1_I,test,01,3,0.0,00111,ignore,1.0,3000.0,0.760860453251
284,1_11_1,11,1.0,1363.49661785,1_I,test,01,3,1.0,10100,ignore,1.0,3100.0,3.84809467137
285,1_11_1,11,1.0,1366.57489021,1_I,test,01,3,2.0,00000,ignore,0.0,3000.0,0.931448975914
286,1_11_1,11,1.0,1370.68450691,1_I,test,01,3,3.0,10000,kill,0.0,2900.0,1.98286532295
287,1_11_1,11,1.0,1374.40342644,1_I,test,01,3,4.0,10001,ignore,1.0,3000.0,1.59670615823
288,1_11_1,11,1.0,1377.91920083,1_I,test,01,3,5.0,10011,kill,1.0,3100.0,1.36481204526
289,1_11_1,11,1.0,1380.95060058,1_I,test,01,3,6.0,00101,ignore,1.0,3200.0,0.912980899298
290,1_11_1,11,1.0,1385.99775769,1_I,test,01,3,7.0,10111,kill,0.0,3100.0,2.86758414519
291,1_11_1,11,1.0,1390.45108193,1_I,test,01,3,8.0,11010,ignore,0.0,3000.0,2.36510926856
292,1_11_1,11,1.0,1393.34182486,1_I,test,01,3,9.0,01100,ignore,1.0,3100.0,0.713263261434
293,1_11_1,11,1.0,1396.84203854,1_I,test,01,3,10.0,00110,ignore,1.0,3200.0,1.34859325935
294,1_11_1,11,1.0,1401.77978134,1_I,test,01,3,11.0,10001,ignore,1.0,3300.0,2.78916194113
295,1_11_1,11,1.0,1405.29561485,1_I,test,01,3,12.0,11111,ignore,1.0,3400.0,1.39159539534
296,1_11_1,11,1.0,1408.09259122,1_I,test,01,3,13.0,00111,ignore,1.0,3500.0,0.6937052292
297,1_11_1,11,1.0,1411.40524386,1_I,test,01,3,14.0,00001,ignore,0.0,3400.0,1.14803690988
298,1_11_1,11,1.0,1414.63979492,1_I,test,01,3,15.0,11110,kill,0.0,3300.0,1.12177575323
299,1_11_1,11,1.0,1417.7024647,1_I,test,01,3,16.0,01001,ignore,0.0,3200.0,0.935042750481
300,1_11_1,11,1.0,1421.4526444,1_I,test,01,3,17.0,10101,ignore,1.0,3300.0,1.59911801859
301,1_11_1,11,1.0,1425.39030305,1_I,test,01,3,18.0,10000,ignore,1.0,3400.0,1.82017087056
302,1_11_1,11,1.0,1428.71860055,1_I,test,01,3,19.0,00100,ignore,1.0,3500.0,1.19218934931
303,1_11_1,11,1.0,1431.62502817,1_I,test,01,3,20.0,01010,ignore,0.0,3400.0,0.769215958591
304,1_11_1,11,1.0,1434.43762806,1_I,test,01,3,21.0,00010,ignore,0.0,3300.0,0.724616452622
305,1_11_1,11,1.0,1437.26594014,1_I,test,01,3,22.0,01011,ignore,0.0,3200.0,0.724444851325
306,1_11_1,11,1.0,1439.96916719,1_I,test,01,3,23.0,01000,ignore,0.0,3100.0,0.56722891408
307,1_11_1,11,1.0,1443.01621468,1_I,test,01,3,24.0,01101,ignore,1.0,3200.0,0.919141714347
308,1_11_1,11,1.0,1449.45400736,1_I,test,01,3,25.0,10110,ignore,1.0,3300.0,4.29454336607
309,1_11_1,11,1.0,1453.71987484,1_I,test,01,3,26.0,11001,kill,0.0,3200.0,2.17388096864
310,1_11_1,11,1.0,1456.62626346,1_I,test,01,3,27.0,11000,ignore,1.0,3300.0,0.733033947909
311,1_11_1,11,1.0,1460.17332183,1_I,test,01,3,28.0,10010,ignore,0.0,3200.0,1.3934156828
312,1_11_1,11,1.0,1463.25157941,1_I,test,01,3,29.0,11101,ignore,1.0,3300.0,0.956196100053
313,1_11_1,11,1.0,1466.25175429,1_I,test,01,3,30.0,00011,ignore,0.0,3200.0,0.851385064692
314,1_11_1,11,1.0,1468.89249918,1_I,test,01,3,31.0,11011,ignore,0.0,3100.0,0.537995934937
315,1_11_1,11,1.0,1471.7988763,1_I,test,01,3,32.0,11100,ignore,1.0,3200.0,0.732436627599
316,1_11_1,11,1.0,1475.61157759,1_I,test,01,3,33.0,01111,ignore,1.0,3300.0,1.67198617009
317,1_11_1,11,1.0,1478.7679622,1_I,test,01,3,34.0,00000,ignore,0.0,3200.0,1.01458446828
318,1_11_1,11,1.0,1481.69001334,1_I,test,01,3,35.0,10100,ignore,1.0,3300.0,0.774686263152
319,1_11_1,11,1.0,1484.70576084,1_I,test,01,3,36.0,01110,ignore,1.0,3400.0,0.945921780189
320,1_11_1,11,1.0,1487.62779678,1_I,test,01,3,37.0,00110,ignore,1.0,3500.0,0.809321398969
321,1_11_1,11,1.0,1490.5966922,1_I,test,01,3,38.0,00101,ignore,1.0,3600.0,0.824437913378
322,1_11_1,11,1.0,1493.69058603,1_I,test,01,3,39.0,11100,ignore,1.0,3700.0,0.983094398367
323,1_11_1,11,1.0,1496.78449258,1_I,test,01,3,40.0,01101,ignore,1.0,3800.0,0.991636284069
324,1_11_1,11,1.0,1500.14402398,1_I,test,01,3,41.0,00010,kill,1.0,3900.0,1.23202096656
325,1_11_1,11,1.0,1502.90980258,1_I,test,01,3,42.0,11011,kill,1.0,4000.0,0.641855773623
326,1_11_1,11,1.0,1505.64431033,1_I,test,01,3,43.0,01010,kill,1.0,4100.0,0.601876365779
327,1_11_1,11,1.0,1508.8319465,1_I,test,01,3,44.0,10000,kill,0.0,4000.0,1.08849413292
328,1_11_1,11,1.0,1513.01969392,1_I,test,01,3,45.0,11110,ignore,1.0,4100.0,2.08686268899
329,1_11_1,11,1.0,1516.3792048,1_I,test,01,3,46.0,10100,ignore,1.0,4200.0,1.17173923664
330,1_11_1,11,1.0,1520.06691096,1_I,test,01,3,47.0,10111,ignore,1.0,4300.0,1.54045213247
331,1_11_1,11,1.0,1522.7233003,1_I,test,01,3,48.0,00111,ignore,1.0,4400.0,0.490595386716
332,1_11_1,11,1.0,1525.73907201,1_I,test,01,3,49.0,11101,ignore,1.0,4500.0,0.899409207108
333,1_11_1,11,1.0,1528.6923279,1_I,test,01,3,50.0,10110,ignore,1.0,4600.0,0.826422412607
334,1_11_1,11,1.0,1532.39566949,1_I,test,01,3,51.0,00000,kill,1.0,4700.0,1.56037019901
335,1_11_1,11,1.0,1536.05211548,1_I,test,01,3,52.0,11010,kill,1.0,4800.0,1.56136532233
336,1_11_1,11,1.0,1539.9428777,1_I,test,01,3,53.0,00011,kill,1.0,4900.0,1.73832074582
337,1_11_1,11,1.0,1542.67739448,1_I,test,01,3,54.0,10010,kill,1.0,5000.0,0.639915201044
338,1_11_1,11,1.0,1545.78695247,1_I,test,01,4,0.0,11111,ignore,1.0,5100.0,0.978983767256
339,1_11_1,11,1.0,1550.86535128,1_I,test,01,4,1.0,10001,kill,1.0,5200.0,2.93544301667
340,1_11_1,11,1.0,1553.9592217,1_I,test,01,4,2.0,01100,ignore,1.0,5300.0,0.97432220566
341,1_11_1,11,1.0,1557.13125241,1_I,test,01,4,3.0,00001,kill,1.0,5400.0,1.01023285639
342,1_11_1,11,1.0,1561.70960585,1_I,test,01,4,4.0,01001,kill,0.0,5300.0,2.47798967026
343,1_11_1,11,1.0,1564.81914947,1_I,test,01,4,5.0,01000,ignore,1.0,5400.0,0.967843230308
344,1_11_1,11,1.0,1567.39736292,1_I,test,01,4,6.0,11001,ignore,1.0,5500.0,0.439605169222
345,1_11_1,11,1.0,1570.06937947,1_I,test,01,4,7.0,11000,ignore,1.0,5600.0,0.517194819611
346,1_11_1,11,1.0,1573.03829911,1_I,test,01,4,8.0,01011,ignore,1.0,5700.0,0.86468088111
347,1_11_1,11,1.0,1576.22593405,1_I,test,01,4,9.0,00100,kill,1.0,5800.0,1.07496226208
348,1_11_1,11,1.0,1578.8667479,1_I,test,01,4,10.0,10101,kill,1.0,5900.0,0.524702992227
349,1_11_1,11,1.0,1581.61684878,1_I,test,01,4,11.0,01111,kill,0.0,5800.0,0.671357239009
350,1_11_1,11,1.0,1584.91385779,1_I,test,01,4,12.0,10011,ignore,0.0,5700.0,1.25144886096
351,1_11_1,11,1.0,1588.17969612,1_I,test,01,4,13.0,01110,ignore,1.0,5800.0,1.13110380277
352,1_11_1,11,1.0,1590.75791244,1_I,test,01,4,14.0,10111,ignore,0.0,5700.0,0.4668224489
353,1_11_1,11,1.0,1593.46116002,1_I,test,01,4,15.0,00111,ignore,0.0,5600.0,0.650925189635
354,1_11_1,11,1.0,1596.14879269,1_I,test,01,4,16.0,00011,ignore,0.0,5500.0,0.588904867607
355,1_11_1,11,1.0,1599.33643215,1_I,test,01,4,17.0,01010,kill,0.0,5400.0,1.17538022209
356,1_11_1,11,1.0,1602.88351884,1_I,test,01,4,18.0,10100,ignore,0.0,5300.0,1.38442508844
357,1_11_1,11,1.0,1605.74302459,1_I,test,01,4,19.0,11000,ignore,1.0,5400.0,0.760444176414
358,1_11_1,11,1.0,1608.66506136,1_I,test,01,4,20.0,01011,ignore,1.0,5500.0,0.859444578324
359,1_11_1,11,1.0,1611.36829087,1_I,test,01,4,21.0,00001,ignore,0.0,5400.0,0.60725430122
360,1_11_1,11,1.0,1614.25906747,1_I,test,01,4,22.0,11010,ignore,1.0,5500.0,0.864808145232
361,1_11_1,11,1.0,1617.54049811,1_I,test,01,4,23.0,01101,kill,0.0,5400.0,1.16917999621
362,1_11_1,11,1.0,1620.97820992,1_I,test,01,4,24.0,11111,ignore,1.0,5500.0,1.34138969957
363,1_11_1,11,1.0,1623.83768241,1_I,test,01,4,25.0,11110,ignore,1.0,5600.0,0.831908727814
364,1_11_1,11,1.0,1626.74406734,1_I,test,01,4,26.0,00101,ignore,0.0,5500.0,0.846787135159
365,1_11_1,11,1.0,1629.96298133,1_I,test,01,4,27.0,00110,ignore,0.0,5400.0,1.11367847089
366,1_11_1,11,1.0,1633.57254691,1_I,test,01,4,28.0,11100,kill,0.0,5300.0,1.52858495845
367,1_11_1,11,1.0,1636.43207975,1_I,test,01,4,29.0,10001,ignore,0.0,5200.0,0.745059586294
368,1_11_1,11,1.0,1639.27595829,1_I,test,01,4,30.0,00100,ignore,0.0,5100.0,0.76212652599
369,1_11_1,11,1.0,1641.77606975,1_I,test,01,4,31.0,00010,ignore,1.0,5200.0,0.452642352104
370,1_11_1,11,1.0,1644.61999508,1_I,test,01,4,32.0,01100,ignore,1.0,5300.0,0.743928988262
371,1_11_1,11,1.0,1647.97955933,1_I,test,01,4,33.0,10010,ignore,1.0,5400.0,1.30662073116
372,1_11_1,11,1.0,1650.87025094,1_I,test,01,4,34.0,10000,ignore,1.0,5500.0,0.796277237088
373,1_11_1,11,1.0,1654.54230444,1_I,test,01,4,35.0,00000,ignore,1.0,5600.0,1.64231967187
374,1_11_1,11,1.0,1658.21438955,1_I,test,01,4,36.0,10101,ignore,0.0,5500.0,1.51547757504
375,1_11_1,11,1.0,1662.16775956,1_I,test,01,4,37.0,10011,ignore,0.0,5400.0,1.83895587589
376,1_11_1,11,1.0,1665.52724622,1_I,test,01,4,38.0,01001,kill,0.0,5300.0,1.26747059275
377,1_11_1,11,1.0,1668.33990358,1_I,test,01,4,39.0,01111,ignore,1.0,5400.0,0.698771162279
378,1_11_1,11,1.0,1671.07442529,1_I,test,01,4,40.0,10110,ignore,0.0,5300.0,0.719115768887
379,1_11_1,11,1.0,1674.82466083,1_I,test,01,4,41.0,01110,ignore,1.0,5400.0,1.6020775252
380,1_11_1,11,1.0,1678.80916663,1_I,test,01,4,42.0,11101,ignore,1.0,5500.0,1.82906868527
381,1_11_1,11,1.0,1681.44994517,1_I,test,01,4,43.0,11001,ignore,1.0,5600.0,0.5557558483
382,1_11_1,11,1.0,1684.48133261,1_I,test,01,4,44.0,01000,ignore,1.0,5700.0,0.921829039949
383,1_11_1,11,1.0,1687.90335727,1_I,test,01,4,45.0,11011,ignore,1.0,5800.0,1.36668118572
384,1_11_1,11,1.0,1691.46602766,1_I,test,01,4,46.0,10110,ignore,0.0,5700.0,1.44879363876
385,1_11_1,11,1.0,1694.59116483,1_I,test,01,4,47.0,10101,ignore,0.0,5600.0,0.994565822031
386,1_11_1,11,1.0,1697.60697021,1_I,test,01,4,48.0,11101,kill,0.0,5500.0,0.955713727981
387,1_11_1,11,1.0,1700.48215162,1_I,test,01,4,49.0,00001,ignore,0.0,5400.0,0.766082798038
388,1_11_1,11,1.0,1703.95103698,1_I,test,01,4,50.0,01111,ignore,1.0,5500.0,1.35154168167
389,1_11_1,11,1.0,1706.62304819,1_I,test,01,4,51.0,01110,ignore,1.0,5600.0,0.571598178727
390,1_11_1,11,1.0,1710.01386809,1_I,test,01,4,52.0,01010,ignore,1.0,5700.0,1.27242691447
391,1_11_1,11,1.0,1713.13900034,1_I,test,01,4,53.0,10010,ignore,1.0,5800.0,1.06932569311
392,1_11_1,11,1.0,1716.79545372,1_I,test,01,4,54.0,10111,ignore,0.0,5700.0,1.49901821888
393,1_11_1,11,1.0,1719.70180128,1_I,test,01,4,55.0,01100,kill,0.0,5600.0,0.764243215694
394,1_11_1,11,1.0,1722.65510274,1_I,test,01,4,56.0,11111,ignore,1.0,5700.0,0.875271719162
395,1_11_1,11,1.0,1725.43649828,1_I,test,01,4,57.0,00010,ignore,1.0,5800.0,0.584182547655
396,1_11_1,11,1.0,1728.93665531,1_I,test,01,4,58.0,11100,ignore,1.0,5900.0,1.45849896485
397,1_11_1,11,1.0,1731.85871137,1_I,test,01,4,59.0,10000,ignore,1.0,6000.0,0.769572298132
398,1_11_1,11,1.0,1735.59322856,1_I,test,01,4,60.0,00101,ignore,0.0,5900.0,1.59695206535
399,1_11_1,11,1.0,1739.73404262,1_I,test,01,4,61.0,00000,ignore,1.0,6000.0,2.0390356007
400,1_11_1,11,1.0,1743.8436277,1_I,test,01,4,62.0,00111,ignore,0.0,5900.0,1.96750002771
401,1_11_1,11,1.0,1746.81251942,1_I,test,01,4,63.0,11001,ignore,1.0,6000.0,0.929221032735
402,1_11_1,11,1.0,1749.59392605,1_I,test,01,4,64.0,00011,ignore,0.0,5900.0,0.663409799912
403,1_11_1,11,1.0,1752.40657644,1_I,test,01,4,65.0,00110,ignore,0.0,5800.0,0.691705540381
404,1_11_1,11,1.0,1755.14109486,1_I,test,01,4,66.0,11110,ignore,1.0,5900.0,0.681994466886
405,1_11_1,11,1.0,1758.03185955,1_I,test,01,4,67.0,11011,ignore,1.0,6000.0,0.805314221274
406,1_11_1,11,1.0,1760.76638043,1_I,test,01,4,68.0,11000,ignore,1.0,6100.0,0.625105762643
407,1_11_1,11,1.0,1763.96963765,1_I,test,01,4,69.0,01101,ignore,1.0,6200.0,1.07019396284
408,1_11_1,11,1.0,1767.59481526,1_I,test,01,4,70.0,11010,ignore,1.0,6300.0,1.50095017035
409,1_11_1,11,1.0,1770.76686855,1_I,test,01,4,71.0,01001,ignore,1.0,6400.0,1.0802798497
410,1_11_1,11,1.0,1773.70452843,1_I,test,01,4,72.0,10100,ignore,0.0,6300.0,0.843456509949
411,1_11_1,11,1.0,1776.45328401,1_I,test,01,4,73.0,01000,ignore,1.0,6400.0,0.659052851146
412,1_11_1,11,1.0,1779.71908128,1_I,test,01,4,74.0,10001,ignore,0.0,6300.0,1.1561883821
413,1_11_1,11,1.0,1782.46924293,1_I,test,01,4,75.0,00100,ignore,0.0,6200.0,0.60834261472
414,1_11_1,11,1.0,1785.43813465,1_I,test,01,4,76.0,10011,ignore,0.0,6100.0,0.875850155118
415,1_11_1,11,1.0,1788.21950926,1_I,test,01,4,77.0,01011,ignore,1.0,6200.0,0.621596967665
416,1_11_1,11,1.0,1794.23542877,1_I,test,01,4,78.0,10110,ignore,0.0,6100.0,3.88548076485
417,1_11_1,11,1.0,1797.29807228,1_I,test,01,4,79.0,10100,ignore,0.0,6000.0,0.957218318315
418,1_11_1,11,1.0,1800.0950626,1_I,test,01,4,80.0,11000,ignore,1.0,6100.0,0.676401824558
419,1_11_1,11,1.0,1803.75147945,1_I,test,01,4,81.0,01110,ignore,1.0,6200.0,1.59941893666
420,1_11_1,11,1.0,1806.90793139,1_I,test,01,4,82.0,00011,ignore,0.0,6100.0,0.979975195811
421,1_11_1,11,1.0,1809.61117239,1_I,test,01,4,83.0,01000,ignore,1.0,6200.0,0.57442015798
422,1_11_1,11,1.0,1813.64263208,1_I,test,01,4,84.0,01111,ignore,1.0,6300.0,1.93298517701
423,1_11_1,11,1.0,1818.3928668,1_I,test,01,4,85.0,11110,kill,0.0,6200.0,2.63346906805
424,1_11_1,11,1.0,1822.33056445,1_I,test,01,4,86.0,10000,ignore,1.0,6300.0,1.86192622868
425,1_11_1,11,1.0,1825.7057243,1_I,test,01,4,87.0,10101,ignore,0.0,6200.0,1.21898583632
426,1_11_1,11,1.0,1828.37772114,1_I,test,01,4,88.0,11001,ignore,1.0,6300.0,0.562344024478
427,1_11_1,11,1.0,1831.58101983,1_I,test,01,4,89.0,00001,ignore,0.0,6200.0,1.11730878258
428,1_11_1,11,1.0,1834.26862541,1_I,test,01,4,90.0,00110,ignore,0.0,6100.0,0.584349633129
429,1_11_1,11,1.0,1837.28443654,1_I,test,01,4,91.0,00111,ignore,0.0,6000.0,0.871946020306
430,1_11_1,11,1.0,1840.03454071,1_I,test,01,4,92.0,10111,ignore,0.0,5900.0,0.596429461397
431,1_11_1,11,1.0,1842.97222522,1_I,test,01,4,93.0,00010,ignore,1.0,6000.0,0.782391900419
432,1_11_1,11,1.0,1846.23795886,1_I,test,01,4,94.0,11011,ignore,1.0,6100.0,1.18494555764
433,1_11_1,11,1.0,1849.25376096,1_I,test,01,4,95.0,00000,ignore,1.0,6200.0,0.834044301871
434,1_11_1,11,1.0,1852.72266233,1_I,test,01,4,96.0,00101,kill,1.0,6300.0,1.29972465792
435,1_11_1,11,1.0,1855.64472455,1_I,test,01,4,97.0,11101,kill,0.0,6200.0,0.816755265758
436,1_11_1,11,1.0,1858.97300687,1_I,test,01,4,98.0,10010,ignore,1.0,6300.0,1.20640967798
437,1_11_1,11,1.0,1863.98888574,1_I,test,01,4,99.0,00100,ignore,0.0,6200.0,2.92043857679
438,1_11_1,11,1.0,1867.64529026,1_I,test,01,4,100.0,11100,ignore,1.0,6300.0,1.49201746064
439,1_11_1,11,1.0,1870.66108579,1_I,test,01,4,101.0,01100,kill,0.0,6200.0,0.892479059921
440,1_11_1,11,1.0,1875.19251449,1_I,test,01,4,102.0,10001,kill,1.0,6300.0,2.41680970196
441,1_11_1,11,1.0,1878.45831094,1_I,test,01,4,103.0,01011,ignore,1.0,6400.0,1.13686681481
442,1_11_1,11,1.0,1882.34914501,1_I,test,01,4,104.0,01001,ignore,1.0,6500.0,1.80070192321
443,1_11_1,11,1.0,1886.48999601,1_I,test,01,4,105.0,10011,kill,1.0,6600.0,2.0004129926
444,1_11_1,11,1.0,1890.11517937,1_I,test,01,4,106.0,01101,ignore,1.0,6700.0,1.49034044794
445,1_11_1,11,1.0,1895.25605377,1_I,test,01,4,107.0,11010,kill,0.0,6600.0,3.09729629427
446,1_11_1,11,1.0,1899.75626376,1_I,test,01,4,108.0,11111,ignore,1.0,6700.0,2.40333941054
447,1_11_1,11,1.0,1902.86578438,1_I,test,01,4,109.0,01010,ignore,1.0,6800.0,0.99106564817
448,1_11_1,11,1.0,1908.36604856,1_I,test,01,4,110.0,11101,ignore,1.0,6900.0,3.34681361431
449,1_11_1,11,1.0,1911.91312417,1_I,test,01,4,111.0,00011,ignore,0.0,6800.0,1.424805173
450,1_11_1,11,1.0,1914.80390282,1_I,test,01,4,112.0,10100,ignore,0.0,6700.0,0.782753576839
451,1_11_1,11,1.0,1917.75714639,1_I,test,01,4,113.0,00010,ignore,1.0,6800.0,0.845256270939
452,1_11_1,11,1.0,1922.17927286,1_I,test,01,4,114.0,01101,ignore,1.0,6900.0,2.26917798462
453,1_11_1,11,1.0,1925.77315991,1_I,test,01,4,115.0,10111,ignore,0.0,6800.0,1.46561795557
454,1_11_1,11,1.0,1928.64835569,1_I,test,01,4,116.0,01001,ignore,1.0,6900.0,0.720888024405
455,1_11_1,11,1.0,1932.39849229,1_I,test,01,4,117.0,01010,ignore,1.0,7000.0,1.6066442545
456,1_11_1,11,1.0,1935.99245611,1_I,test,01,4,118.0,01000,ignore,1.0,7100.0,1.45067755828
457,1_11_1,11,1.0,1940.91454091,1_I,test,01,4,119.0,10001,kill,1.0,7200.0,2.77532299429
458,1_11_1,11,1.0,1943.93051584,1_I,test,01,4,120.0,11010,kill,0.0,7100.0,0.921249372404
459,1_11_1,11,1.0,1946.99300129,1_I,test,01,4,121.0,01110,ignore,1.0,7200.0,0.94314495917
460,1_11_1,11,1.0,1950.0963492,1_I,test,01,4,122.0,00000,ignore,1.0,7300.0,1.00380519722
461,1_11_1,11,1.0,1953.67465174,1_I,test,01,4,123.0,10011,kill,1.0,7400.0,1.42632413186
462,1_11_1,11,1.0,1956.53427449,1_I,test,01,4,124.0,00100,ignore,0.0,7300.0,0.700293815908
463,1_11_1,11,1.0,1959.42509378,1_I,test,01,4,125.0,01011,ignore,1.0,7400.0,0.764783472414
464,1_11_1,11,1.0,1963.65967891,1_I,test,01,4,126.0,11011,kill,0.0,7300.0,2.11072224852
465,1_11_1,11,1.0,1966.50670867,1_I,test,01,5,0.0,10010,ignore,0.0,7200.0,0.781546209808
466,1_11_1,11,1.0,1969.91627335,1_I,test,01,5,1.0,00101,ignore,1.0,7300.0,1.26679075603
467,1_11_1,11,1.0,1974.38524492,1_I,test,01,5,2.0,10110,kill,1.0,7400.0,2.29965856268
468,1_11_1,11,1.0,1977.37293683,1_I,test,01,5,3.0,01111,ignore,1.0,7500.0,0.923425588873
469,1_11_1,11,1.0,1981.37946056,1_I,test,01,5,4.0,10000,ignore,0.0,7400.0,1.93631292852
470,1_11_1,11,1.0,1985.32022444,1_I,test,01,5,5.0,11110,kill,0.0,7300.0,1.82044017786
471,1_11_1,11,1.0,1989.69546435,1_I,test,01,5,6.0,11111,kill,1.0,7400.0,2.18434454257
472,1_11_1,11,1.0,1992.90115642,1_I,test,01,5,7.0,01100,ignore,1.0,7500.0,1.06903791198
473,1_11_1,11,1.0,1995.51314372,1_I,test,01,5,8.0,00001,ignore,1.0,7600.0,0.514976318611
474,1_11_1,11,1.0,1998.45708798,1_I,test,01,5,9.0,00111,ignore,1.0,7700.0,0.778802641675
475,1_11_1,11,1.0,2001.08221509,1_I,test,01,5,10.0,00110,ignore,1.0,7800.0,0.479476197299
476,1_11_1,11,1.0,2004.3167448,1_I,test,01,5,11.0,11001,kill,1.0,7900.0,1.14403876383
477,1_11_1,11,1.0,2008.36385921,1_I,test,01,5,12.0,11100,ignore,1.0,8000.0,1.91077676683
478,1_11_1,11,1.0,2011.28584178,1_I,test,01,5,13.0,11000,ignore,1.0,8100.0,0.873647664765
479,1_11_1,11,1.0,2014.55483093,1_I,test,01,5,14.0,10101,kill,1.0,8200.0,1.1303562287
480,1_11_1,11,1.0,2017.51125815,1_I,test,01,5,15.0,00001,ignore,1.0,8300.0,0.828983295149
481,1_11_1,11,1.0,2020.52703316,1_I,test,01,6,0.0,10011,kill,1.0,8400.0,0.902642947372
482,1_11_1,11,1.0,2023.74586751,1_I,test,01,6,1.0,00010,ignore,0.0,8300.0,0.961185264128
483,1_11_1,11,1.0,2027.12110577,1_I,test,01,6,2.0,11101,kill,0.0,8200.0,1.16674309356
484,1_11_1,11,1.0,2029.98061891,1_I,test,01,6,3.0,01101,ignore,1.0,8300.0,0.725440795704
485,1_11_1,11,1.0,2032.76196929,1_I,test,01,6,4.0,00101,ignore,1.0,8400.0,0.630496424494
486,1_11_1,11,1.0,2035.94962722,1_I,test,01,6,5.0,10000,ignore,1.0,8500.0,1.09908414991
487,1_11_1,11,1.0,2038.71541936,1_I,test,01,6,6.0,00111,ignore,1.0,8600.0,0.663340830968
488,1_11_1,11,1.0,2041.49679931,1_I,test,01,6,7.0,00100,ignore,1.0,8700.0,0.626010569491
489,1_11_1,11,1.0,2045.45011185,1_I,test,01,6,8.0,11111,ignore,1.0,8800.0,1.81836413057
490,1_11_1,11,1.0,2048.43462873,1_I,test,01,6,9.0,10110,ignore,1.0,8900.0,0.840768773818
491,1_11_1,11,1.0,2052.0129637,1_I,test,01,6,10.0,10101,kill,0.0,8800.0,1.4968473393
492,1_11_1,11,1.0,2054.79434364,1_I,test,01,6,11.0,01000,ignore,0.0,8700.0,0.681599537578
493,1_11_1,11,1.0,2057.8570085,1_I,test,01,6,12.0,10010,ignore,0.0,8600.0,0.923763454588
494,1_11_1,11,1.0,2060.51333256,1_I,test,01,6,13.0,01111,ignore,1.0,8700.0,0.505785385891
495,1_11_1,11,1.0,2064.27917848,1_I,test,01,6,14.0,11000,kill,0.0,8600.0,1.63923864855
496,1_11_1,11,1.0,2068.29499782,1_I,test,01,6,15.0,10001,kill,0.0,8500.0,1.9315688505
497,1_11_1,11,1.0,2070.95135267,1_I,test,01,6,16.0,11010,ignore,0.0,8400.0,0.503874781958
498,1_11_1,11,1.0,2074.13904796,1_I,test,01,6,17.0,11100,kill,0.0,8300.0,1.04140805024
499,1_11_1,11,1.0,2077.0298344,1_I,test,01,6,18.0,00110,ignore,1.0,8400.0,0.76606637686
500,1_11_1,11,1.0,2081.01438331,1_I,test,01,6,19.0,11110,kill,0.0,8300.0,1.86964007654
501,1_11_1,11,1.0,2084.46768784,1_I,test,01,6,20.0,10100,ignore,1.0,8400.0,1.37669687205
502,1_11_1,11,1.0,2087.26470732,1_I,test,01,6,21.0,01010,ignore,0.0,8300.0,0.639249732849
503,1_11_1,11,1.0,2090.436729,1_I,test,01,6,22.0,00000,ignore,0.0,8200.0,1.00658407088
504,1_11_1,11,1.0,2094.78069888,1_I,test,01,6,23.0,01100,ignore,1.0,8300.0,2.21703417945
505,1_11_1,11,1.0,2098.81214338,1_I,test,01,6,24.0,01011,ignore,0.0,8200.0,1.88190587464
506,1_11_1,11,1.0,2101.65601945,1_I,test,01,6,25.0,01001,ignore,0.0,8100.0,0.749297892055
507,1_11_1,11,1.0,2105.57810261,1_I,test,01,6,26.0,10111,ignore,1.0,8200.0,1.76457861823
508,1_11_1,11,1.0,2108.9688675,1_I,test,01,6,27.0,01110,kill,0.0,8100.0,1.2322405998
509,1_11_1,11,1.0,2113.40662447,1_I,test,01,6,28.0,00011,ignore,0.0,8000.0,2.36035656944
510,1_11_1,11,1.0,2117.20368705,1_I,test,01,6,29.0,11011,kill,1.0,8100.0,1.70282924562
511,1_11_1,11,1.0,2120.59449258,1_I,test,01,6,30.0,11001,kill,0.0,8000.0,1.27715375025
512,1_11_1,11,1.0,2123.5946141,1_I,test,01,6,31.0,10101,ignore,1.0,8100.0,0.849614861821
513,1_11_1,11,1.0,2126.59479679,1_I,test,01,6,32.0,00111,ignore,1.0,8200.0,0.823413642467
514,1_11_1,11,1.0,2129.76679876,1_I,test,01,6,33.0,11111,ignore,1.0,8300.0,1.09014364014
515,1_11_1,11,1.0,2133.70455101,1_I,test,01,6,34.0,10111,ignore,1.0,8400.0,1.74709827541
516,1_11_1,11,1.0,2136.67342056,1_I,test,01,6,35.0,01111,ignore,1.0,8500.0,0.823192367108
517,1_11_1,11,1.0,2139.78291327,1_I,test,01,6,36.0,01101,ignore,1.0,8600.0,1.01130064342
518,1_11_1,11,1.0,2142.61120688,1_I,test,01,6,37.0,00010,ignore,0.0,8500.0,0.691610297556
519,1_11_1,11,1.0,2145.76760258,1_I,test,01,6,38.0,11000,ignore,1.0,8600.0,1.06401426343
520,1_11_1,11,1.0,2149.36155162,1_I,test,01,6,39.0,11110,kill,0.0,8500.0,1.37407317851
521,1_11_1,11,1.0,2152.28358059,1_I,test,01,6,40.0,00001,ignore,0.0,8400.0,0.764407427463
522,1_11_1,11,1.0,2155.92439526,1_I,test,01,6,41.0,11010,kill,1.0,8500.0,1.53147549611
523,1_11_1,11,1.0,2158.98700921,1_I,test,01,6,42.0,00101,ignore,1.0,8600.0,0.906695693833
524,1_11_1,11,1.0,2162.95595225,1_I,test,01,6,43.0,10010,kill,1.0,8700.0,1.8918439709
525,1_11_1,11,1.0,2166.22173228,1_I,test,01,6,44.0,11011,kill,1.0,8800.0,1.17219697694
526,1_11_1,11,1.0,2169.59688679,1_I,test,01,6,45.0,10110,kill,0.0,8700.0,1.21874937138
527,1_11_1,11,1.0,2172.37832175,1_I,test,01,6,46.0,01010,ignore,0.0,8600.0,0.715235034253
528,1_11_1,11,1.0,2175.36286121,1_I,test,01,6,47.0,01100,ignore,1.0,8700.0,0.895910264837
529,1_11_1,11,1.0,2179.94120439,1_I,test,01,6,48.0,00110,ignore,1.0,8800.0,2.50600830337
530,1_11_1,11,1.0,2182.95695681,1_I,test,01,6,49.0,11101,ignore,1.0,8900.0,0.884034469693
531,1_11_1,11,1.0,2186.17586095,1_I,test,01,6,50.0,01110,ignore,1.0,9000.0,1.08452061863
532,1_11_1,11,1.0,2189.08227749,1_I,test,01,6,51.0,01011,ignore,0.0,8900.0,0.828582618429
533,1_11_1,11,1.0,2191.70736888,1_I,test,01,6,52.0,10100,ignore,1.0,9000.0,0.502724067986
534,1_11_1,11,1.0,2194.77003291,1_I,test,01,6,53.0,10001,ignore,1.0,9100.0,0.918584215389
535,1_11_1,11,1.0,2197.61394963,1_I,test,01,6,54.0,00000,ignore,0.0,9000.0,0.702677349736
536,1_11_1,11,1.0,2200.47342664,1_I,test,01,6,55.0,00100,ignore,1.0,9100.0,0.710928170078
537,1_11_1,11,1.0,2203.62986216,1_I,test,01,6,56.0,10000,kill,0.0,9000.0,1.06864216162
538,1_11_1,11,1.0,2206.30186187,1_I,test,01,6,57.0,11100,ignore,1.0,9100.0,0.505919629013
