,unique_id,pair_id,sbj_id,wall_time,condition,block,rule_id,rule_num,trial,stimulus,choice,correct,points,reaction_time
0,1_35_2,35,2.0,51.5904567627,1_I,training,05,1_A,1.0,00000,ignore,0.0,0.0,2.60320738033
1,1_35_2,35,2.0,56.9813701977,1_I,training,05,1_A,2.0,01011,kill,0.0,0.0,3.14636751698
2,1_35_2,35,2.0,60.4971049501,1_I,training,05,1_A,3.0,11101,kill,0.0,0.0,1.2195828862
3,1_35_2,35,2.0,64.8879539321,1_I,training,05,1_A,4.0,00001,ignore,1.0,100.0,1.78089332735
4,1_35_2,35,2.0,70.185116931,1_I,training,05,1_A,5.0,11010,kill,1.0,200.0,2.80085078013
5,1_35_2,35,2.0,73.7634314798,1_I,training,05,1_A,6.0,11111,kill,0.0,100.0,1.40676026179
6,1_35_2,35,2.0,80.435589655,1_I,training,05,1_A,7.0,00110,ignore,0.0,0.0,4.10591933435
7,1_35_2,35,2.0,86.17823154,1_I,training,05,1_A,8.0,00100,ignore,0.0,0.0,3.55698141372
8,1_35_2,35,2.0,90.2721687668,1_I,training,05,1_A,9.0,10011,ignore,1.0,100.0,1.88368771558
9,1_35_2,35,2.0,94.7879835723,1_I,training,05,1_A,10.0,10010,ignore,0.0,0.0,1.92415478254
10,1_35_2,35,2.0,103.569717663,1_I,training,05,1_A,11.0,01110,kill,1.0,100.0,6.57844838133
11,1_35_2,35,2.0,110.163789543,1_I,training,05,1_A,12.0,01100,ignore,0.0,0.0,4.25069482019
12,1_35_2,35,2.0,114.08585186,1_I,training,05,1_A,13.0,10000,ignore,0.0,0.0,1.71317206663
13,1_35_2,35,2.0,117.726624278,1_I,training,05,1_A,14.0,11011,ignore,1.0,100.0,1.45453433294
14,1_35_2,35,2.0,121.586229957,1_I,training,05,1_A,15.0,10101,ignore,1.0,200.0,1.65707739538
15,1_35_2,35,2.0,126.055182476,1_I,training,05,1_A,16.0,01010,kill,1.0,300.0,2.32031026133
16,1_35_2,35,2.0,130.195940936,1_I,training,05,1_A,17.0,01001,kill,0.0,200.0,1.98688154845
17,1_35_2,35,2.0,134.821229436,1_I,training,05,1_A,18.0,11001,ignore,1.0,300.0,2.42350614685
18,1_35_2,35,2.0,138.430760193,1_I,training,05,1_A,19.0,00011,kill,0.0,200.0,1.40126327958
19,1_35_2,35,2.0,142.134026607,1_I,training,05,1_A,20.0,11000,ignore,0.0,100.0,1.54321022119
20,1_35_2,35,2.0,146.806227888,1_I,training,05,1_A,21.0,11110,ignore,1.0,200.0,2.50488242041
21,1_35_2,35,2.0,151.822044746,1_I,training,05,1_A,22.0,00101,kill,0.0,100.0,2.79472240445
22,1_35_2,35,2.0,158.25984551,1_I,training,05,1_A,23.0,01000,kill,1.0,200.0,4.25186236444
23,1_35_2,35,2.0,170.932351403,1_I,training,05,1_A,24.0,10110,ignore,1.0,300.0,10.4791455415
24,1_35_2,35,2.0,175.448180987,1_I,training,05,1_A,25.0,10001,ignore,1.0,400.0,2.3313235206
25,1_35_2,35,2.0,179.354607489,1_I,training,05,1_A,26.0,10111,kill,0.0,300.0,1.75545695563
26,1_35_2,35,2.0,183.167325429,1_I,training,05,1_A,27.0,01101,kill,0.0,200.0,1.6347023378
27,1_35_2,35,2.0,187.276877944,1_I,training,05,1_A,28.0,00010,kill,1.0,300.0,1.94078654056
28,1_35_2,35,2.0,195.152246702,1_I,training,05,1_A,29.0,11100,ignore,1.0,400.0,5.68923002018
29,1_35_2,35,2.0,199.87124951,1_I,training,05,1_A,30.0,10100,ignore,1.0,500.0,2.49877251854
30,1_35_2,35,2.0,203.5589733,1_I,training,05,1_A,31.0,01111,kill,0.0,400.0,1.51480818857
31,1_35_2,35,2.0,207.777867729,1_I,training,05,1_A,32.0,00111,ignore,1.0,500.0,1.97249004673
32,1_35_2,35,2.0,211.63742045,1_I,training,05,1_A,33.0,11100,ignore,1.0,600.0,1.55473048366
33,1_35_2,35,2.0,216.137725473,1_I,training,05,1_A,34.0,11010,ignore,0.0,500.0,2.16097454639
34,1_35_2,35,2.0,219.762846066,1_I,training,05,1_A,35.0,10001,kill,0.0,400.0,1.31378983054
35,1_35_2,35,2.0,224.434943482,1_I,training,05,1_A,36.0,00110,kill,1.0,500.0,2.35909744396
36,1_35_2,35,2.0,232.607200185,1_I,training,05,1_A,37.0,00010,ignore,0.0,400.0,5.85640437427
37,1_35_2,35,2.0,238.216820848,1_I,training,05,1_A,38.0,00001,kill,0.0,300.0,3.43872691699
38,1_35_2,35,2.0,241.560727901,1_I,training,05,1_A,39.0,10011,ignore,1.0,400.0,1.14180243542
39,1_35_2,35,2.0,246.404767965,1_I,training,05,1_A,40.0,01100,ignore,0.0,300.0,2.54831596933
40,1_35_2,35,2.0,251.842465686,1_I,training,05,1_A,41.0,00101,kill,0.0,200.0,3.12921767146
41,1_35_2,35,2.0,256.905251568,1_I,training,05,1_A,42.0,11000,ignore,0.0,100.0,2.7693082013
42,1_35_2,35,2.0,260.81167848,1_I,training,05,1_A,43.0,01001,kill,0.0,0.0,1.68168614079
43,1_35_2,35,2.0,265.140027308,1_I,training,05,1_A,44.0,00111,kill,0.0,0.0,2.14303730641
44,1_35_2,35,2.0,268.718319278,1_I,training,05,1_A,45.0,01000,ignore,0.0,0.0,1.30281598205
45,1_35_2,35,2.0,272.609120228,1_I,training,05,1_A,46.0,01111,ignore,1.0,100.0,1.70763690524
46,1_35_2,35,2.0,275.378020774,1_I,training,05,1_A,47.0,00100,ignore,0.0,0.0,0.5867800657
47,1_35_2,35,2.0,279.706403676,1_I,training,05,1_A,48.0,11011,ignore,1.0,100.0,2.17286674806
48,1_35_2,35,2.0,283.112801441,1_I,training,05,1_A,49.0,01010,kill,1.0,200.0,1.18126863288
49,1_35_2,35,2.0,287.800472683,1_I,training,05,1_A,50.0,11001,kill,0.0,100.0,2.4089935391
50,1_35_2,35,2.0,292.972670679,1_I,training,05,1_A,51.0,10010,ignore,0.0,0.0,2.8822258221
51,1_35_2,35,2.0,311.832958657,1_I,training,05,1_A,52.0,01101,ignore,1.0,100.0,15.6424736502
52,1_35_2,35,2.0,323.427237034,1_I,training,05,1_A,53.0,10110,ignore,1.0,200.0,9.21984849841
53,1_35_2,35,2.0,328.021223934,1_I,training,05,1_A,54.0,11111,kill,0.0,100.0,2.20967189708
54,1_35_2,35,2.0,341.584395303,1_I,training,05,1_A,55.0,10100,ignore,1.0,200.0,11.0521946465
55,1_35_2,35,2.0,346.225193585,1_I,training,05,1_A,56.0,01011,kill,0.0,100.0,2.03336737986
56,1_35_2,35,2.0,351.022361921,1_I,training,05,1_A,57.0,00011,ignore,1.0,200.0,2.5460909026
57,1_35_2,35,2.0,355.572658692,1_I,training,05,1_A,58.0,00000,ignore,0.0,100.0,2.44186705268
58,1_35_2,35,2.0,359.354036033,1_I,training,05,1_A,59.0,10000,kill,1.0,200.0,1.51325474715
59,1_35_2,35,2.0,363.682410724,1_I,training,05,1_A,60.0,01110,ignore,0.0,100.0,2.19140294973
60,1_35_2,35,2.0,367.823217217,1_I,training,05,1_A,61.0,11101,ignore,1.0,200.0,1.89025617826
61,1_35_2,35,2.0,373.198407394,1_I,training,05,1_A,62.0,11110,kill,0.0,100.0,3.24197641758
62,1_35_2,35,2.0,377.979880388,1_I,training,05,1_A,63.0,10111,ignore,1.0,200.0,2.48627683935
63,1_35_2,35,2.0,381.667580367,1_I,training,05,1_A,64.0,10101,ignore,1.0,300.0,1.43438311051
64,1_35_2,35,2.0,386.949079225,1_I,training,05,1_A,65.0,10110,ignore,1.0,400.0,3.09155656965
65,1_35_2,35,2.0,390.74613877,1_I,training,05,1_A,66.0,00000,kill,1.0,500.0,1.25043823962
66,1_35_2,35,2.0,397.933988592,1_I,training,05,1_A,67.0,11001,kill,0.0,400.0,4.94970363917
67,1_35_2,35,2.0,402.121698424,1_I,training,05,1_A,68.0,01100,kill,1.0,500.0,1.87727648548
68,1_35_2,35,2.0,405.668738469,1_I,training,05,1_A,69.0,11000,ignore,0.0,400.0,1.3011073607
69,1_35_2,35,2.0,409.481448198,1_I,training,05,1_A,70.0,00111,ignore,1.0,500.0,1.47059668736
70,1_35_2,35,2.0,413.434788303,1_I,training,05,1_A,71.0,10000,kill,1.0,600.0,1.55854101307
71,1_35_2,35,2.0,417.638902049,1_I,training,05,1_A,72.0,11100,ignore,1.0,700.0,1.68223132319
72,1_35_2,35,2.0,422.232086776,1_I,training,05,1_A,73.0,01000,kill,1.0,800.0,1.80664703791
73,1_35_2,35,2.0,428.185531155,1_I,training,05,1_A,74.0,00010,kill,1.0,900.0,3.56437668163
74,1_35_2,35,2.0,432.607562271,1_I,training,05,1_A,75.0,11011,kill,0.0,800.0,2.14237019691
75,1_35_2,35,2.0,437.279638751,1_I,training,05,1_A,76.0,10100,ignore,1.0,900.0,2.30482059476
76,1_35_2,35,2.0,440.873580904,1_I,training,05,1_A,77.0,10101,ignore,1.0,1000.0,1.32939813998
77,1_35_2,35,2.0,448.389554174,1_I,training,05,1_A,78.0,00001,kill,0.0,900.0,5.18662439313
78,1_35_2,35,2.0,452.296020907,1_I,training,05,1_A,79.0,01010,kill,1.0,1000.0,1.55388479409
79,1_35_2,35,2.0,455.749335559,1_I,training,05,1_A,80.0,10010,kill,1.0,1100.0,1.20861273247
80,1_35_2,35,2.0,459.155723471,1_I,training,05,1_A,81.0,01011,ignore,1.0,1200.0,1.14681622509
81,1_35_2,35,2.0,463.390308726,1_I,training,05,1_A,82.0,11111,ignore,1.0,1300.0,1.79899108413
82,1_35_2,35,2.0,468.656238685,1_I,training,05,1_A,83.0,11010,kill,1.0,1400.0,2.76896623071
83,1_35_2,35,2.0,473.484568629,1_I,training,05,1_A,84.0,00011,ignore,1.0,1500.0,2.60919535511
84,1_35_2,35,2.0,478.062858135,1_I,training,05,1_A,85.0,00110,ignore,0.0,1400.0,2.37566187525
85,1_35_2,35,2.0,482.406846473,1_I,training,05,1_A,86.0,00100,kill,1.0,1500.0,2.08298185216
86,1_35_2,35,2.0,485.860131156,1_I,training,05,1_A,87.0,01001,ignore,1.0,1600.0,1.20149826633
87,1_35_2,35,2.0,489.516591116,1_I,training,05,1_A,88.0,11101,ignore,1.0,1700.0,1.39431384607
88,1_35_2,35,2.0,493.68863968,1_I,training,05,1_A,89.0,01110,kill,1.0,1800.0,1.8965614919
89,1_35_2,35,2.0,497.110718007,1_I,training,05,1_A,90.0,00101,ignore,1.0,1900.0,1.13907118654
90,1_35_2,35,2.0,500.563981342,1_I,training,05,1_A,91.0,01111,ignore,1.0,2000.0,1.16303170679
91,1_35_2,35,2.0,505.876730482,1_I,training,05,1_A,92.0,10011,ignore,1.0,2100.0,3.02995301086
92,1_35_2,35,2.0,509.751903828,1_I,training,05,1_A,93.0,01101,ignore,1.0,2200.0,1.59634785265
93,1_35_2,35,2.0,514.033403917,1_I,training,05,1_A,94.0,11110,kill,0.0,2100.0,2.04557322563
94,1_35_2,35,2.0,517.455445297,1_I,training,05,1_A,95.0,10111,ignore,1.0,2200.0,1.16925901994
95,1_35_2,35,2.0,521.049354607,1_I,training,05,1_A,96.0,10001,ignore,1.0,2300.0,1.30065906312
96,1_35_2,35,2.0,524.89327685,1_I,training,05,1_A,97.0,01001,ignore,1.0,2400.0,1.55652860031
97,1_35_2,35,2.0,528.315392946,1_I,training,05,1_A,98.0,01110,ignore,0.0,2300.0,1.23743227299
98,1_35_2,35,2.0,532.924908924,1_I,training,05,1_A,99.0,01101,ignore,1.0,2400.0,2.41195591576
99,1_35_2,35,2.0,536.081336042,1_I,training,05,1_A,100.0,01011,ignore,1.0,2500.0,0.966345660421
100,1_35_2,35,2.0,539.940874394,1_I,training,05,1_A,101.0,11000,kill,1.0,2600.0,1.63913646064
101,1_35_2,35,2.0,543.081700181,1_I,training,05,1_A,102.0,11100,kill,0.0,2500.0,0.932271760292
102,1_35_2,35,2.0,549.253887093,1_I,training,05,1_A,103.0,10001,ignore,1.0,2600.0,3.98790253387
103,1_35_2,35,2.0,555.113489488,1_I,training,05,1_A,104.0,11110,ignore,1.0,2700.0,3.52739377359
104,1_35_2,35,2.0,560.035599015,1_I,training,05,1_A,105.0,10100,ignore,1.0,2800.0,2.52993043177
105,1_35_2,35,2.0,564.113907817,1_I,training,05,1_A,106.0,11010,kill,1.0,2900.0,1.89609841528
106,1_35_2,35,2.0,567.75475372,1_I,training,05,1_A,107.0,00110,kill,1.0,3000.0,1.34533158831
107,1_35_2,35,2.0,572.754992237,1_I,training,05,1_A,108.0,10000,kill,1.0,3100.0,2.78515790174
108,1_35_2,35,2.0,577.817706276,1_I,training,05,1_A,109.0,01010,kill,1.0,3200.0,2.86541917876
109,1_35_2,35,2.0,584.630625375,1_I,training,05,1_A,110.0,00001,ignore,1.0,3300.0,4.37848097732
110,1_35_2,35,2.0,589.193337362,1_I,training,05,1_A,111.0,00101,ignore,1.0,3400.0,2.31523940815
111,1_35_2,35,2.0,594.068522203,1_I,training,05,1_A,112.0,10101,ignore,1.0,3500.0,2.63829857111
112,1_35_2,35,2.0,597.959303037,1_I,training,05,1_A,113.0,11101,ignore,1.0,3600.0,1.61235765936
113,1_35_2,35,2.0,604.350273946,1_I,training,05,1_A,114.0,00100,kill,1.0,3700.0,4.02831048466
114,1_35_2,35,2.0,610.631775267,1_I,training,05,1_A,115.0,10010,kill,1.0,3800.0,3.99430267969
115,1_35_2,35,2.0,613.897609983,1_I,training,05,1_A,116.0,10011,ignore,1.0,3900.0,1.07445106126
116,1_35_2,35,2.0,617.647807652,1_I,training,05,1_A,117.0,10111,ignore,1.0,4000.0,1.49474317721
117,1_35_2,35,2.0,624.023105799,1_I,training,05,1_A,118.0,00000,kill,1.0,4100.0,4.13529473102
118,1_35_2,35,2.0,628.119433946,1_I,training,05,1_A,119.0,00111,ignore,1.0,4200.0,1.80046447242
119,1_35_2,35,2.0,631.385225146,1_I,training,05,1_A,120.0,11011,ignore,1.0,4300.0,1.05012352815
120,1_35_2,35,2.0,636.04445864,1_I,training,05,1_A,121.0,00010,kill,1.0,4400.0,2.23440626434
121,1_35_2,35,2.0,639.341476311,1_I,training,05,1_A,122.0,01000,kill,1.0,4500.0,1.07048001504
122,1_35_2,35,2.0,642.529241564,1_I,training,05,1_A,123.0,11001,ignore,1.0,4600.0,0.960800235807
123,1_35_2,35,2.0,648.779568961,1_I,training,05,1_A,124.0,11111,ignore,1.0,4700.0,4.0326793334
124,1_35_2,35,2.0,652.655985388,1_I,training,05,1_A,125.0,01111,ignore,1.0,4800.0,1.64954583186
125,1_35_2,35,2.0,657.453145103,1_I,training,05,1_A,126.0,10110,kill,0.0,4700.0,2.49581219452
126,1_35_2,35,2.0,661.312655539,1_I,training,05,1_A,127.0,00011,ignore,1.0,4800.0,1.64882986943
127,1_35_2,35,2.0,665.687846538,1_I,training,05,1_A,128.0,01100,kill,1.0,4900.0,2.15331038203
128,1_35_2,35,2.0,671.110031603,1_I,training,05,1_A,129.0,00000,kill,1.0,5000.0,3.16188017317
129,1_35_2,35,2.0,674.863342723,1_I,training,05,1_A,130.0,01111,ignore,1.0,5100.0,1.55276117644
130,1_35_2,35,2.0,681.957449088,1_I,training,05,1_A,131.0,00100,kill,1.0,5200.0,4.86920795014
131,1_35_2,35,2.0,690.395311431,1_I,training,05,1_A,132.0,10010,ignore,0.0,5100.0,6.19021652116
132,1_35_2,35,2.0,693.629874107,1_I,training,05,1_A,133.0,10000,kill,1.0,5200.0,1.00227925655
133,1_35_2,35,2.0,701.567735219,1_I,training,05,1_A,134.0,00101,ignore,1.0,5300.0,5.66738700807
134,1_35_2,35,2.0,705.083526624,1_I,training,05,1_A,135.0,11000,kill,1.0,5400.0,1.25627555029
135,1_35_2,35,2.0,708.896230195,1_I,training,05,1_A,136.0,11100,ignore,1.0,5500.0,1.56773562923
136,1_35_2,35,2.0,714.771541889,1_I,training,05,1_A,137.0,11101,ignore,1.0,5600.0,3.57318211638
137,1_35_2,35,2.0,718.849835912,1_I,training,05,1_A,138.0,01000,kill,1.0,5700.0,1.84451463577
138,1_35_2,35,2.0,722.103122811,1_I,training,05,1_A,139.0,11011,ignore,1.0,5800.0,1.05365120314
139,1_35_2,35,2.0,728.134670727,1_I,training,05,1_A,140.0,00011,ignore,1.0,5900.0,3.79962247761
140,1_35_2,35,2.0,736.353827895,1_I,training,05,1_A,141.0,11111,ignore,1.0,6000.0,6.02561905708
141,1_35_2,35,2.0,742.854171918,1_I,training,05,1_A,142.0,10100,ignore,1.0,6100.0,4.29643143633
142,1_35_2,35,2.0,748.29188606,1_I,training,05,1_A,143.0,01110,kill,1.0,6200.0,3.20396841883
143,1_35_2,35,2.0,755.401590882,1_I,training,05,1_A,144.0,10001,ignore,1.0,6300.0,4.9133747037
144,1_35_2,35,2.0,761.026926181,1_I,training,05,1_A,145.0,11110,ignore,1.0,6400.0,3.43002493553
145,1_35_2,35,2.0,764.558291001,1_I,training,05,1_A,146.0,10111,ignore,1.0,6500.0,1.30514285996
146,1_35_2,35,2.0,768.355363273,1_I,training,05,1_A,147.0,01011,ignore,1.0,6600.0,1.5588296149
147,1_35_2,35,2.0,772.355528306,1_I,training,05,1_A,148.0,00110,kill,1.0,6700.0,1.76917067411
148,1_35_2,35,2.0,778.215189816,1_I,training,05,1_A,149.0,11010,kill,1.0,6800.0,3.67717114376
149,1_35_2,35,2.0,781.918512473,1_I,training,05,1_A,150.0,01001,ignore,1.0,6900.0,1.54478665223
150,1_35_2,35,2.0,791.106444811,1_I,training,05,1_A,151.0,10110,ignore,1.0,7000.0,6.98794769205
151,1_35_2,35,2.0,795.653548078,1_I,training,05,1_A,152.0,00001,ignore,1.0,7100.0,2.32697889307
152,1_35_2,35,2.0,800.403818001,1_I,training,05,1_A,153.0,01100,ignore,0.0,7000.0,2.50003900025
153,1_35_2,35,2.0,805.935316653,1_I,training,05,1_A,154.0,11001,ignore,1.0,7100.0,3.34090033918
154,1_35_2,35,2.0,810.435571592,1_I,training,05,1_A,155.0,00111,ignore,1.0,7200.0,2.21584378882
155,1_35_2,35,2.0,818.02961843,1_I,training,05,1_A,156.0,01010,kill,1.0,7300.0,5.39012152477
156,1_35_2,35,2.0,821.48296305,1_I,training,05,1_A,157.0,00010,kill,1.0,7400.0,1.25876171342
157,1_35_2,35,2.0,827.889457289,1_I,training,05,1_A,158.0,10101,ignore,1.0,7500.0,4.17977184445
158,1_35_2,35,2.0,833.436617209,1_I,training,05,1_A,159.0,10011,ignore,1.0,7600.0,3.27668869017
159,1_35_2,35,2.0,837.061812518,1_I,training,05,1_A,160.0,01101,ignore,1.0,7700.0,1.4243941209
160,1_35_2,35,2.0,846.265389292,1_I,training,05,1_A,161.0,10010,ignore,0.0,7600.0,6.97042672839
161,1_35_2,35,2.0,958.63650456,1_I,test,05,2,0.0,01101,ignore,1.0,100.0,2.95985150348
162,1_35_2,35,2.0,964.793017888,1_I,test,05,2,1.0,10000,kill,0.0,0.0,3.94633976523
163,1_35_2,35,2.0,968.496345472,1_I,test,05,2,2.0,11111,ignore,0.0,0.0,1.51901528892
164,1_35_2,35,2.0,974.590351257,1_I,test,05,2,3.0,10110,ignore,0.0,0.0,3.88085178182
165,1_35_2,35,2.0,979.231184844,1_I,test,05,2,4.0,10111,kill,1.0,100.0,2.42550624373
166,1_35_2,35,2.0,982.590766301,1_I,test,05,2,5.0,10100,kill,1.0,200.0,1.13233933335
167,1_35_2,35,2.0,985.965893668,1_I,test,05,2,6.0,01011,ignore,1.0,300.0,1.13792375821
168,1_35_2,35,2.0,989.622338438,1_I,test,05,2,7.0,11011,kill,0.0,200.0,1.41093123558
169,1_35_2,35,2.0,1002.49795023,1_I,test,05,2,8.0,01110,kill,1.0,300.0,10.6407715973
170,1_35_2,35,2.0,1008.32636023,1_I,test,05,2,9.0,01100,kill,0.0,200.0,3.40424371952
171,1_35_2,35,2.0,1030.31922811,1_I,test,05,2,10.0,11001,ignore,1.0,300.0,19.7477525594
172,1_35_2,35,2.0,1039.58530134,1_I,test,05,2,11.0,10011,ignore,1.0,400.0,6.85809041653
173,1_35_2,35,2.0,1043.46044431,1_I,test,05,2,12.0,00000,ignore,1.0,500.0,1.67196522656
174,1_35_2,35,2.0,1047.52628411,1_I,test,05,2,13.0,00001,ignore,1.0,600.0,1.83734187453
175,1_35_2,35,2.0,1051.12519818,1_I,test,05,2,14.0,01111,kill,1.0,700.0,1.3744360359
176,1_35_2,35,2.0,1057.49153161,1_I,test,05,2,15.0,10101,kill,1.0,800.0,2.61926603998
177,1_35_2,35,2.0,1061.50735422,1_I,test,05,2,16.0,11110,kill,1.0,900.0,1.77099916991
178,1_35_2,35,2.0,1064.63246126,1_I,test,05,2,17.0,11101,kill,0.0,800.0,0.905435895496
179,1_35_2,35,2.0,1068.19516668,1_I,test,05,2,18.0,00110,kill,1.0,900.0,1.34697165134
180,1_35_2,35,2.0,1071.69539288,1_I,test,05,2,19.0,00101,kill,1.0,1000.0,1.25484526754
181,1_35_2,35,2.0,1075.24557676,1_I,test,05,2,20.0,11010,ignore,1.0,1100.0,1.36184388242
182,1_35_2,35,2.0,1082.08967594,1_I,test,05,2,21.0,10001,ignore,1.0,1200.0,4.00098567993
183,1_35_2,35,2.0,1087.10553795,1_I,test,05,2,22.0,11100,ignore,1.0,1300.0,1.47975435592
184,1_35_2,35,2.0,1092.77769818,1_I,test,05,2,23.0,00011,ignore,1.0,1400.0,3.28415374801
185,1_35_2,35,2.0,1096.93412694,1_I,test,05,2,24.0,00010,ignore,1.0,1500.0,1.91698653711
186,1_35_2,35,2.0,1100.4967753,1_I,test,05,2,25.0,00111,kill,1.0,1600.0,1.37866899957
187,1_35_2,35,2.0,1104.15323731,1_I,test,05,2,26.0,00100,kill,1.0,1700.0,1.45030301139
188,1_35_2,35,2.0,1108.52843529,1_I,test,05,2,27.0,01000,ignore,1.0,1800.0,2.18286107455
189,1_35_2,35,2.0,1113.63808674,1_I,test,05,3,0.0,11000,ignore,0.0,1700.0,1.23433647443
190,1_35_2,35,2.0,1118.15390852,1_I,test,05,3,1.0,01001,ignore,1.0,1800.0,2.35773613007
191,1_35_2,35,2.0,1122.1228323,1_I,test,05,3,2.0,01010,ignore,1.0,1900.0,0.832617507745
192,1_35_2,35,2.0,1126.04494512,1_I,test,05,3,3.0,11111,kill,0.0,1800.0,1.69488300337
193,1_35_2,35,2.0,1131.12330031,1_I,test,05,3,4.0,01011,ignore,1.0,1900.0,2.85862985153
194,1_35_2,35,2.0,1134.96720367,1_I,test,05,3,5.0,11001,ignore,0.0,1800.0,1.60866413069
195,1_35_2,35,2.0,1138.45179282,1_I,test,05,3,6.0,11000,ignore,0.0,1700.0,1.26780525493
196,1_35_2,35,2.0,1142.87388305,1_I,test,05,3,7.0,10100,kill,1.0,1800.0,2.18700372186
197,1_35_2,35,2.0,1156.60886447,1_I,test,05,3,8.0,11010,ignore,0.0,1700.0,11.5636377296
198,1_35_2,35,2.0,1159.89030298,1_I,test,05,3,9.0,11011,kill,1.0,1800.0,0.998705602324
199,1_35_2,35,2.0,1166.29686167,1_I,test,05,3,10.0,10110,ignore,0.0,1700.0,4.19644711854
200,1_35_2,35,2.0,1171.50023072,1_I,test,05,3,11.0,11101,ignore,1.0,1800.0,2.9478640591
201,1_35_2,35,2.0,1181.70389945,1_I,test,05,3,12.0,01100,kill,0.0,1700.0,7.95566903487
202,1_35_2,35,2.0,1186.73532544,1_I,test,05,3,13.0,10000,ignore,0.0,1600.0,2.87306199561
203,1_35_2,35,2.0,1190.14177657,1_I,test,05,3,14.0,01001,kill,0.0,1500.0,1.17579505083
204,1_35_2,35,2.0,1195.01699877,1_I,test,05,3,15.0,11100,ignore,0.0,1400.0,1.95868354871
205,1_35_2,35,2.0,1199.50161666,1_I,test,05,3,16.0,00111,kill,0.0,1300.0,2.25827277348
206,1_35_2,35,2.0,1206.48631502,1_I,test,05,3,17.0,01000,kill,0.0,1200.0,4.74020129054
207,1_35_2,35,2.0,1210.84588909,1_I,test,05,3,18.0,00100,ignore,1.0,1300.0,2.17029108963
208,1_35_2,35,2.0,1214.73670851,1_I,test,05,3,19.0,10010,kill,1.0,1400.0,1.69043902784
209,1_35_2,35,2.0,1217.97123424,1_I,test,05,3,20.0,10011,kill,1.0,1500.0,1.01622985021
210,1_35_2,35,2.0,1222.51834243,1_I,test,05,3,21.0,01010,kill,0.0,1400.0,2.25008723739
211,1_35_2,35,2.0,1239.7848266,1_I,test,05,3,22.0,10001,kill,1.0,1500.0,13.1035940986
212,1_35_2,35,2.0,1243.00372103,1_I,test,05,3,23.0,00010,kill,0.0,1400.0,1.06095902839
213,1_35_2,35,2.0,1246.97272487,1_I,test,05,3,24.0,00000,ignore,1.0,1500.0,1.72962442351
214,1_35_2,35,2.0,1250.97281765,1_I,test,05,3,25.0,11110,ignore,0.0,1400.0,1.78175502754
215,1_35_2,35,2.0,1256.26993221,1_I,test,05,3,26.0,00011,ignore,1.0,1500.0,3.06143565247
216,1_35_2,35,2.0,1261.4889461,1_I,test,05,3,27.0,00101,ignore,1.0,1600.0,2.5744531139
217,1_35_2,35,2.0,1267.19238863,1_I,test,05,3,28.0,01110,ignore,1.0,1700.0,3.53901461565
218,1_35_2,35,2.0,1271.06758455,1_I,test,05,3,29.0,00110,ignore,1.0,1800.0,1.64714629034
219,1_35_2,35,2.0,1275.63027602,1_I,test,05,3,30.0,00001,kill,0.0,1700.0,2.35815117481
220,1_35_2,35,2.0,1278.81792221,1_I,test,05,3,31.0,01101,ignore,1.0,1800.0,0.962462056865
221,1_35_2,35,2.0,1283.08375118,1_I,test,05,3,32.0,10111,ignore,1.0,1900.0,1.98707039175
222,1_35_2,35,2.0,1285.97555423,1_I,test,05,3,33.0,01111,ignore,1.0,2000.0,0.723113434888
223,1_35_2,35,2.0,1289.27155913,1_I,test,05,3,34.0,10101,ignore,1.0,2100.0,1.07227772117
224,1_35_2,35,2.0,1295.74063317,1_I,test,05,3,35.0,10000,ignore,0.0,2000.0,4.25402174654
225,1_35_2,35,2.0,1301.66278867,1_I,test,05,3,36.0,00010,kill,0.0,1900.0,1.70931966327
226,1_35_2,35,2.0,1305.03795586,1_I,test,05,3,37.0,00101,ignore,1.0,2000.0,1.17255310397
227,1_35_2,35,2.0,1308.39750037,1_I,test,05,3,38.0,10111,ignore,1.0,2100.0,1.1451511198
228,1_35_2,35,2.0,1312.08516012,1_I,test,05,3,39.0,00100,ignore,1.0,2200.0,1.09096787119
229,1_35_2,35,2.0,1315.33534178,1_I,test,05,3,40.0,11000,kill,1.0,2300.0,1.06435574465
230,1_35_2,35,2.0,1318.44483969,1_I,test,05,3,41.0,00111,ignore,1.0,2400.0,0.935849930334
231,1_35_2,35,2.0,1321.53876625,1_I,test,05,3,42.0,00110,ignore,1.0,2500.0,0.927854469141
232,1_35_2,35,2.0,1329.66731106,1_I,test,05,3,43.0,01000,ignore,1.0,2600.0,5.89524040984
233,1_35_2,35,2.0,1333.08936681,1_I,test,05,3,44.0,11010,kill,1.0,2700.0,1.01439601754
234,1_35_2,35,2.0,1336.85827228,1_I,test,05,3,45.0,11110,ignore,0.0,2600.0,1.60008818161
235,1_35_2,35,2.0,1342.15813902,1_I,test,05,3,46.0,11001,ignore,0.0,2500.0,1.51596218536
236,1_35_2,35,2.0,1345.86149575,1_I,test,05,3,47.0,00001,ignore,1.0,2600.0,1.39820401809
237,1_35_2,35,2.0,1349.04915468,1_I,test,05,3,48.0,01111,ignore,1.0,2700.0,0.945068767698
238,1_35_2,35,2.0,1352.18992135,1_I,test,05,3,49.0,11011,kill,1.0,2800.0,0.951830589493
239,1_35_2,35,2.0,1355.51818027,1_I,test,05,3,50.0,10011,kill,1.0,2900.0,1.09014435018
240,1_35_2,35,2.0,1358.84654019,1_I,test,05,3,51.0,10010,kill,1.0,3000.0,1.13338577156
241,1_35_2,35,2.0,1362.11228048,1_I,test,05,3,52.0,01101,ignore,1.0,3100.0,1.00205059194
242,1_35_2,35,2.0,1365.23740354,1_I,test,05,3,53.0,11100,kill,1.0,3200.0,0.923739327274
243,1_35_2,35,2.0,1368.86257011,1_I,test,05,3,54.0,01011,ignore,1.0,3300.0,1.39552901167
244,1_35_2,35,2.0,1374.89414676,1_I,test,05,3,55.0,01110,ignore,1.0,3400.0,3.7927838869
245,1_35_2,35,2.0,1378.11301779,1_I,test,05,3,56.0,10100,kill,1.0,3500.0,1.00964291374
246,1_35_2,35,2.0,1381.42572834,1_I,test,05,4,0.0,10101,kill,0.0,3400.0,1.09702358325
247,1_35_2,35,2.0,1384.69149039,1_I,test,05,4,1.0,01100,ignore,1.0,3500.0,1.08907615393
248,1_35_2,35,2.0,1388.47292439,1_I,test,05,4,2.0,01001,ignore,1.0,3600.0,1.56616371401
249,1_35_2,35,2.0,1392.5512923,1_I,test,05,4,3.0,11111,ignore,1.0,3700.0,1.91907736089
250,1_35_2,35,2.0,1395.80140089,1_I,test,05,4,4.0,10001,kill,0.0,3600.0,0.966238922905
251,1_35_2,35,2.0,1400.45788343,1_I,test,05,4,5.0,01010,kill,1.0,3700.0,1.28998654286
252,1_35_2,35,2.0,1404.0674146,1_I,test,05,4,6.0,00011,kill,1.0,3800.0,1.20863859579
253,1_35_2,35,2.0,1407.22385485,1_I,test,05,4,7.0,11101,ignore,1.0,3900.0,1.00783946021
254,1_35_2,35,2.0,1410.95835964,1_I,test,05,4,8.0,10110,ignore,0.0,3800.0,0.985627793136
255,1_35_2,35,2.0,1414.92730888,1_I,test,05,4,9.0,00000,kill,0.0,3700.0,1.76798137184
256,1_35_2,35,2.0,1418.42752974,1_I,test,05,4,10.0,01100,ignore,1.0,3800.0,1.21018998457
257,1_35_2,35,2.0,1421.63077768,1_I,test,05,4,11.0,00101,ignore,1.0,3900.0,0.946012984208
258,1_35_2,35,2.0,1427.13105725,1_I,test,05,4,12.0,11111,kill,0.0,3800.0,3.20219616549
259,1_35_2,35,2.0,1431.00621089,1_I,test,05,4,13.0,10000,ignore,1.0,3900.0,1.5799472224
260,1_35_2,35,2.0,1435.16265566,1_I,test,05,4,14.0,01011,ignore,0.0,3800.0,1.88064487524
261,1_35_2,35,2.0,1440.02230322,1_I,test,05,4,15.0,11110,ignore,1.0,3900.0,2.66180053057
262,1_35_2,35,2.0,1445.42885411,1_I,test,05,4,16.0,10101,ignore,1.0,4000.0,3.1737247535
263,1_35_2,35,2.0,1463.50780949,1_I,test,05,4,17.0,10010,ignore,0.0,3900.0,15.9149720717
264,1_35_2,35,2.0,1472.43009842,1_I,test,05,4,18.0,00100,ignore,1.0,4000.0,6.53672058006
265,1_35_2,35,2.0,1475.52402867,1_I,test,05,4,19.0,11100,kill,0.0,3900.0,0.921594313681
266,1_35_2,35,2.0,1478.60226357,1_I,test,05,4,20.0,00111,ignore,0.0,3800.0,0.911192331976
267,1_35_2,35,2.0,1485.96200226,1_I,test,05,4,21.0,10100,ignore,1.0,3900.0,5.19079577746
268,1_35_2,35,2.0,1489.33720312,1_I,test,05,4,22.0,01010,ignore,0.0,3800.0,1.20709336495
269,1_35_2,35,2.0,1500.43148519,1_I,test,05,4,23.0,00010,kill,1.0,3900.0,2.50708737123
270,1_35_2,35,2.0,1509.43195155,1_I,test,05,4,24.0,00001,kill,0.0,3800.0,6.06892575256
271,1_35_2,35,2.0,1513.51030222,1_I,test,05,4,25.0,01001,ignore,1.0,3900.0,1.9292026461
272,1_35_2,35,2.0,1517.61981861,1_I,test,05,4,26.0,11001,ignore,1.0,4000.0,1.92321220814
273,1_35_2,35,2.0,1521.60437698,1_I,test,05,4,27.0,00000,ignore,1.0,4100.0,1.77772814939
274,1_35_2,35,2.0,1524.85454796,1_I,test,05,4,28.0,10110,kill,1.0,4200.0,1.0459135541
275,1_35_2,35,2.0,1528.21404239,1_I,test,05,4,29.0,01000,ignore,1.0,4300.0,1.1640313447
276,1_35_2,35,2.0,1531.52669834,1_I,test,05,4,30.0,11101,kill,0.0,4200.0,1.16504699325
277,1_35_2,35,2.0,1534.91747712,1_I,test,05,4,31.0,10011,ignore,0.0,4100.0,1.18240702957
278,1_35_2,35,2.0,1538.18331019,1_I,test,05,4,32.0,11000,ignore,1.0,4200.0,1.10239863836
279,1_35_2,35,2.0,1542.15222248,1_I,test,05,4,33.0,01110,kill,1.0,4300.0,1.80818693188
280,1_35_2,35,2.0,1551.15272538,1_I,test,05,4,34.0,10001,ignore,1.0,4400.0,6.80232416841
281,1_35_2,35,2.0,1555.79351914,1_I,test,05,4,35.0,10111,ignore,0.0,4300.0,2.26834551099
282,1_35_2,35,2.0,1559.137473,1_I,test,05,4,36.0,11010,ignore,1.0,4400.0,1.1561052629
283,1_35_2,35,2.0,1562.15318353,1_I,test,05,4,37.0,00011,ignore,0.0,4300.0,0.830587442251
284,1_35_2,35,2.0,1572.09116616,1_I,test,05,4,38.0,01111,ignore,0.0,4200.0,7.76993795266
285,1_35_2,35,2.0,1575.21641483,1_I,test,05,4,39.0,00110,ignore,0.0,4100.0,0.930788519312
286,1_35_2,35,2.0,1579.126431,1_I,test,05,4,40.0,11011,ignore,1.0,4200.0,1.77563814668
287,1_35_2,35,2.0,1583.54850153,1_I,test,05,4,41.0,01101,ignore,1.0,4300.0,2.23619411778
288,1_35_2,35,2.0,1587.57997596,1_I,test,05,4,42.0,10111,ignore,0.0,4200.0,1.65725392281
289,1_35_2,35,2.0,1592.95518461,1_I,test,05,4,43.0,01000,ignore,1.0,4300.0,3.23894301941
290,1_35_2,35,2.0,1597.54916289,1_I,test,05,4,44.0,00110,kill,1.0,4400.0,1.80240134785
291,1_35_2,35,2.0,1600.64306481,1_I,test,05,4,45.0,10100,kill,0.0,4300.0,0.921435438991
292,1_35_2,35,2.0,1604.2526124,1_I,test,05,4,46.0,11010,ignore,1.0,4400.0,1.16970895963
293,1_35_2,35,2.0,1607.61219098,1_I,test,05,4,47.0,11101,ignore,1.0,4500.0,1.16311627575
294,1_35_2,35,2.0,1612.08112667,1_I,test,05,4,48.0,01010,ignore,0.0,4400.0,2.33576913824
295,1_35_2,35,2.0,1615.34690022,1_I,test,05,4,49.0,11000,ignore,1.0,4500.0,1.06091263863
296,1_35_2,35,2.0,1618.51894221,1_I,test,05,4,50.0,01011,kill,1.0,4600.0,1.01072917325
297,1_35_2,35,2.0,1624.36297489,1_I,test,05,4,51.0,10001,ignore,1.0,4700.0,1.60538934152
298,1_35_2,35,2.0,1628.12875008,1_I,test,05,4,52.0,00011,kill,1.0,4800.0,1.53469420932
299,1_35_2,35,2.0,1631.89465459,1_I,test,05,4,53.0,10101,ignore,1.0,4900.0,1.55518863393
300,1_35_2,35,2.0,1635.69162669,1_I,test,05,4,54.0,01100,kill,0.0,4800.0,1.55141135736
301,1_35_2,35,2.0,1640.25433703,1_I,test,05,4,55.0,10011,ignore,0.0,4700.0,2.31637205743
302,1_35_2,35,2.0,1645.66090106,1_I,test,05,4,56.0,11111,kill,0.0,4600.0,3.23571626212
303,1_35_2,35,2.0,1649.48919283,1_I,test,05,4,57.0,00010,ignore,0.0,4500.0,1.5669359189
304,1_35_2,35,2.0,1653.33315325,1_I,test,05,4,58.0,11100,ignore,1.0,4600.0,1.59974169521
305,1_35_2,35,2.0,1656.92706461,1_I,test,05,4,59.0,01111,ignore,0.0,4500.0,1.16177795147
306,1_35_2,35,2.0,1660.2553769,1_I,test,05,4,60.0,00001,ignore,1.0,4600.0,1.11864778343
307,1_35_2,35,2.0,1663.4898353,1_I,test,05,4,61.0,01110,ignore,0.0,4500.0,1.08385627875
308,1_35_2,35,2.0,1667.06813056,1_I,test,05,4,62.0,00000,ignore,1.0,4600.0,1.323762399
309,1_35_2,35,2.0,1670.19329836,1_I,test,05,4,63.0,11011,ignore,1.0,4700.0,0.902861879189
310,1_35_2,35,2.0,1675.41234674,1_I,test,05,4,64.0,00101,kill,0.0,4600.0,1.1301651722
311,1_35_2,35,2.0,1680.83446612,1_I,test,05,4,65.0,00111,kill,1.0,4700.0,3.21109930613
312,1_35_2,35,2.0,1683.64709949,1_I,test,05,4,66.0,10110,kill,1.0,4800.0,0.66115969493
313,1_35_2,35,2.0,1687.39730003,1_I,test,05,4,67.0,10010,ignore,0.0,4700.0,1.4945740393
314,1_35_2,35,2.0,1690.63178635,1_I,test,05,4,68.0,11001,ignore,1.0,4800.0,1.01932564878
315,1_35_2,35,2.0,1694.63202856,1_I,test,05,4,69.0,10000,ignore,1.0,4900.0,1.77490617362
316,1_35_2,35,2.0,1697.67901524,1_I,test,05,4,70.0,01001,ignore,1.0,5000.0,0.854413719549
317,1_35_2,35,2.0,1701.33543989,1_I,test,05,4,71.0,01101,ignore,1.0,5100.0,0.862777014649
318,1_35_2,35,2.0,1704.80443429,1_I,test,05,4,72.0,00100,ignore,1.0,5200.0,1.12509144532
319,1_35_2,35,2.0,1707.92950356,1_I,test,05,4,73.0,11110,kill,0.0,5100.0,0.865041902689
320,1_35_2,35,2.0,1711.1796922,1_I,test,05,4,74.0,00001,ignore,1.0,5200.0,0.982736848502
321,1_35_2,35,2.0,1715.0860953,1_I,test,05,4,75.0,01001,ignore,1.0,5300.0,1.25379102928
322,1_35_2,35,2.0,1718.13315998,1_I,test,05,4,76.0,10100,ignore,1.0,5400.0,0.837274547783
323,1_35_2,35,2.0,1722.93024867,1_I,test,05,4,77.0,11011,ignore,1.0,5500.0,1.85274984585
324,1_35_2,35,2.0,1727.07108555,1_I,test,05,4,78.0,01111,kill,1.0,5600.0,1.82320859549
325,1_35_2,35,2.0,1730.36808474,1_I,test,05,4,79.0,11110,kill,0.0,5500.0,0.914211772164
326,1_35_2,35,2.0,1733.97764506,1_I,test,05,4,80.0,10111,kill,1.0,5600.0,1.39304120643
327,1_35_2,35,2.0,1737.44658321,1_I,test,05,4,81.0,10001,ignore,1.0,5700.0,1.12771595669
328,1_35_2,35,2.0,1744.71694236,1_I,test,05,4,82.0,10010,ignore,0.0,5600.0,4.18984827672
329,1_35_2,35,2.0,1748.31085455,1_I,test,05,4,83.0,00100,ignore,1.0,5700.0,1.31679284957
330,1_35_2,35,2.0,1752.02979003,1_I,test,05,4,84.0,01010,kill,1.0,5800.0,1.47564290881
331,1_35_2,35,2.0,1755.79559314,1_I,test,05,4,85.0,11111,kill,0.0,5700.0,1.12646466454
332,1_35_2,35,2.0,1759.99891374,1_I,test,05,4,86.0,01100,ignore,1.0,5800.0,1.30514162837
333,1_35_2,35,2.0,1763.67710176,1_I,test,05,4,87.0,11000,ignore,1.0,5900.0,1.43868545357
334,1_35_2,35,2.0,1767.80856831,1_I,test,05,4,88.0,01110,kill,1.0,6000.0,1.3648021538
335,1_35_2,35,2.0,1772.35566624,1_I,test,05,4,89.0,10011,ignore,0.0,5900.0,1.6728786534
336,1_35_2,35,2.0,1776.55900696,1_I,test,05,4,90.0,00111,kill,1.0,6000.0,1.61381708966
337,1_35_2,35,2.0,1780.01228549,1_I,test,05,4,91.0,00010,kill,1.0,6100.0,0.933897454805
338,1_35_2,35,2.0,1783.77805534,1_I,test,05,4,92.0,11001,ignore,1.0,6200.0,1.5156645519
339,1_35_2,35,2.0,1787.49704501,1_I,test,05,4,93.0,00101,ignore,1.0,6300.0,1.55339174886
340,1_35_2,35,2.0,1791.93471071,1_I,test,05,4,94.0,00110,ignore,0.0,6200.0,1.8001007438
341,1_35_2,35,2.0,1795.89039945,1_I,test,05,4,95.0,11100,ignore,1.0,6300.0,1.35363617778
342,1_35_2,35,2.0,1801.40947919,1_I,test,05,4,96.0,11101,ignore,1.0,6400.0,1.0627620714
343,1_35_2,35,2.0,1804.83147501,1_I,test,05,5,0.0,10101,ignore,0.0,6300.0,1.1423529547
344,1_35_2,35,2.0,1809.5505242,1_I,test,05,5,1.0,01101,ignore,1.0,6400.0,2.57063683709
345,1_35_2,35,2.0,1815.22265241,1_I,test,05,5,2.0,10000,ignore,1.0,6500.0,3.48673088434
346,1_35_2,35,2.0,1820.87916697,1_I,test,05,5,3.0,10110,ignore,0.0,6400.0,3.51332002125
347,1_35_2,35,2.0,1829.92647756,1_I,test,05,5,4.0,01000,ignore,1.0,6500.0,6.91896118121
348,1_35_2,35,2.0,1833.53606989,1_I,test,05,5,5.0,00011,ignore,1.0,6600.0,1.47575416215
349,1_35_2,35,2.0,1836.94241018,1_I,test,05,5,6.0,00000,ignore,1.0,6700.0,1.26778596007
350,1_35_2,35,2.0,1840.20818619,1_I,test,05,5,7.0,01011,ignore,1.0,6800.0,1.10838989738
351,1_35_2,35,2.0,1845.66162318,1_I,test,05,5,8.0,11010,ignore,1.0,6900.0,3.34928908707
352,1_35_2,35,2.0,1848.94302967,1_I,test,05,5,9.0,00000,ignore,1.0,7000.0,1.1346653902
353,1_35_2,35,2.0,1852.34942949,1_I,test,05,5,10.0,00010,ignore,1.0,7100.0,1.28416236911
354,1_35_2,35,2.0,1855.20896497,1_I,test,05,5,11.0,10000,ignore,1.0,7200.0,0.656139747327
355,1_35_2,35,2.0,1858.9747574,1_I,test,05,5,12.0,00111,kill,1.0,7300.0,1.60478011661
356,1_35_2,35,2.0,1862.11554747,1_I,test,05,5,13.0,00101,ignore,0.0,7200.0,1.00559017227
357,1_35_2,35,2.0,1865.39073321,1_I,test,05,5,14.0,11011,ignore,1.0,7300.0,1.14307220136
358,1_35_2,35,2.0,1874.34741708,1_I,test,05,5,15.0,01010,ignore,1.0,7400.0,6.86432635078
359,1_35_2,35,2.0,1877.95694619,1_I,test,05,5,16.0,10011,ignore,1.0,7500.0,1.14195268901
360,1_35_2,35,2.0,1882.06652293,1_I,test,05,5,17.0,11010,ignore,1.0,7600.0,1.96456601756
361,1_35_2,35,2.0,1885.56670151,1_I,test,05,5,18.0,01110,kill,1.0,7700.0,1.3774016968
362,1_35_2,35,2.0,1888.91057079,1_I,test,05,5,19.0,11000,ignore,1.0,7800.0,0.995232938214
363,1_35_2,35,2.0,1891.93222701,1_I,test,05,5,20.0,10001,ignore,1.0,7900.0,0.921116868551
364,1_35_2,35,2.0,1895.34453557,1_I,test,05,5,21.0,00110,kill,1.0,8000.0,1.29135647786
365,1_35_2,35,2.0,1898.20399387,1_I,test,05,5,22.0,11001,ignore,1.0,8100.0,0.7109896949
366,1_35_2,35,2.0,1901.14165793,1_I,test,05,5,23.0,01001,ignore,1.0,8200.0,0.838750809769
367,1_35_2,35,2.0,1904.07929982,1_I,test,05,6,0.0,01000,ignore,1.0,8300.0,0.781132255175
368,1_35_2,35,2.0,1907.32945561,1_I,test,05,6,1.0,00011,ignore,1.0,8400.0,1.1505245328
369,1_35_2,35,2.0,1910.64214687,1_I,test,05,6,2.0,11101,ignore,1.0,8500.0,1.17976034964
370,1_35_2,35,2.0,1914.78293858,1_I,test,05,6,3.0,10110,kill,1.0,8600.0,1.97433824791
371,1_35_2,35,2.0,1918.11123568,1_I,test,05,6,4.0,10010,ignore,0.0,8500.0,1.06216803605
372,1_35_2,35,2.0,1921.34579754,1_I,test,05,6,5.0,01101,ignore,1.0,8600.0,0.874797711876
373,1_35_2,35,2.0,1925.23021887,1_I,test,05,6,6.0,11111,kill,0.0,8500.0,1.70999949915
374,1_35_2,35,2.0,1928.23036707,1_I,test,05,6,7.0,10100,ignore,0.0,8400.0,0.89170288216
375,1_35_2,35,2.0,1931.59620211,1_I,test,05,6,8.0,10101,ignore,1.0,8500.0,0.921445291686
376,1_35_2,35,2.0,1935.19989556,1_I,test,05,6,9.0,11100,kill,1.0,8600.0,1.34485537477
377,1_35_2,35,2.0,1938.36628375,1_I,test,05,6,10.0,11110,kill,1.0,8700.0,1.01603608056
378,1_35_2,35,2.0,1941.75708676,1_I,test,05,6,11.0,01111,ignore,1.0,8800.0,1.28782716076
379,1_35_2,35,2.0,1946.38539962,1_I,test,05,6,12.0,10111,ignore,1.0,8900.0,2.53598819647
380,1_35_2,35,2.0,1949.79181586,1_I,test,05,6,13.0,00100,ignore,1.0,9000.0,1.28081040051
381,1_35_2,35,2.0,1952.96385868,1_I,test,05,6,14.0,01011,ignore,1.0,9100.0,1.13471834842
382,1_35_2,35,2.0,1956.05772899,1_I,test,05,6,15.0,01100,ignore,1.0,9200.0,0.946465387078
383,1_35_2,35,2.0,1959.18290952,1_I,test,05,6,16.0,00001,ignore,1.0,9300.0,1.00966385071
384,1_35_2,35,2.0,1962.58931221,1_I,test,05,6,17.0,10100,kill,1.0,9400.0,1.32486672179
385,1_35_2,35,2.0,1965.83261381,1_I,test,05,7,0.0,11011,ignore,1.0,9500.0,0.857569865864
386,1_35_2,35,2.0,1969.4734006,1_I,test,05,7,1.0,10110,kill,1.0,9600.0,1.58898009017
387,1_35_2,35,2.0,1972.71732251,1_I,test,05,7,2.0,00110,ignore,0.0,9500.0,1.09843662378
388,1_35_2,35,2.0,1976.14777276,1_I,test,05,7,3.0,01110,ignore,0.0,9400.0,1.25025842795
389,1_35_2,35,2.0,1979.51041758,1_I,test,05,7,4.0,00000,ignore,1.0,9500.0,1.30071530559
390,1_35_2,35,2.0,1982.5105588,1_I,test,05,7,5.0,01001,ignore,1.0,9600.0,0.955813541052
391,1_35_2,35,2.0,1985.85456069,1_I,test,05,7,6.0,01111,ignore,0.0,9500.0,1.16988261336
392,1_35_2,35,2.0,1990.37029257,1_I,test,05,7,7.0,00100,ignore,1.0,9600.0,2.3007510216
393,1_35_2,35,2.0,1993.49548582,1_I,test,05,7,8.0,01000,kill,0.0,9500.0,0.920859466922
394,1_35_2,35,2.0,1996.82377143,1_I,test,05,7,9.0,00111,ignore,0.0,9400.0,1.18416573545
395,1_35_2,35,2.0,2000.52704729,1_I,test,05,7,10.0,11110,kill,0.0,9300.0,1.49020560109
396,1_35_2,35,2.0,2005.32420249,1_I,test,05,7,11.0,00011,ignore,0.0,9200.0,2.69562975546
397,1_35_2,35,2.0,2008.41803872,1_I,test,05,7,12.0,00010,kill,1.0,9300.0,1.000049674
398,1_35_2,35,2.0,2011.48072567,1_I,test,05,7,13.0,01011,kill,1.0,9400.0,0.699814276719
399,1_35_2,35,2.0,2015.62156623,1_I,test,05,7,14.0,11000,kill,0.0,9300.0,1.98181192685
400,1_35_2,35,2.0,2019.13734902,1_I,test,05,7,15.0,01010,kill,1.0,9400.0,1.34595764491
401,1_35_2,35,2.0,2022.55943925,1_I,test,05,7,16.0,10010,ignore,0.0,9300.0,1.18782395863
402,1_35_2,35,2.0,2026.27829673,1_I,test,05,7,17.0,10011,kill,1.0,9400.0,1.28579750579
403,1_35_2,35,2.0,2029.40344196,1_I,test,05,7,18.0,10001,kill,0.0,9300.0,0.996258028921
404,1_35_2,35,2.0,2033.27865348,1_I,test,05,7,19.0,10000,ignore,1.0,9400.0,1.36561459053
405,1_35_2,35,2.0,2037.38820928,1_I,test,05,7,20.0,11111,ignore,1.0,9500.0,2.01431678546
406,1_35_2,35,2.0,2040.63835235,1_I,test,05,7,21.0,10111,ignore,0.0,9400.0,0.987166455518
407,1_35_2,35,2.0,2044.74797096,1_I,test,05,7,22.0,00001,kill,0.0,9300.0,1.80716964122
408,1_35_2,35,2.0,2047.93563851,1_I,test,05,7,23.0,01100,ignore,1.0,9400.0,1.01262622738
409,1_35_2,35,2.0,2050.99825854,1_I,test,05,7,24.0,11010,kill,0.0,9300.0,1.01611243895
410,1_35_2,35,2.0,2053.92025476,1_I,test,05,7,25.0,11100,ignore,1.0,9400.0,0.819068821886
411,1_35_2,35,2.0,2057.10790917,1_I,test,05,7,26.0,10101,ignore,1.0,9500.0,0.961978864329
412,1_35_2,35,2.0,2063.23324241,1_I,test,05,7,27.0,01101,ignore,1.0,9600.0,3.99792231315
413,1_35_2,35,2.0,2066.70210954,1_I,test,05,7,28.0,11001,ignore,1.0,9700.0,1.38740587598
414,1_35_2,35,2.0,2069.63979659,1_I,test,05,7,29.0,00101,ignore,1.0,9800.0,0.772400715636
415,1_35_2,35,2.0,2072.43675186,1_I,test,05,7,30.0,11101,ignore,1.0,9900.0,0.677231902038
416,1_35_2,35,2.0,2075.15565573,1_I,test,05,7,31.0,01100,ignore,1.0,10000.0,0.289480360705
417,1_35_2,35,2.0,2077.54643657,1_I,test,05,7,32.0,11010,ignore,1.0,10100.0,0.365018913068
418,1_35_2,35,2.0,2079.96841062,1_I,test,05,7,33.0,10001,ignore,1.0,10200.0,0.255145364183
419,1_35_2,35,2.0,2082.34354456,1_I,test,05,7,34.0,01000,ignore,1.0,10300.0,0.270132132839
420,1_35_2,35,2.0,2084.70297248,1_I,test,05,8,0.0,10111,ignore,1.0,10400.0,0.258634449452
421,1_35_2,35,2.0,2087.06250303,1_I,test,05,8,1.0,10110,ignore,1.0,10500.0,0.22872002831
422,1_35_2,35,2.0,2089.35951618,1_I,test,05,8,2.0,00110,ignore,1.0,10600.0,0.249811772494
423,1_35_2,35,2.0,2091.56272718,1_I,test,05,8,3.0,11000,ignore,1.0,10700.0,0.0550293487104
424,1_35_2,35,2.0,2093.90659933,1_I,test,05,8,4.0,11110,ignore,1.0,10800.0,0.247736138284
425,1_35_2,35,2.0,2096.23480078,1_I,test,05,8,5.0,00011,ignore,0.0,10700.0,0.235508123958
426,1_35_2,35,2.0,2099.20372005,1_I,test,05,8,6.0,10011,ignore,1.0,10800.0,0.856058298388
427,1_35_2,35,2.0,2101.92259641,1_I,test,05,8,7.0,10101,ignore,1.0,10900.0,0.65901714451
428,1_35_2,35,2.0,2104.844607,1_I,test,05,8,8.0,01011,ignore,0.0,10800.0,0.812846435092
429,1_35_2,35,2.0,2108.32915018,1_I,test,05,8,9.0,01111,ignore,0.0,10700.0,1.38437986733
430,1_35_2,35,2.0,2111.23558243,1_I,test,05,8,10.0,10000,ignore,1.0,10800.0,0.68479548681
431,1_35_2,35,2.0,2114.00131205,1_I,test,05,8,11.0,11011,ignore,1.0,10900.0,0.476623662395
432,1_35_2,35,2.0,2117.12644373,1_I,test,05,8,12.0,00000,kill,1.0,11000.0,0.996752716263
433,1_35_2,35,2.0,2119.89224971,1_I,test,05,8,13.0,11111,ignore,1.0,11100.0,0.672672567882
434,1_35_2,35,2.0,2123.29865609,1_I,test,05,8,14.0,01001,kill,1.0,11200.0,0.92605019455
435,1_35_2,35,2.0,2126.22065355,1_I,test,05,8,15.0,10100,ignore,1.0,11300.0,0.480924363328
436,1_35_2,35,2.0,2130.86153599,1_I,test,05,8,16.0,01010,kill,1.0,11400.0,2.18254619887
437,1_35_2,35,2.0,2133.98665247,1_I,test,05,8,17.0,01110,kill,1.0,11500.0,1.00473709318
438,1_35_2,35,2.0,2137.08057862,1_I,test,05,8,18.0,00001,kill,1.0,11600.0,0.996175102078
439,1_35_2,35,2.0,2140.65883897,1_I,test,05,8,19.0,00100,kill,0.0,11500.0,1.19915537781
440,1_35_2,35,2.0,2144.01839785,1_I,test,05,8,20.0,01101,kill,1.0,11600.0,1.28641288864
441,1_35_2,35,2.0,2147.59668777,1_I,test,05,8,21.0,00010,kill,1.0,11700.0,1.33575518026
442,1_35_2,35,2.0,2151.22193686,1_I,test,05,8,22.0,00111,kill,0.0,11600.0,1.42553333864
443,1_35_2,35,2.0,2155.11270045,1_I,test,05,8,23.0,10010,ignore,1.0,11700.0,1.78369272403
444,1_35_2,35,2.0,2158.75350284,1_I,test,05,8,24.0,00101,ignore,1.0,11800.0,1.42633510162
