,unique_id,pair_id,sbj_id,wall_time,condition,block,rule_id,rule_num,trial,stimulus,choice,correct,points,reaction_time
0,1_2_2,2,2.0,33.8684977891,1_I,training,02,1_B,1.0,11111,kill,0.0,0.0,3.95043316941
1,1_2_2,2,2.0,39.0718478679,1_I,training,02,1_B,2.0,00000,ignore,1.0,100.0,3.0706183343
2,1_2_2,2,2.0,45.6598268472,1_I,training,02,1_B,3.0,10101,kill,0.0,0.0,4.36980470737
3,1_2_2,2,2.0,49.2017346482,1_I,training,02,1_B,4.0,01011,ignore,0.0,0.0,1.4264092323
4,1_2_2,2,2.0,54.5926376595,1_I,training,02,1_B,5.0,00001,ignore,1.0,100.0,3.24088636441
5,1_2_2,2,2.0,59.2959427854,1_I,training,02,1_B,6.0,01000,ignore,0.0,0.0,2.55466005551
6,1_2_2,2,2.0,63.655575822,1_I,training,02,1_B,7.0,00100,ignore,0.0,0.0,2.21089929196
7,1_2_2,2,2.0,70.7027689754,1_I,training,02,1_B,8.0,11100,ignore,1.0,100.0,4.89275346969
8,1_2_2,2,2.0,74.5623734802,1_I,training,02,1_B,9.0,01110,ignore,0.0,0.0,1.71949227447
9,1_2_2,2,2.0,81.015779904,1_I,training,02,1_B,10.0,01010,kill,1.0,100.0,4.32211850898
10,1_2_2,2,2.0,84.3128179802,1_I,training,02,1_B,11.0,10111,kill,0.0,0.0,1.16255419493
11,1_2_2,2,2.0,87.7192233781,1_I,training,02,1_B,12.0,00110,kill,1.0,100.0,1.22006680945
12,1_2_2,2,2.0,91.3912942452,1_I,training,02,1_B,13.0,01111,ignore,0.0,0.0,1.53069133452
13,1_2_2,2,2.0,101.965564028,1_I,training,02,1_B,14.0,00111,ignore,0.0,0.0,8.39689262579
14,1_2_2,2,2.0,107.501454298,1_I,training,02,1_B,15.0,10011,kill,0.0,0.0,3.40773304793
15,1_2_2,2,2.0,111.282892898,1_I,training,02,1_B,16.0,10110,kill,0.0,0.0,1.64251895514
16,1_2_2,2,2.0,116.454951654,1_I,training,02,1_B,17.0,01100,ignore,0.0,0.0,3.04609334685
17,1_2_2,2,2.0,121.142719498,1_I,training,02,1_B,18.0,00010,ignore,1.0,100.0,2.55576971472
18,1_2_2,2,2.0,124.705353664,1_I,training,02,1_B,19.0,00011,ignore,1.0,200.0,1.4289282367
19,1_2_2,2,2.0,128.268021904,1_I,training,02,1_B,20.0,10100,kill,0.0,100.0,1.42201205887
20,1_2_2,2,2.0,161.910302342,1_I,training,02,1_B,21.0,11000,,,0.0,
21,1_2_2,2,2.0,167.644958727,1_I,training,02,1_B,22.0,11110,kill,0.0,0.0,3.63867476394
22,1_2_2,2,2.0,171.457612291,1_I,training,02,1_B,23.0,01001,ignore,0.0,0.0,1.68813362547
23,1_2_2,2,2.0,181.80185912,1_I,training,02,1_B,24.0,10010,kill,0.0,0.0,8.24402403564
24,1_2_2,2,2.0,186.03647589,1_I,training,02,1_B,25.0,01101,ignore,0.0,0.0,2.08477870242
25,1_2_2,2,2.0,189.739760489,1_I,training,02,1_B,26.0,11001,ignore,1.0,100.0,1.56981677692
26,1_2_2,2,2.0,198.552646412,1_I,training,02,1_B,27.0,00101,kill,1.0,200.0,6.7079346586
27,1_2_2,2,2.0,202.505998441,1_I,training,02,1_B,28.0,11010,kill,0.0,100.0,1.85666511897
28,1_2_2,2,2.0,207.02180195,1_I,training,02,1_B,29.0,11101,kill,0.0,0.0,2.38881218843
29,1_2_2,2,2.0,229.413491535,1_I,training,02,1_B,30.0,10000,kill,0.0,0.0,20.2556263991
30,1_2_2,2,2.0,232.491783062,1_I,training,02,1_B,31.0,10001,ignore,1.0,100.0,0.965601796146
31,1_2_2,2,2.0,237.007651024,1_I,training,02,1_B,32.0,11011,kill,0.0,0.0,2.38962339324
32,1_2_2,2,2.0,240.507826936,1_I,training,02,1_B,33.0,01000,ignore,0.0,0.0,1.37308277943
33,1_2_2,2,2.0,245.804961076,1_I,training,02,1_B,34.0,00000,ignore,1.0,100.0,3.18171275057
34,1_2_2,2,2.0,249.211359084,1_I,training,02,1_B,35.0,00111,kill,1.0,200.0,1.26591383905
35,1_2_2,2,2.0,252.33649851,1_I,training,02,1_B,36.0,10010,kill,0.0,100.0,1.02536657138
36,1_2_2,2,2.0,256.164842482,1_I,training,02,1_B,37.0,11011,kill,0.0,0.0,1.6932791928
37,1_2_2,2,2.0,259.149336811,1_I,training,02,1_B,38.0,01010,kill,1.0,100.0,0.863520949077
38,1_2_2,2,2.0,263.071363444,1_I,training,02,1_B,39.0,10110,ignore,1.0,200.0,1.79210208372
39,1_2_2,2,2.0,267.618499329,1_I,training,02,1_B,40.0,11000,ignore,1.0,300.0,2.41926397943
40,1_2_2,2,2.0,271.853042203,1_I,training,02,1_B,41.0,01101,kill,1.0,400.0,2.09978599136
41,1_2_2,2,2.0,276.103297244,1_I,training,02,1_B,42.0,00010,kill,0.0,300.0,2.08414689868
42,1_2_2,2,2.0,282.447315819,1_I,training,02,1_B,43.0,11100,ignore,1.0,400.0,4.21655678865
43,1_2_2,2,2.0,286.666299654,1_I,training,02,1_B,44.0,00001,ignore,1.0,500.0,1.9550668074
44,1_2_2,2,2.0,290.919677998,1_I,training,02,1_B,45.0,00110,kill,1.0,600.0,2.1188472517
45,1_2_2,2,2.0,295.419868278,1_I,training,02,1_B,46.0,10111,kill,0.0,500.0,2.26755554351
46,1_2_2,2,2.0,299.732611542,1_I,training,02,1_B,47.0,01001,ignore,0.0,400.0,2.15322533964
47,1_2_2,2,2.0,305.73284349,1_I,training,02,1_B,48.0,01100,ignore,0.0,300.0,3.86820097681
48,1_2_2,2,2.0,309.404937347,1_I,training,02,1_B,49.0,10100,kill,0.0,200.0,1.5163211862
49,1_2_2,2,2.0,314.311447225,1_I,training,02,1_B,50.0,10001,ignore,1.0,300.0,2.75578999484
50,1_2_2,2,2.0,319.608542364,1_I,training,02,1_B,51.0,10101,kill,0.0,200.0,3.15539005773
51,1_2_2,2,2.0,334.640506133,1_I,training,02,1_B,52.0,11101,kill,0.0,100.0,12.8902804445
52,1_2_2,2,2.0,340.359527531,1_I,training,02,1_B,53.0,00011,ignore,1.0,200.0,3.59693753764
53,1_2_2,2,2.0,358.860422689,1_I,training,02,1_B,54.0,11111,kill,0.0,100.0,16.3797325241
54,1_2_2,2,2.0,365.032573814,1_I,training,02,1_B,55.0,11010,kill,0.0,0.0,4.05533147528
55,1_2_2,2,2.0,370.407841428,1_I,training,02,1_B,56.0,11110,kill,0.0,0.0,3.2529013093
56,1_2_2,2,2.0,384.189757061,1_I,training,02,1_B,57.0,10011,kill,0.0,0.0,11.6640240931
57,1_2_2,2,2.0,387.580560725,1_I,training,02,1_B,58.0,11001,ignore,1.0,100.0,1.26574429067
58,1_2_2,2,2.0,396.627875805,1_I,training,02,1_B,59.0,01110,kill,1.0,200.0,6.94172708624
59,1_2_2,2,2.0,399.752997989,1_I,training,02,1_B,60.0,01111,kill,1.0,300.0,0.987698095516
60,1_2_2,2,2.0,403.128163791,1_I,training,02,1_B,61.0,01011,ignore,0.0,200.0,1.24384011876
61,1_2_2,2,2.0,407.487738533,1_I,training,02,1_B,62.0,10000,ignore,1.0,300.0,2.22080494014
62,1_2_2,2,2.0,411.003556411,1_I,training,02,1_B,63.0,00101,ignore,0.0,200.0,1.36590016844
63,1_2_2,2,2.0,415.269331901,1_I,training,02,1_B,64.0,00100,kill,1.0,300.0,2.12636936996
64,1_2_2,2,2.0,419.957088661,1_I,training,02,1_B,65.0,01111,kill,1.0,400.0,2.57100484711
65,1_2_2,2,2.0,423.519812323,1_I,training,02,1_B,66.0,11100,kill,0.0,300.0,1.44209512526
66,1_2_2,2,2.0,426.973059872,1_I,training,02,1_B,67.0,01000,ignore,0.0,200.0,1.32906506593
67,1_2_2,2,2.0,430.113828948,1_I,training,02,1_B,68.0,10001,ignore,1.0,300.0,0.99211907961
68,1_2_2,2,2.0,436.098520742,1_I,training,02,1_B,69.0,10010,ignore,1.0,400.0,3.84935729672
69,1_2_2,2,2.0,439.036139667,1_I,training,02,1_B,70.0,11110,ignore,1.0,500.0,0.808551149625
70,1_2_2,2,2.0,442.817529003,1_I,training,02,1_B,71.0,10111,kill,0.0,400.0,1.66291648655
71,1_2_2,2,2.0,446.958367459,1_I,training,02,1_B,72.0,00010,ignore,1.0,500.0,2.013223131
72,1_2_2,2,2.0,450.333571029,1_I,training,02,1_B,73.0,01100,kill,1.0,600.0,1.22089525646
73,1_2_2,2,2.0,454.708767621,1_I,training,02,1_B,74.0,00101,kill,1.0,700.0,2.23143804526
74,1_2_2,2,2.0,458.068330868,1_I,training,02,1_B,75.0,10100,ignore,1.0,800.0,1.24099720717
75,1_2_2,2,2.0,461.724742527,1_I,training,02,1_B,76.0,10011,kill,0.0,700.0,1.51073594257
76,1_2_2,2,2.0,468.41254814,1_I,training,02,1_B,77.0,00100,kill,1.0,800.0,4.5397430829
77,1_2_2,2,2.0,473.334678226,1_I,training,02,1_B,78.0,11011,kill,0.0,700.0,2.71039290475
78,1_2_2,2,2.0,477.553624702,1_I,training,02,1_B,79.0,01001,ignore,0.0,600.0,2.07818150543
79,1_2_2,2,2.0,492.148083057,1_I,training,02,1_B,80.0,10110,kill,0.0,500.0,12.4614720822
80,1_2_2,2,2.0,498.804658516,1_I,training,02,1_B,81.0,00110,ignore,0.0,400.0,4.52661191034
81,1_2_2,2,2.0,501.461060322,1_I,training,02,1_B,82.0,01110,ignore,0.0,300.0,0.570363601208
82,1_2_2,2,2.0,505.617477523,1_I,training,02,1_B,83.0,01011,kill,1.0,400.0,2.01155022635
83,1_2_2,2,2.0,529.368637985,1_I,training,02,1_B,84.0,11010,ignore,1.0,500.0,21.6577122136
84,1_2_2,2,2.0,532.900039123,1_I,training,02,1_B,85.0,11001,kill,0.0,400.0,1.41303872148
85,1_2_2,2,2.0,544.99434004,1_I,training,02,1_B,86.0,11101,kill,0.0,300.0,9.98197943005
86,1_2_2,2,2.0,548.338293752,1_I,training,02,1_B,87.0,01010,kill,1.0,400.0,1.21524638088
87,1_2_2,2,2.0,553.979146782,1_I,training,02,1_B,88.0,10101,ignore,1.0,500.0,3.46826715404
88,1_2_2,2,2.0,558.588775816,1_I,training,02,1_B,89.0,01101,kill,1.0,600.0,2.469387487
89,1_2_2,2,2.0,562.479622379,1_I,training,02,1_B,90.0,11000,ignore,1.0,700.0,1.7901939461
90,1_2_2,2,2.0,565.72977602,1_I,training,02,1_B,91.0,00111,kill,1.0,800.0,1.11949752923
91,1_2_2,2,2.0,572.651999296,1_I,training,02,1_B,92.0,00000,ignore,1.0,900.0,4.7568774855
92,1_2_2,2,2.0,578.29291062,1_I,training,02,1_B,93.0,10000,ignore,1.0,1000.0,3.51682449445
93,1_2_2,2,2.0,585.183794542,1_I,training,02,1_B,94.0,00001,kill,0.0,900.0,4.73889714736
94,1_2_2,2,2.0,588.730853658,1_I,training,02,1_B,95.0,00011,kill,0.0,800.0,1.42371493212
95,1_2_2,2,2.0,591.777866178,1_I,training,02,1_B,96.0,11111,kill,0.0,700.0,0.91499591729
96,1_2_2,2,2.0,596.215565772,1_I,training,02,1_B,97.0,00110,ignore,0.0,600.0,2.28935297796
97,1_2_2,2,2.0,602.997152983,1_I,training,02,1_B,98.0,01110,kill,1.0,700.0,4.67271211302
98,1_2_2,2,2.0,608.153623963,1_I,training,02,1_B,99.0,10110,ignore,1.0,800.0,3.01714983848
99,1_2_2,2,2.0,627.763944327,1_I,training,02,1_B,100.0,11001,kill,0.0,700.0,17.4968744394
100,1_2_2,2,2.0,634.467400528,1_I,training,02,1_B,101.0,00001,ignore,1.0,800.0,4.54775783566
101,1_2_2,2,2.0,638.358212607,1_I,training,02,1_B,102.0,11010,ignore,1.0,900.0,1.76127383786
102,1_2_2,2,2.0,642.295906659,1_I,training,02,1_B,103.0,00011,kill,0.0,800.0,1.79845173188
103,1_2_2,2,2.0,645.546096426,1_I,training,02,1_B,104.0,01111,kill,1.0,900.0,1.10318147464
104,1_2_2,2,2.0,649.093112847,1_I,training,02,1_B,105.0,00000,kill,0.0,800.0,1.4208543678
105,1_2_2,2,2.0,652.296389851,1_I,training,02,1_B,106.0,10000,kill,0.0,700.0,1.07687807666
106,1_2_2,2,2.0,656.030910762,1_I,training,02,1_B,107.0,11101,kill,0.0,600.0,1.60020739912
107,1_2_2,2,2.0,664.15632319,1_I,training,02,1_B,108.0,11111,kill,0.0,500.0,6.01431719011
108,1_2_2,2,2.0,668.875291629,1_I,training,02,1_B,109.0,10100,ignore,1.0,600.0,2.58506791993
109,1_2_2,2,2.0,672.32857941,1_I,training,02,1_B,110.0,11110,ignore,1.0,700.0,1.27817551171
110,1_2_2,2,2.0,690.095143732,1_I,training,02,1_B,111.0,11100,ignore,1.0,800.0,15.6523999716
111,1_2_2,2,2.0,694.079623282,1_I,training,02,1_B,112.0,10010,kill,0.0,700.0,1.84346456706
112,1_2_2,2,2.0,697.673555339,1_I,training,02,1_B,113.0,00010,kill,0.0,600.0,1.48393785744
113,1_2_2,2,2.0,701.298760655,1_I,training,02,1_B,114.0,01101,kill,1.0,700.0,1.48869506458
114,1_2_2,2,2.0,705.533321592,1_I,training,02,1_B,115.0,11011,ignore,1.0,800.0,2.11351612536
115,1_2_2,2,2.0,710.533567499,1_I,training,02,1_B,116.0,01000,ignore,0.0,700.0,2.89632055398
116,1_2_2,2,2.0,717.018265245,1_I,training,02,1_B,117.0,10101,kill,0.0,600.0,4.36371738708
117,1_2_2,2,2.0,723.784203921,1_I,training,02,1_B,118.0,01100,kill,1.0,700.0,4.6486530757
118,1_2_2,2,2.0,727.268748951,1_I,training,02,1_B,119.0,10011,kill,0.0,600.0,1.34602606119
119,1_2_2,2,2.0,736.612972791,1_I,training,02,1_B,120.0,11000,kill,0.0,500.0,7.22105946796
120,1_2_2,2,2.0,741.08192717,1_I,training,02,1_B,121.0,10001,ignore,1.0,600.0,2.26820746317
121,1_2_2,2,2.0,752.129308756,1_I,training,02,1_B,122.0,10111,ignore,1.0,700.0,8.90625863393
122,1_2_2,2,2.0,755.395105184,1_I,training,02,1_B,123.0,01001,ignore,0.0,600.0,1.14787820269
123,1_2_2,2,2.0,775.411658524,1_I,training,02,1_B,124.0,01010,ignore,0.0,500.0,17.9270478098
124,1_2_2,2,2.0,779.583780091,1_I,training,02,1_B,125.0,00111,kill,1.0,600.0,2.04357064769
125,1_2_2,2,2.0,782.474536749,1_I,training,02,1_B,126.0,01011,kill,1.0,700.0,0.766953092574
126,1_2_2,2,2.0,786.146545626,1_I,training,02,1_B,127.0,00101,ignore,0.0,600.0,1.55629601258
127,1_2_2,2,2.0,788.943561329,1_I,training,02,1_B,128.0,00100,ignore,0.0,500.0,0.677419646181
128,1_2_2,2,2.0,793.178164961,1_I,training,02,1_B,129.0,11010,kill,0.0,400.0,2.1310095764
129,1_2_2,2,2.0,802.756723127,1_I,training,02,1_B,130.0,10010,kill,0.0,300.0,7.46483800741
130,1_2_2,2,2.0,805.553740882,1_I,training,02,1_B,131.0,00110,kill,1.0,400.0,0.697015825473
131,1_2_2,2,2.0,808.788297714,1_I,training,02,1_B,132.0,01111,ignore,0.0,300.0,1.13953256375
132,1_2_2,2,2.0,811.444639993,1_I,training,02,1_B,133.0,01011,ignore,0.0,200.0,0.535508478855
133,1_2_2,2,2.0,815.632346053,1_I,training,02,1_B,134.0,10111,kill,0.0,100.0,2.09181064936
134,1_2_2,2,2.0,818.351227871,1_I,training,02,1_B,135.0,10000,kill,0.0,0.0,0.615980734707
135,1_2_2,2,2.0,822.02328437,1_I,training,02,1_B,136.0,01000,ignore,0.0,0.0,1.5994688579
136,1_2_2,2,2.0,825.429724662,1_I,training,02,1_B,137.0,11110,kill,0.0,0.0,1.28621900149
137,1_2_2,2,2.0,828.05479943,1_I,training,02,1_B,138.0,01010,kill,1.0,100.0,0.508658667104
138,1_2_2,2,2.0,831.726914634,1_I,training,02,1_B,139.0,11000,ignore,1.0,200.0,1.58980583222
139,1_2_2,2,2.0,843.946226071,1_I,training,02,1_B,140.0,00001,ignore,1.0,300.0,10.0897686794
140,1_2_2,2,2.0,929.387792435,1_I,test,02,2,0.0,00010,kill,1.0,100.0,3.82701632221
141,1_2_2,2,2.0,933.388010836,1_I,test,02,2,1.0,01001,ignore,1.0,200.0,1.85780228361
142,1_2_2,2,2.0,937.153786943,1_I,test,02,2,2.0,01101,kill,0.0,100.0,1.6436979937
143,1_2_2,2,2.0,940.372735883,1_I,test,02,2,3.0,00111,kill,1.0,200.0,1.09515851131
144,1_2_2,2,2.0,945.748003496,1_I,test,02,2,4.0,00101,ignore,1.0,300.0,3.23093720019
145,1_2_2,2,2.0,950.279440351,1_I,test,02,2,5.0,11100,kill,0.0,200.0,2.43399949833
146,1_2_2,2,2.0,961.483088063,1_I,test,02,2,6.0,11101,kill,0.0,100.0,9.07553523712
147,1_2_2,2,2.0,975.264987276,1_I,test,02,2,7.0,11001,ignore,1.0,200.0,11.6540145812
148,1_2_2,2,2.0,979.687101967,1_I,test,02,2,8.0,01100,kill,0.0,100.0,2.29386550996
149,1_2_2,2,2.0,983.0310175,1_I,test,02,2,9.0,11111,kill,1.0,200.0,1.24293941868
150,1_2_2,2,2.0,988.59379453,1_I,test,02,2,10.0,00100,ignore,1.0,300.0,3.40584707886
151,1_2_2,2,2.0,992.547121516,1_I,test,02,2,11.0,10110,kill,1.0,400.0,1.83487630563
152,1_2_2,2,2.0,1026.23622481,1_I,test,02,2,12.0,10001,,,300.0,
153,1_2_2,2,2.0,1031.03331112,1_I,test,02,2,13.0,01110,kill,0.0,200.0,2.70342007395
154,1_2_2,2,2.0,1034.22099625,1_I,test,02,2,14.0,10100,kill,0.0,100.0,1.03767381274
155,1_2_2,2,2.0,1037.4867701,1_I,test,02,2,15.0,11011,ignore,0.0,0.0,1.16005243273
156,1_2_2,2,2.0,1040.47124882,1_I,test,02,2,16.0,10101,ignore,1.0,100.0,0.757818417387
157,1_2_2,2,2.0,1045.11213593,1_I,test,02,2,17.0,00011,kill,1.0,200.0,2.50707197349
158,1_2_2,2,2.0,1052.12811986,1_I,test,02,2,18.0,00000,kill,0.0,100.0,4.90283277152
159,1_2_2,2,2.0,1055.4563885,1_I,test,02,2,19.0,10011,ignore,0.0,0.0,1.07725124729
160,1_2_2,2,2.0,1058.30024266,1_I,test,02,2,20.0,10010,ignore,0.0,0.0,0.668728752573
161,1_2_2,2,2.0,1065.03495242,1_I,test,02,2,21.0,00001,kill,0.0,0.0,4.59404946789
162,1_2_2,2,2.0,1067.81638075,1_I,test,02,2,22.0,11111,kill,1.0,100.0,0.654364762184
163,1_2_2,2,2.0,1072.84788021,1_I,test,02,2,23.0,10100,kill,0.0,0.0,2.92906637963
164,1_2_2,2,2.0,1076.39486051,1_I,test,02,2,24.0,01110,ignore,1.0,100.0,1.43363987515
165,1_2_2,2,2.0,1079.97318426,1_I,test,02,2,25.0,11100,kill,0.0,0.0,1.45689673929
166,1_2_2,2,2.0,1083.16082176,1_I,test,02,2,26.0,01010,ignore,1.0,100.0,1.11545505264
167,1_2_2,2,2.0,1086.23908373,1_I,test,02,2,27.0,11101,ignore,1.0,200.0,0.981834102869
168,1_2_2,2,2.0,1090.05178451,1_I,test,02,2,28.0,00010,ignore,0.0,100.0,1.68457228857
169,1_2_2,2,2.0,1098.05217122,1_I,test,02,2,29.0,00000,ignore,1.0,200.0,5.91559405768
170,1_2_2,2,2.0,1110.92777034,1_I,test,02,2,30.0,01100,ignore,1.0,300.0,10.7481496443
171,1_2_2,2,2.0,1116.70933292,1_I,test,02,2,31.0,11110,kill,1.0,400.0,3.69762422908
172,1_2_2,2,2.0,1119.52194502,1_I,test,02,2,32.0,10001,kill,0.0,300.0,0.652863869076
173,1_2_2,2,2.0,1124.16280708,1_I,test,02,2,33.0,11010,ignore,0.0,200.0,2.5210008034
174,1_2_2,2,2.0,1126.89730952,1_I,test,02,2,34.0,01101,ignore,1.0,300.0,0.619925505454
175,1_2_2,2,2.0,1130.5693964,1_I,test,02,2,35.0,11001,kill,0.0,200.0,1.55575616727
176,1_2_2,2,2.0,1133.24133425,1_I,test,02,2,36.0,01111,kill,0.0,100.0,0.576759639112
177,1_2_2,2,2.0,1136.91343139,1_I,test,02,2,37.0,00111,ignore,0.0,0.0,1.52795639199
178,1_2_2,2,2.0,1139.66351257,1_I,test,02,2,38.0,01011,ignore,1.0,100.0,0.625473801492
179,1_2_2,2,2.0,1142.7261568,1_I,test,02,2,39.0,10110,ignore,0.0,0.0,0.952912352523
180,1_2_2,2,2.0,1145.46068633,1_I,test,02,2,40.0,11011,ignore,0.0,0.0,0.624502079943
181,1_2_2,2,2.0,1148.86710076,1_I,test,02,2,41.0,00100,kill,0.0,0.0,1.23900778486
182,1_2_2,2,2.0,1151.53910964,1_I,test,02,2,42.0,01001,kill,0.0,0.0,0.577199725931
183,1_2_2,2,2.0,1154.78928504,1_I,test,02,2,43.0,10000,ignore,1.0,100.0,1.14958107594
184,1_2_2,2,2.0,1160.16450667,1_I,test,02,2,44.0,10111,ignore,0.0,0.0,3.28336705827
185,1_2_2,2,2.0,1163.19595194,1_I,test,02,2,45.0,00011,kill,1.0,100.0,0.912416975692
186,1_2_2,2,2.0,1169.30559678,1_I,test,02,2,46.0,10101,kill,0.0,0.0,3.96914137502
187,1_2_2,2,2.0,1172.25885685,1_I,test,02,2,47.0,00101,kill,0.0,0.0,0.849351549316
188,1_2_2,2,2.0,1175.80590365,1_I,test,02,2,48.0,01000,ignore,1.0,100.0,1.43513830508
189,1_2_2,2,2.0,1179.02485793,1_I,test,02,2,49.0,10011,ignore,0.0,0.0,1.12615014761
190,1_2_2,2,2.0,1183.04063578,1_I,test,02,2,50.0,11000,kill,0.0,0.0,1.9289846844
191,1_2_2,2,2.0,1186.24392879,1_I,test,02,2,51.0,00110,kill,1.0,100.0,1.05420621598
192,1_2_2,2,2.0,1189.90033594,1_I,test,02,2,52.0,10110,kill,1.0,200.0,1.53597196581
193,1_2_2,2,2.0,1192.7598571,1_I,test,02,2,53.0,11010,kill,1.0,300.0,0.767388663577
194,1_2_2,2,2.0,1195.5881592,1_I,test,02,2,54.0,01110,kill,0.0,200.0,0.736962325365
195,1_2_2,2,2.0,1198.57262479,1_I,test,02,2,55.0,00111,kill,1.0,300.0,0.77430402035
196,1_2_2,2,2.0,1202.15092227,1_I,test,02,2,56.0,00000,ignore,1.0,400.0,1.45189773072
197,1_2_2,2,2.0,1205.3229605,1_I,test,02,2,57.0,01111,kill,0.0,300.0,1.05104760779
198,1_2_2,2,2.0,1210.01066636,1_I,test,02,2,58.0,00010,kill,1.0,400.0,2.57489665965
199,1_2_2,2,2.0,1213.38581738,1_I,test,02,2,59.0,01100,ignore,1.0,500.0,1.27302912332
200,1_2_2,2,2.0,1220.10492047,1_I,test,02,2,60.0,00101,ignore,1.0,600.0,4.49905722073
201,1_2_2,2,2.0,1222.83941429,1_I,test,02,2,61.0,00001,ignore,1.0,700.0,0.624937650946
202,1_2_2,2,2.0,1226.4177364,1_I,test,02,2,62.0,01011,kill,0.0,600.0,1.46602607761
203,1_2_2,2,2.0,1230.37102849,1_I,test,02,2,63.0,10100,ignore,1.0,700.0,1.8263192444
204,1_2_2,2,2.0,1233.82433557,1_I,test,02,2,64.0,11101,kill,0.0,600.0,1.36204448243
205,1_2_2,2,2.0,1236.71510085,1_I,test,02,2,65.0,00100,kill,0.0,500.0,0.763963211697
206,1_2_2,2,2.0,1239.73085982,1_I,test,02,2,66.0,11110,ignore,0.0,400.0,0.933845755317
207,1_2_2,2,2.0,1243.3716332,1_I,test,02,2,67.0,11100,kill,0.0,300.0,1.55390550367
208,1_2_2,2,2.0,1246.62182666,1_I,test,02,2,68.0,10001,ignore,1.0,400.0,1.14730962037
209,1_2_2,2,2.0,1250.35637426,1_I,test,02,2,69.0,11011,kill,1.0,500.0,1.61396339644
210,1_2_2,2,2.0,1252.96587192,1_I,test,02,2,70.0,00011,kill,1.0,600.0,0.488728317412
211,1_2_2,2,2.0,1256.24723683,1_I,test,02,2,71.0,11000,ignore,1.0,700.0,1.17754383113
212,1_2_2,2,2.0,1259.48179449,1_I,test,02,2,72.0,10000,ignore,1.0,800.0,1.13369320284
213,1_2_2,2,2.0,1263.1069567,1_I,test,02,2,73.0,01010,kill,0.0,700.0,1.49362058851
214,1_2_2,2,2.0,1265.81020763,1_I,test,02,2,74.0,10010,kill,1.0,800.0,0.576097866769
215,1_2_2,2,2.0,1269.06039124,1_I,test,02,2,75.0,01000,kill,0.0,700.0,1.14328274388
216,1_2_2,2,2.0,1272.65429333,1_I,test,02,2,76.0,11111,ignore,0.0,600.0,1.46742844381
217,1_2_2,2,2.0,1275.02940823,1_I,test,02,2,77.0,01001,ignore,1.0,700.0,0.284613013022
218,1_2_2,2,2.0,1277.9358126,1_I,test,02,2,78.0,10111,ignore,0.0,600.0,0.784963399308
219,1_2_2,2,2.0,1281.42034162,1_I,test,02,2,79.0,01101,kill,0.0,500.0,1.3931670774
220,1_2_2,2,2.0,1285.9830505,1_I,test,02,2,80.0,10101,kill,0.0,400.0,2.45164525554
221,1_2_2,2,2.0,1289.85827029,1_I,test,02,2,81.0,11001,ignore,1.0,500.0,1.77396122884
222,1_2_2,2,2.0,1292.54587967,1_I,test,02,2,82.0,10011,ignore,0.0,400.0,0.586320443143
223,1_2_2,2,2.0,1297.49923703,1_I,test,02,2,83.0,00110,kill,1.0,500.0,2.82935797819
224,1_2_2,2,2.0,1301.32757279,1_I,test,02,2,84.0,10001,kill,0.0,400.0,1.70210309773
225,1_2_2,2,2.0,1304.35897291,1_I,test,02,2,85.0,01101,kill,0.0,300.0,0.950461906421
226,1_2_2,2,2.0,1308.90604475,1_I,test,02,2,86.0,10101,ignore,1.0,400.0,2.44794351781
227,1_2_2,2,2.0,1312.71873156,1_I,test,02,2,87.0,10000,kill,0.0,300.0,1.68333043911
228,1_2_2,2,2.0,1316.07826484,1_I,test,02,2,88.0,11011,ignore,0.0,200.0,1.23579375528
229,1_2_2,2,2.0,1319.2659397,1_I,test,02,2,89.0,11010,kill,1.0,300.0,1.06792567623
230,1_2_2,2,2.0,1322.98481865,1_I,test,02,2,90.0,10011,ignore,0.0,200.0,1.62836474494
231,1_2_2,2,2.0,1326.84441823,1_I,test,02,2,91.0,10100,kill,0.0,100.0,1.76383882149
232,1_2_2,2,2.0,1329.86021578,1_I,test,02,2,92.0,01100,ignore,1.0,200.0,0.89653484999
233,1_2_2,2,2.0,1333.25095499,1_I,test,02,2,93.0,00010,ignore,0.0,100.0,1.29401247925
234,1_2_2,2,2.0,1336.5167428,1_I,test,02,2,94.0,11111,kill,1.0,200.0,1.1636219802
235,1_2_2,2,2.0,1339.53252352,1_I,test,02,2,95.0,01010,kill,0.0,100.0,0.886474843004
236,1_2_2,2,2.0,1342.78266239,1_I,test,02,2,96.0,01110,ignore,1.0,200.0,1.12020897555
237,1_2_2,2,2.0,1346.43910483,1_I,test,02,2,97.0,10111,ignore,0.0,100.0,1.51641642887
238,1_2_2,2,2.0,1349.53298373,1_I,test,02,3,0.0,11100,kill,1.0,200.0,0.984878173542
239,1_2_2,2,2.0,1352.75189326,1_I,test,02,3,1.0,10010,ignore,0.0,100.0,1.11352433594
240,1_2_2,2,2.0,1356.11141217,1_I,test,02,3,2.0,00011,ignore,1.0,200.0,1.24334994743
241,1_2_2,2,2.0,1359.93977461,1_I,test,02,3,3.0,00000,ignore,0.0,100.0,1.6894021593
242,1_2_2,2,2.0,1363.75245609,1_I,test,02,3,4.0,11110,kill,0.0,0.0,1.71023403012
243,1_2_2,2,2.0,1366.59627987,1_I,test,02,3,5.0,01111,kill,0.0,0.0,0.745658145323
244,1_2_2,2,2.0,1369.26829367,1_I,test,02,3,6.0,01011,kill,0.0,0.0,0.561861140293
245,1_2_2,2,2.0,1372.04970846,1_I,test,02,3,7.0,00110,kill,0.0,0.0,0.701582547274
246,1_2_2,2,2.0,1374.9873475,1_I,test,02,3,8.0,01000,kill,1.0,100.0,0.828616563276
247,1_2_2,2,2.0,1377.94062646,1_I,test,02,3,9.0,11101,kill,0.0,0.0,0.830671670192
248,1_2_2,2,2.0,1381.5189186,1_I,test,02,3,10.0,00001,ignore,1.0,100.0,1.4771214381
249,1_2_2,2,2.0,1384.17526252,1_I,test,02,3,11.0,00101,ignore,1.0,200.0,0.567040781516
250,1_2_2,2,2.0,1387.48792573,1_I,test,02,3,12.0,00111,kill,0.0,100.0,1.19841182848
251,1_2_2,2,2.0,1390.45682695,1_I,test,02,3,13.0,11000,kill,1.0,200.0,0.873753788668
252,1_2_2,2,2.0,1393.66010847,1_I,test,02,3,14.0,10110,ignore,1.0,300.0,1.07504670791
253,1_2_2,2,2.0,1398.61350894,1_I,test,02,3,15.0,01001,ignore,1.0,400.0,2.86336084286
254,1_2_2,2,2.0,1402.6292987,1_I,test,02,3,16.0,11001,ignore,1.0,500.0,1.87108781497
255,1_2_2,2,2.0,1408.62958894,1_I,test,02,3,17.0,00100,kill,1.0,600.0,3.87275086693
256,1_2_2,2,2.0,1413.30166802,1_I,test,02,3,18.0,01010,kill,1.0,700.0,2.57987062597
257,1_2_2,2,2.0,1418.94259987,1_I,test,02,3,19.0,10001,ignore,1.0,800.0,3.49365507292
258,1_2_2,2,2.0,1425.50539291,1_I,test,02,3,20.0,10110,kill,0.0,700.0,4.4957052535
259,1_2_2,2,2.0,1428.47427483,1_I,test,02,3,21.0,01101,kill,0.0,600.0,0.830955345557
260,1_2_2,2,2.0,1431.41194836,1_I,test,02,3,22.0,00101,kill,0.0,500.0,0.803654773239
261,1_2_2,2,2.0,1434.86525584,1_I,test,02,3,23.0,01011,ignore,1.0,600.0,1.3588296318
262,1_2_2,2,2.0,1439.55292845,1_I,test,02,3,24.0,11001,kill,0.0,500.0,2.53815187347
263,1_2_2,2,2.0,1442.31868649,1_I,test,02,3,25.0,00001,kill,0.0,400.0,0.666185937502
264,1_2_2,2,2.0,1445.5375837,1_I,test,02,3,26.0,10100,ignore,0.0,300.0,1.108677223
265,1_2_2,2,2.0,1458.56948096,1_I,test,02,3,27.0,10000,ignore,0.0,200.0,10.9217425467
266,1_2_2,2,2.0,1462.46030988,1_I,test,02,3,28.0,01000,kill,1.0,300.0,1.75549154044
267,1_2_2,2,2.0,1466.67921571,1_I,test,02,3,29.0,11100,kill,1.0,400.0,2.12388772367
268,1_2_2,2,2.0,1470.83573431,1_I,test,02,3,30.0,11000,kill,1.0,500.0,2.04407272435
269,1_2_2,2,2.0,1479.88301039,1_I,test,02,3,31.0,00000,ignore,0.0,400.0,6.93707497446
270,1_2_2,2,2.0,1486.00827544,1_I,test,02,3,32.0,10011,kill,0.0,300.0,4.03000472519
271,1_2_2,2,2.0,1488.86782781,1_I,test,02,3,33.0,10101,kill,0.0,200.0,0.769616603096
272,1_2_2,2,2.0,1492.10231895,1_I,test,02,3,34.0,01001,kill,0.0,100.0,1.13621302829
273,1_2_2,2,2.0,1495.69627728,1_I,test,02,3,35.0,00100,ignore,0.0,0.0,1.45508836016
274,1_2_2,2,2.0,1504.60292182,1_I,test,02,3,36.0,00110,ignore,1.0,100.0,6.78373509729
275,1_2_2,2,2.0,1508.60312051,1_I,test,02,3,37.0,11110,ignore,1.0,200.0,1.8910686597
276,1_2_2,2,2.0,1519.8536814,1_I,test,02,3,38.0,00111,ignore,1.0,300.0,9.16210795018
277,1_2_2,2,2.0,1523.54132567,1_I,test,02,3,39.0,11010,ignore,0.0,200.0,1.57676333387
278,1_2_2,2,2.0,1527.35403425,1_I,test,02,3,40.0,10010,kill,1.0,300.0,1.70505931525
279,1_2_2,2,2.0,1530.7917051,1_I,test,02,3,41.0,11111,ignore,1.0,400.0,1.34419305032
280,1_2_2,2,2.0,1534.29186829,1_I,test,02,3,42.0,11101,kill,0.0,300.0,1.37421173349
281,1_2_2,2,2.0,1538.13580907,1_I,test,02,3,43.0,10111,ignore,1.0,400.0,1.76238144443
282,1_2_2,2,2.0,1542.10474518,1_I,test,02,3,44.0,01100,ignore,0.0,300.0,1.82332854246
283,1_2_2,2,2.0,1544.80798749,1_I,test,02,3,45.0,00011,ignore,1.0,400.0,0.585674681419
284,1_2_2,2,2.0,1548.37065286,1_I,test,02,3,46.0,11011,kill,0.0,300.0,1.51405629909
285,1_2_2,2,2.0,1551.2145415,1_I,test,02,3,47.0,00010,kill,1.0,400.0,0.721234969003
286,1_2_2,2,2.0,1554.83975749,1_I,test,02,3,48.0,01111,ignore,1.0,500.0,1.53886701455
287,1_2_2,2,2.0,1558.04302382,1_I,test,02,3,49.0,01110,kill,0.0,400.0,1.10711228741
288,1_2_2,2,2.0,1562.340066,1_I,test,02,3,50.0,00000,ignore,0.0,300.0,2.18222632203
289,1_2_2,2,2.0,1565.07460621,1_I,test,02,3,51.0,01100,ignore,0.0,200.0,0.647477731894
290,1_2_2,2,2.0,1568.41849588,1_I,test,02,3,52.0,11110,kill,0.0,100.0,1.26112255802
291,1_2_2,2,2.0,1571.07489399,1_I,test,02,3,53.0,10011,kill,0.0,0.0,0.549098212025
292,1_2_2,2,2.0,1575.68445077,1_I,test,02,3,54.0,10110,kill,0.0,0.0,2.50641512749
293,1_2_2,2,2.0,1579.85654524,1_I,test,02,3,55.0,11001,kill,0.0,0.0,2.06141058499
294,1_2_2,2,2.0,1583.05980747,1_I,test,02,3,56.0,00011,ignore,1.0,100.0,1.07985482061
295,1_2_2,2,2.0,1597.98243183,1_I,test,02,3,57.0,01110,kill,0.0,0.0,12.7889011911
296,1_2_2,2,2.0,1600.98259276,1_I,test,02,3,58.0,11101,kill,0.0,0.0,0.879034419961
297,1_2_2,2,2.0,1604.01396496,1_I,test,02,3,59.0,10000,kill,1.0,100.0,0.946143554513
298,1_2_2,2,2.0,1606.93597229,1_I,test,02,3,60.0,10001,ignore,1.0,200.0,0.785908436488
299,1_2_2,2,2.0,1610.1236176,1_I,test,02,3,61.0,11100,kill,1.0,300.0,1.13330073735
300,1_2_2,2,2.0,1613.59252107,1_I,test,02,3,62.0,10100,kill,1.0,400.0,1.32687489506
301,1_2_2,2,2.0,1617.17088916,1_I,test,02,3,63.0,10101,ignore,1.0,500.0,1.45725348878
302,1_2_2,2,2.0,1620.54603526,1_I,test,02,3,64.0,00111,kill,0.0,400.0,1.21573491009
303,1_2_2,2,2.0,1629.28079427,1_I,test,02,3,65.0,11000,kill,1.0,500.0,6.61751241747
304,1_2_2,2,2.0,1633.81229312,1_I,test,02,3,66.0,01101,kill,0.0,400.0,2.45427551323
305,1_2_2,2,2.0,1636.90618063,1_I,test,02,3,67.0,11011,kill,0.0,300.0,0.989919466576
306,1_2_2,2,2.0,1640.53137692,1_I,test,02,3,68.0,01001,ignore,1.0,400.0,1.48145046375
307,1_2_2,2,2.0,1644.31279047,1_I,test,02,3,69.0,01000,kill,1.0,500.0,1.69734876429
308,1_2_2,2,2.0,1647.96918982,1_I,test,02,3,70.0,11111,kill,0.0,400.0,1.58445458998
309,1_2_2,2,2.0,1653.73506815,1_I,test,02,3,71.0,01011,ignore,1.0,500.0,3.6515961563
310,1_2_2,2,2.0,1657.25091148,1_I,test,02,3,72.0,00100,ignore,0.0,400.0,1.41381626293
311,1_2_2,2,2.0,1660.43856417,1_I,test,02,3,73.0,10010,kill,1.0,500.0,1.09844766764
312,1_2_2,2,2.0,1663.64185924,1_I,test,02,3,74.0,10111,kill,0.0,400.0,1.12872087863
313,1_2_2,2,2.0,1666.51699363,1_I,test,02,3,75.0,00101,kill,0.0,300.0,0.726937623851
314,1_2_2,2,2.0,1670.06402688,1_I,test,02,3,76.0,00110,ignore,1.0,400.0,1.42601060888
315,1_2_2,2,2.0,1673.29853281,1_I,test,02,3,77.0,01111,ignore,1.0,500.0,1.15803181023
316,1_2_2,2,2.0,1682.95522979,1_I,test,02,3,78.0,00010,ignore,0.0,400.0,7.53596293418
317,1_2_2,2,2.0,1686.25227648,1_I,test,02,3,79.0,00001,kill,0.0,300.0,1.21312682095
318,1_2_2,2,2.0,1689.78371662,1_I,test,02,3,80.0,01010,kill,1.0,400.0,1.38921245397
319,1_2_2,2,2.0,1692.94010098,1_I,test,02,3,81.0,11010,kill,1.0,500.0,1.04303983401
320,1_2_2,2,2.0,1697.08096817,1_I,test,02,3,82.0,01011,ignore,1.0,600.0,2.06413978011
321,1_2_2,2,2.0,1699.94046676,1_I,test,02,3,83.0,00011,ignore,1.0,700.0,0.742850539209
322,1_2_2,2,2.0,1703.23748513,1_I,test,02,3,84.0,11110,kill,0.0,600.0,1.24813548106
323,1_2_2,2,2.0,1707.19081048,1_I,test,02,3,85.0,10101,kill,0.0,500.0,1.8619519082
324,1_2_2,2,2.0,1710.78470395,1_I,test,02,3,86.0,01101,kill,0.0,400.0,1.45434653471
325,1_2_2,2,2.0,1713.55047266,1_I,test,02,3,87.0,10010,kill,1.0,500.0,0.694364220284
326,1_2_2,2,2.0,1720.66023163,1_I,test,02,3,88.0,11010,kill,1.0,600.0,4.98969654946
327,1_2_2,2,2.0,1731.42637064,1_I,test,02,3,89.0,10100,ignore,0.0,500.0,8.69391961765
328,1_2_2,2,2.0,1750.0326904,1_I,test,02,3,90.0,11000,ignore,0.0,400.0,16.5118468334
329,1_2_2,2,2.0,1754.45481782,1_I,test,02,3,91.0,01111,kill,0.0,300.0,2.34855368669
330,1_2_2,2,2.0,1758.93338391,1_I,test,02,3,92.0,00101,kill,0.0,200.0,2.38863976636
331,1_2_2,2,2.0,1767.82447925,1_I,test,02,3,93.0,00100,kill,1.0,300.0,6.77789819954
332,1_2_2,2,2.0,1776.10609253,1_I,test,02,4,0.0,11011,ignore,0.0,200.0,6.15683799263
333,1_2_2,2,2.0,1779.55940618,1_I,test,02,4,1.0,10011,ignore,0.0,100.0,1.36638705554
334,1_2_2,2,2.0,1782.60958921,1_I,test,02,4,2.0,01010,kill,0.0,0.0,0.964169461342
335,1_2_2,2,2.0,1788.54736948,1_I,test,02,4,3.0,11101,kill,1.0,100.0,3.90007032357
336,1_2_2,2,2.0,1791.3912848,1_I,test,02,4,4.0,00001,kill,0.0,0.0,0.647111129721
337,1_2_2,2,2.0,1794.032004,1_I,test,02,4,5.0,01001,kill,0.0,0.0,0.500557703306
338,1_2_2,2,2.0,1798.62595987,1_I,test,02,4,6.0,01100,ignore,1.0,100.0,2.48674915831
339,1_2_2,2,2.0,1802.18862688,1_I,test,02,4,7.0,10111,kill,1.0,200.0,1.44426353811
340,1_2_2,2,2.0,1806.06386185,1_I,test,02,4,8.0,00000,kill,0.0,100.0,1.75682534834
341,1_2_2,2,2.0,1809.53271647,1_I,test,02,4,9.0,11111,ignore,0.0,0.0,1.31735555443
342,1_2_2,2,2.0,1813.23609016,1_I,test,02,4,10.0,00010,kill,0.0,0.0,1.57071460329
343,1_2_2,2,2.0,1816.34556791,1_I,test,02,4,11.0,01000,kill,0.0,0.0,0.992527555716
344,1_2_2,2,2.0,1819.83011376,1_I,test,02,4,12.0,00111,ignore,1.0,100.0,1.35601012035
345,1_2_2,2,2.0,1823.86155082,1_I,test,02,4,13.0,11100,ignore,1.0,200.0,1.95028907382
346,1_2_2,2,2.0,1826.75230871,1_I,test,02,4,14.0,00110,ignore,1.0,300.0,0.767667002068
347,1_2_2,2,2.0,1831.22128567,1_I,test,02,4,15.0,10001,ignore,0.0,200.0,2.32157784261
348,1_2_2,2,2.0,1835.4090139,1_I,test,02,4,16.0,10110,kill,1.0,300.0,2.08529186336
349,1_2_2,2,2.0,1841.04990305,1_I,test,02,4,17.0,10000,kill,1.0,400.0,3.5473957493
350,1_2_2,2,2.0,1843.90948005,1_I,test,02,4,18.0,01110,kill,0.0,300.0,0.723790920993
351,1_2_2,2,2.0,1846.62830973,1_I,test,02,4,19.0,11001,kill,1.0,400.0,0.612530651102
352,1_2_2,2,2.0,1851.01911011,1_I,test,02,4,20.0,10011,ignore,0.0,300.0,2.25985689789
353,1_2_2,2,2.0,1854.34736972,1_I,test,02,4,21.0,11001,ignore,0.0,200.0,1.23875366756
354,1_2_2,2,2.0,1858.61317108,1_I,test,02,4,22.0,01011,ignore,1.0,300.0,2.12221112426
355,1_2_2,2,2.0,1862.73846773,1_I,test,02,4,23.0,11110,ignore,1.0,400.0,1.89370712797
356,1_2_2,2,2.0,1867.44179257,1_I,test,02,4,24.0,11010,kill,0.0,300.0,2.46264988918
357,1_2_2,2,2.0,1873.25455615,1_I,test,02,4,25.0,01111,kill,0.0,200.0,3.68419337054
358,1_2_2,2,2.0,1879.67082491,1_I,test,02,4,26.0,01110,ignore,1.0,300.0,4.37935771135
359,1_2_2,2,2.0,1893.03086766,1_I,test,02,4,27.0,10111,kill,1.0,400.0,11.2520568517
360,1_2_2,2,2.0,1898.70299682,1_I,test,02,4,28.0,10000,ignore,0.0,300.0,3.54772786706
361,1_2_2,2,2.0,1901.45311905,1_I,test,02,4,29.0,00010,ignore,1.0,400.0,0.652929964206
362,1_2_2,2,2.0,1904.26576359,1_I,test,02,4,30.0,01100,ignore,1.0,500.0,0.704676702451
363,1_2_2,2,2.0,1907.35966301,1_I,test,02,4,31.0,10001,ignore,0.0,400.0,1.01440216956
364,1_2_2,2,2.0,1911.5160954,1_I,test,02,4,32.0,00101,kill,0.0,300.0,2.08044475043
365,1_2_2,2,2.0,1915.17252553,1_I,test,02,4,33.0,01000,kill,0.0,200.0,1.53586522834
366,1_2_2,2,2.0,1918.75082629,1_I,test,02,4,34.0,01001,kill,0.0,100.0,1.49048784363
367,1_2_2,2,2.0,1921.86034961,1_I,test,02,4,35.0,01010,ignore,1.0,200.0,0.987242819134
368,1_2_2,2,2.0,1924.56363955,1_I,test,02,4,36.0,10110,ignore,0.0,100.0,0.616368273846
369,1_2_2,2,2.0,1927.14186437,1_I,test,02,4,37.0,00001,kill,0.0,0.0,0.458866456229
370,1_2_2,2,2.0,1929.7201134,1_I,test,02,4,38.0,00110,ignore,1.0,100.0,0.454498430343
371,1_2_2,2,2.0,1932.29833001,1_I,test,02,4,39.0,00100,ignore,1.0,200.0,0.467090578652
372,1_2_2,2,2.0,1934.8922009,1_I,test,02,4,40.0,11011,ignore,0.0,100.0,0.500730535907
373,1_2_2,2,2.0,1937.9392557,1_I,test,02,4,41.0,00111,kill,0.0,0.0,0.905841126196
374,1_2_2,2,2.0,1940.58000569,1_I,test,02,4,42.0,11111,kill,1.0,100.0,0.525679599554
375,1_2_2,2,2.0,1943.22078565,1_I,test,02,4,43.0,00011,kill,0.0,0.0,0.515974699934
376,1_2_2,2,2.0,1946.67403114,1_I,test,02,4,44.0,10101,ignore,0.0,0.0,1.38201957976
377,1_2_2,2,2.0,1949.58045809,1_I,test,02,4,45.0,00000,ignore,1.0,100.0,0.752404774777
378,1_2_2,2,2.0,1952.72120623,1_I,test,02,4,46.0,01101,ignore,1.0,200.0,1.0056620125
379,1_2_2,2,2.0,1955.76824585,1_I,test,02,4,47.0,10100,ignore,0.0,100.0,0.941954519161
380,1_2_2,2,2.0,1958.4558893,1_I,test,02,4,48.0,11100,ignore,1.0,200.0,0.593492790911
381,1_2_2,2,2.0,1962.09665735,1_I,test,02,4,49.0,11000,ignore,1.0,300.0,1.58377721754
382,1_2_2,2,2.0,1966.03436331,1_I,test,02,4,50.0,10010,kill,1.0,400.0,1.80261654603
383,1_2_2,2,2.0,1969.5501504,1_I,test,02,4,51.0,11101,kill,1.0,500.0,1.39324507786
384,1_2_2,2,2.0,1973.28472139,1_I,test,02,4,52.0,11110,ignore,1.0,600.0,1.64067527053
385,1_2_2,2,2.0,1982.22259936,1_I,test,02,4,53.0,01001,ignore,1.0,700.0,6.80214731167
386,1_2_2,2,2.0,1985.31651274,1_I,test,02,4,54.0,01111,ignore,1.0,800.0,1.00968806794
387,1_2_2,2,2.0,1988.91050063,1_I,test,02,4,55.0,10110,kill,1.0,900.0,1.45863738119
388,1_2_2,2,2.0,1992.34813248,1_I,test,02,4,56.0,00101,ignore,1.0,1000.0,1.29352846586
389,1_2_2,2,2.0,1996.05141955,1_I,test,02,4,57.0,11011,kill,1.0,1100.0,1.64966420801
390,1_2_2,2,2.0,1998.83280314,1_I,test,02,5,0.0,10111,kill,1.0,1200.0,0.695227151715
391,1_2_2,2,2.0,2002.27047892,1_I,test,02,5,1.0,11010,ignore,0.0,1100.0,1.36061420027
392,1_2_2,2,2.0,2005.66128915,1_I,test,02,5,2.0,00100,ignore,1.0,1200.0,1.26079002974
393,1_2_2,2,2.0,2008.86453906,1_I,test,02,5,3.0,01000,ignore,1.0,1300.0,1.07718843639
394,1_2_2,2,2.0,2012.36470922,1_I,test,02,5,4.0,00111,kill,1.0,1400.0,1.41837887945
395,1_2_2,2,2.0,2016.1461507,1_I,test,02,5,5.0,01100,ignore,1.0,1500.0,1.6364037189
396,1_2_2,2,2.0,2019.77130059,1_I,test,02,5,6.0,00110,kill,1.0,1600.0,1.48297722017
397,1_2_2,2,2.0,2023.50586912,1_I,test,02,5,7.0,01010,ignore,1.0,1700.0,1.6535153782
398,1_2_2,2,2.0,2027.67793322,1_I,test,02,5,8.0,11101,ignore,1.0,1800.0,2.04331119352
399,1_2_2,2,2.0,2031.38126462,1_I,test,02,5,9.0,00011,kill,1.0,1900.0,1.65665345996
400,1_2_2,2,2.0,2034.49075263,1_I,test,02,5,10.0,11000,kill,0.0,1800.0,0.997882082185
401,1_2_2,2,2.0,2037.49091438,1_I,test,02,5,11.0,10001,kill,0.0,1700.0,0.878469532405
402,1_2_2,2,2.0,2041.5067144,1_I,test,02,5,12.0,11001,ignore,1.0,1800.0,1.92325657677
403,1_2_2,2,2.0,2044.19435868,1_I,test,02,5,13.0,11100,ignore,1.0,1900.0,0.560129119502
404,1_2_2,2,2.0,2047.81949749,1_I,test,02,5,14.0,01011,kill,0.0,1800.0,1.53426786098
405,1_2_2,2,2.0,2051.710381,1_I,test,02,5,15.0,10011,kill,1.0,1900.0,1.79011101929
406,1_2_2,2,2.0,2055.22612088,1_I,test,02,5,16.0,00001,kill,0.0,1800.0,1.39757451405
407,1_2_2,2,2.0,2058.42939993,1_I,test,02,5,17.0,00000,ignore,1.0,1900.0,1.10323812761
408,1_2_2,2,2.0,2061.28896257,1_I,test,02,5,18.0,10010,ignore,0.0,1800.0,0.717232313704
409,1_2_2,2,2.0,2064.14842174,1_I,test,02,5,19.0,10101,ignore,1.0,1900.0,0.745319459103
410,1_2_2,2,2.0,2067.80486912,1_I,test,02,5,20.0,10000,kill,0.0,1800.0,1.531376507
411,1_2_2,2,2.0,2070.89876525,1_I,test,02,5,21.0,00010,kill,1.0,1900.0,0.98382188307
412,1_2_2,2,2.0,2074.13330648,1_I,test,02,5,22.0,01101,kill,0.0,1800.0,1.15112671668
413,1_2_2,2,2.0,2077.13341322,1_I,test,02,5,23.0,10100,kill,0.0,1700.0,0.906233591679
414,1_2_2,2,2.0,2079.91479599,1_I,test,02,5,24.0,01110,kill,0.0,1600.0,0.58249883102
415,1_2_2,2,2.0,2082.83687148,1_I,test,02,5,25.0,11111,kill,1.0,1700.0,0.828268024366
416,1_2_2,2,2.0,2085.96200474,1_I,test,02,5,26.0,00000,ignore,1.0,1800.0,0.98182753441
417,1_2_2,2,2.0,2088.68083648,1_I,test,02,5,27.0,00101,ignore,1.0,1900.0,0.641190484108
418,1_2_2,2,2.0,2092.74355254,1_I,test,02,5,28.0,00100,ignore,1.0,2000.0,1.89790396337
419,1_2_2,2,2.0,2096.11873682,1_I,test,02,5,29.0,01100,ignore,1.0,2100.0,1.23898356366
420,1_2_2,2,2.0,2099.36889908,1_I,test,02,5,30.0,10010,kill,1.0,2200.0,1.13153710585
421,1_2_2,2,2.0,2102.44714422,1_I,test,02,5,31.0,01010,kill,0.0,2100.0,0.987252671825
422,1_2_2,2,2.0,2107.79117922,1_I,test,02,5,32.0,11010,ignore,0.0,2000.0,3.30091059382
423,1_2_2,2,2.0,2110.63506622,1_I,test,02,5,33.0,10111,ignore,0.0,1900.0,0.689559391809
424,1_2_2,2,2.0,2114.01340212,1_I,test,02,5,34.0,11110,kill,1.0,2000.0,1.31430573636
425,1_2_2,2,2.0,2118.2792318,1_I,test,02,5,35.0,00111,kill,1.0,2100.0,2.18789941881
426,1_2_2,2,2.0,2121.43559235,1_I,test,02,5,36.0,00011,kill,1.0,2200.0,1.02210450995
427,1_2_2,2,2.0,2133.93622764,1_I,test,02,5,37.0,10000,kill,0.0,2100.0,10.4300054641
428,1_2_2,2,2.0,2137.420762,1_I,test,02,5,38.0,10001,ignore,1.0,2200.0,1.36358807053
429,1_2_2,2,2.0,2140.29588942,1_I,test,02,5,39.0,01110,ignore,1.0,2300.0,0.737202895212
430,1_2_2,2,2.0,2143.68666968,1_I,test,02,5,40.0,10100,kill,0.0,2200.0,1.30879274579
431,1_2_2,2,2.0,2146.90559194,1_I,test,02,5,41.0,00010,kill,1.0,2300.0,1.14248960233
432,1_2_2,2,2.0,2150.40574609,1_I,test,02,5,42.0,01111,ignore,1.0,2400.0,1.40179516011
433,1_2_2,2,2.0,2154.51531457,1_I,test,02,5,43.0,11011,kill,1.0,2500.0,1.9876607374
434,1_2_2,2,2.0,2158.64050736,1_I,test,02,5,44.0,11101,kill,0.0,2400.0,1.99597066033
435,1_2_2,2,2.0,2161.85941566,1_I,test,02,5,45.0,11100,ignore,1.0,2500.0,1.17265853902
