,unique_id,pair_id,sbj_id,wall_time,condition,block,rule_id,rule_num,trial,stimulus,choice,correct,points,reaction_time
0,2_1_1,1,1.0,24.9528018679,2_ND,training,01,1_A,1.0,00011,kill,1.0,100.0,3.7182791733
1,2_1_1,1,1.0,30.2655869939,2_ND,training,01,1_A,2.0,01111,ignore,0.0,0.0,3.50852170678
2,2_1_1,1,1.0,34.5470557295,2_ND,training,01,1_A,3.0,00111,kill,1.0,100.0,2.46749339303
3,2_1_1,1,1.0,39.4379217555,2_ND,training,01,1_A,4.0,10110,kill,1.0,200.0,3.0687644327
4,2_1_1,1,1.0,44.1944411659,2_ND,training,01,1_A,5.0,10101,kill,0.0,100.0,2.95710217068
5,2_1_1,1,1.0,47.7883582645,2_ND,training,01,1_A,6.0,00000,ignore,1.0,200.0,1.78726907682
6,2_1_1,1,1.0,50.7572458562,2_ND,training,01,1_A,7.0,00110,kill,1.0,300.0,1.1523345692
7,2_1_1,1,1.0,54.5699777416,2_ND,training,01,1_A,8.0,00010,kill,1.0,400.0,1.98316666239
8,2_1_1,1,1.0,57.8513977267,2_ND,training,01,1_A,9.0,00001,ignore,1.0,500.0,1.47596827372
9,2_1_1,1,1.0,63.4610301098,2_ND,training,01,1_A,10.0,11001,ignore,1.0,600.0,3.79859778314
10,2_1_1,1,1.0,66.4768153128,2_ND,training,01,1_A,11.0,10011,kill,0.0,500.0,1.20121202597
11,2_1_1,1,1.0,72.5083767383,2_ND,training,01,1_A,12.0,01000,ignore,1.0,600.0,4.2469165341
12,2_1_1,1,1.0,75.9773005722,2_ND,training,01,1_A,13.0,11111,kill,1.0,700.0,1.66450903166
13,2_1_1,1,1.0,80.5400533048,2_ND,training,01,1_A,14.0,10100,ignore,1.0,800.0,2.73804908401
14,2_1_1,1,1.0,84.3527576076,2_ND,training,01,1_A,15.0,11000,ignore,1.0,900.0,2.01697702314
15,2_1_1,1,1.0,87.8529840406,2_ND,training,01,1_A,16.0,10111,kill,1.0,1000.0,1.70106737825
16,2_1_1,1,1.0,91.7906376687,2_ND,training,01,1_A,17.0,11101,ignore,1.0,1100.0,2.15089707241
17,2_1_1,1,1.0,95.33768538,2_ND,training,01,1_A,18.0,11010,kill,0.0,1000.0,1.76712680248
18,2_1_1,1,1.0,99.8222882563,2_ND,training,01,1_A,19.0,01011,kill,1.0,1100.0,2.68557564017
19,2_1_1,1,1.0,104.556904282,2_ND,training,01,1_A,20.0,10000,ignore,1.0,1200.0,2.92560905989
20,2_1_1,1,1.0,107.994582286,2_ND,training,01,1_A,21.0,00100,ignore,1.0,1300.0,1.63724758814
21,2_1_1,1,1.0,112.166682917,2_ND,training,01,1_A,22.0,11100,ignore,1.0,1400.0,2.37716779135
22,2_1_1,1,1.0,115.698073395,2_ND,training,01,1_A,23.0,11110,ignore,0.0,1300.0,1.76828270129
23,2_1_1,1,1.0,118.667014869,2_ND,training,01,1_A,24.0,01010,ignore,0.0,1200.0,1.20001026325
24,2_1_1,1,1.0,121.573401819,2_ND,training,01,1_A,25.0,01101,ignore,1.0,1300.0,1.10142370555
25,2_1_1,1,1.0,124.276679004,2_ND,training,01,1_A,26.0,01110,kill,1.0,1400.0,0.919735592959
26,2_1_1,1,1.0,127.370616308,2_ND,training,01,1_A,27.0,10001,ignore,1.0,1500.0,1.29676547185
27,2_1_1,1,1.0,130.198884513,2_ND,training,01,1_A,28.0,00101,ignore,1.0,1600.0,1.01823876174
28,2_1_1,1,1.0,132.777143095,2_ND,training,01,1_A,29.0,01100,ignore,1.0,1700.0,0.783257107302
29,2_1_1,1,1.0,135.917921884,2_ND,training,01,1_A,30.0,10010,kill,0.0,1600.0,1.35824459896
30,2_1_1,1,1.0,139.511869772,2_ND,training,01,1_A,31.0,11011,kill,0.0,1500.0,1.82234791143
31,2_1_1,1,1.0,142.418296813,2_ND,training,01,1_A,32.0,01001,ignore,1.0,1600.0,1.11540065172
32,2_1_1,1,1.0,148.231080336,2_ND,training,01,1_A,33.0,11011,kill,0.0,1500.0,4.02910337661
33,2_1_1,1,1.0,153.106335313,2_ND,training,01,1_A,34.0,00110,kill,1.0,1600.0,3.08756061733
34,2_1_1,1,1.0,157.137760109,2_ND,training,01,1_A,35.0,00001,ignore,1.0,1700.0,2.22421454046
35,2_1_1,1,1.0,165.294462013,2_ND,training,01,1_A,36.0,01010,kill,1.0,1800.0,6.37313818187
36,2_1_1,1,1.0,169.00652358,2_ND,training,01,1_A,37.0,10111,kill,1.0,1900.0,1.91940075435
37,2_1_1,1,1.0,172.412948055,2_ND,training,01,1_A,38.0,11100,ignore,1.0,2000.0,1.61625763329
38,2_1_1,1,1.0,175.584995446,2_ND,training,01,1_A,39.0,10000,ignore,1.0,2100.0,1.38961679581
39,2_1_1,1,1.0,178.631978691,2_ND,training,01,1_A,40.0,01101,ignore,1.0,2200.0,1.25161646226
40,2_1_1,1,1.0,181.163403808,2_ND,training,01,1_A,41.0,01100,ignore,1.0,2300.0,0.759808782778
41,2_1_1,1,1.0,189.460691743,2_ND,training,01,1_A,42.0,01110,kill,1.0,2400.0,6.50420151896
42,2_1_1,1,1.0,192.460801752,2_ND,training,01,1_A,43.0,11001,ignore,1.0,2500.0,1.2140519962
43,2_1_1,1,1.0,195.429765036,2_ND,training,01,1_A,44.0,00100,ignore,1.0,2600.0,1.16274279006
44,2_1_1,1,1.0,203.117642852,2_ND,training,01,1_A,45.0,11111,kill,1.0,2700.0,5.90642928619
45,2_1_1,1,1.0,208.649169639,2_ND,training,01,1_A,46.0,00010,kill,1.0,2800.0,3.74478626777
46,2_1_1,1,1.0,211.961819418,2_ND,training,01,1_A,47.0,00000,ignore,1.0,2900.0,1.51880612716
47,2_1_1,1,1.0,220.071662198,2_ND,training,01,1_A,48.0,10011,kill,0.0,2800.0,6.31154776261
48,2_1_1,1,1.0,223.556202853,2_ND,training,01,1_A,49.0,11101,ignore,1.0,2900.0,1.70118123621
49,2_1_1,1,1.0,228.197074973,2_ND,training,01,1_A,50.0,11010,kill,0.0,2800.0,2.87980544722
50,2_1_1,1,1.0,231.322229884,2_ND,training,01,1_A,51.0,10001,ignore,1.0,2900.0,1.34525356648
51,2_1_1,1,1.0,235.275546518,2_ND,training,01,1_A,52.0,00011,kill,1.0,3000.0,2.17003130292
52,2_1_1,1,1.0,238.627358303,2_ND,training,01,1_A,53.0,10100,ignore,1.0,3100.0,1.5520022964
53,2_1_1,1,1.0,250.049824563,2_ND,training,01,1_A,54.0,01111,kill,1.0,3200.0,9.623850195
54,2_1_1,1,1.0,255.190712398,2_ND,training,01,1_A,55.0,10110,ignore,0.0,3100.0,3.34981205419
55,2_1_1,1,1.0,257.800186984,2_ND,training,01,1_A,56.0,10101,ignore,1.0,3200.0,0.803779763432
56,2_1_1,1,1.0,261.987917907,2_ND,training,01,1_A,57.0,00101,ignore,1.0,3300.0,2.38542650228
57,2_1_1,1,1.0,270.191454239,2_ND,training,01,1_A,58.0,00111,ignore,0.0,3200.0,6.40663551342
58,2_1_1,1,1.0,272.97285049,2_ND,training,01,1_A,59.0,01000,ignore,1.0,3300.0,1.00836102273
59,2_1_1,1,1.0,276.394894994,2_ND,training,01,1_A,60.0,01001,ignore,1.0,3400.0,1.63082888592
60,2_1_1,1,1.0,289.004950095,2_ND,training,01,1_A,61.0,10010,kill,0.0,3300.0,10.8352260481
61,2_1_1,1,1.0,292.880149266,2_ND,training,01,1_A,62.0,01011,kill,1.0,3400.0,2.09663653974
62,2_1_1,1,1.0,295.302126097,2_ND,training,01,1_A,63.0,11000,ignore,1.0,3500.0,0.635031367065
63,2_1_1,1,1.0,301.661834492,2_ND,training,01,1_A,64.0,11110,kill,1.0,3600.0,4.60085377431
64,2_1_1,1,1.0,304.568249987,2_ND,training,01,1_A,65.0,00101,ignore,1.0,3700.0,1.12437522451
65,2_1_1,1,1.0,306.958978422,2_ND,training,01,1_A,66.0,01001,ignore,1.0,3800.0,0.605838507723
66,2_1_1,1,1.0,309.334080413,2_ND,training,01,1_A,67.0,11101,ignore,1.0,3900.0,0.604539885565
67,2_1_1,1,1.0,313.115554601,2_ND,training,01,1_A,68.0,01110,kill,1.0,4000.0,2.0117703469
68,2_1_1,1,1.0,316.990761469,2_ND,training,01,1_A,69.0,11010,kill,0.0,3900.0,2.1302217504
69,2_1_1,1,1.0,320.584713206,2_ND,training,01,1_A,70.0,01000,ignore,1.0,4000.0,1.8274910838
70,2_1_1,1,1.0,323.350444527,2_ND,training,01,1_A,71.0,11000,ignore,1.0,4100.0,0.984710961153
71,2_1_1,1,1.0,329.444543478,2_ND,training,01,1_A,72.0,10110,ignore,0.0,4000.0,4.31160549341
72,2_1_1,1,1.0,334.66355487,2_ND,training,01,1_A,73.0,10010,ignore,1.0,4100.0,3.40584524298
73,2_1_1,1,1.0,337.148065377,2_ND,training,01,1_A,74.0,00001,ignore,1.0,4200.0,0.681677849336
74,2_1_1,1,1.0,341.038849297,2_ND,training,01,1_A,75.0,01101,ignore,1.0,4300.0,2.10094133268
75,2_1_1,1,1.0,344.02341112,2_ND,training,01,1_A,76.0,00000,ignore,1.0,4400.0,1.1897370683
76,2_1_1,1,1.0,350.445569161,2_ND,training,01,1_A,77.0,00011,ignore,0.0,4300.0,4.63657374147
77,2_1_1,1,1.0,354.039556499,2_ND,training,01,1_A,78.0,11011,kill,0.0,4200.0,1.8144962026
78,2_1_1,1,1.0,357.227195053,2_ND,training,01,1_A,79.0,01111,kill,1.0,4300.0,1.40363511572
79,2_1_1,1,1.0,359.946073344,2_ND,training,01,1_A,80.0,10001,ignore,1.0,4400.0,0.937411158721
80,2_1_1,1,1.0,363.040017063,2_ND,training,01,1_A,81.0,11111,kill,1.0,4500.0,1.32318147996
81,2_1_1,1,1.0,365.712018589,2_ND,training,01,1_A,82.0,10000,ignore,1.0,4600.0,0.892722391851
82,2_1_1,1,1.0,368.180880523,2_ND,training,01,1_A,83.0,10101,ignore,1.0,4700.0,0.66339867604
83,2_1_1,1,1.0,372.400550367,2_ND,training,01,1_A,84.0,00111,kill,1.0,4800.0,2.42632524247
84,2_1_1,1,1.0,377.307031932,2_ND,training,01,1_A,85.0,00010,ignore,0.0,4700.0,3.13498582388
85,2_1_1,1,1.0,379.90091375,2_ND,training,01,1_A,86.0,10100,ignore,1.0,4800.0,0.815001347051
86,2_1_1,1,1.0,386.082942154,2_ND,training,01,1_A,87.0,00110,kill,1.0,4900.0,4.40484746241
87,2_1_1,1,1.0,389.864353479,2_ND,training,01,1_A,88.0,10011,kill,0.0,4800.0,1.99245586801
88,2_1_1,1,1.0,396.552214938,2_ND,training,01,1_A,89.0,10111,kill,1.0,4900.0,4.88573119259
89,2_1_1,1,1.0,402.114974406,2_ND,training,01,1_A,90.0,01010,kill,1.0,5000.0,3.81427778776
90,2_1_1,1,1.0,404.850571214,2_ND,training,01,1_A,91.0,01100,ignore,1.0,5100.0,0.962830669164
91,2_1_1,1,1.0,413.14787262,2_ND,training,01,1_A,92.0,11110,kill,1.0,5200.0,6.52341528968
92,2_1_1,1,1.0,415.866758288,2_ND,training,01,1_A,93.0,11001,ignore,1.0,5300.0,0.92856712167
93,2_1_1,1,1.0,419.435581093,2_ND,training,01,1_A,94.0,01011,kill,1.0,5400.0,1.8014182532
94,2_1_1,1,1.0,421.941944309,2_ND,training,01,1_A,95.0,11100,ignore,1.0,5500.0,0.752970249397
95,2_1_1,1,1.0,424.738946798,2_ND,training,01,1_A,96.0,00100,ignore,1.0,5600.0,1.00162512188
96,2_1_1,1,1.0,427.89540527,2_ND,training,01,1_A,97.0,10110,kill,1.0,5700.0,1.36755657618
97,2_1_1,1,1.0,430.317362857,2_ND,training,01,1_A,98.0,11001,ignore,1.0,5800.0,0.646780546005
98,2_1_1,1,1.0,433.817547917,2_ND,training,01,1_A,99.0,01111,kill,1.0,5900.0,1.71609791143
99,2_1_1,1,1.0,437.958397265,2_ND,training,01,1_A,100.0,10010,ignore,1.0,6000.0,2.36545902396
100,2_1_1,1,1.0,442.77113781,2_ND,training,01,1_A,101.0,01010,ignore,0.0,5900.0,3.04453225227
101,2_1_1,1,1.0,446.115065813,2_ND,training,01,1_A,102.0,10100,ignore,1.0,6000.0,1.55916091497
102,2_1_1,1,1.0,450.662168369,2_ND,training,01,1_A,103.0,11111,kill,1.0,6100.0,2.77576461231
103,2_1_1,1,1.0,455.021795299,2_ND,training,01,1_A,104.0,01011,ignore,0.0,6000.0,2.58206560784
104,2_1_1,1,1.0,457.787533997,2_ND,training,01,1_A,105.0,11101,ignore,1.0,6100.0,0.980399112228
105,2_1_1,1,1.0,468.163087892,2_ND,training,01,1_A,106.0,01110,kill,1.0,6200.0,8.59541553343
106,2_1_1,1,1.0,476.522897958,2_ND,training,01,1_A,107.0,00011,kill,1.0,6300.0,6.57131677529
107,2_1_1,1,1.0,479.450289616,2_ND,training,01,1_A,108.0,00000,ignore,1.0,6400.0,1.15066390414
108,2_1_1,1,1.0,481.903545633,2_ND,training,01,1_A,109.0,01100,ignore,1.0,6500.0,0.688318494381
109,2_1_1,1,1.0,484.356826987,2_ND,training,01,1_A,110.0,11100,ignore,1.0,6600.0,0.675848001232
110,2_1_1,1,1.0,494.688984323,2_ND,training,01,1_A,111.0,11010,ignore,1.0,6700.0,8.57612542977
111,2_1_1,1,1.0,500.486184379,2_ND,training,01,1_A,112.0,11011,kill,0.0,6600.0,4.02626045569
112,2_1_1,1,1.0,503.298814274,2_ND,training,01,1_A,113.0,10101,ignore,1.0,6700.0,1.04524394468
113,2_1_1,1,1.0,507.720906887,2_ND,training,01,1_A,114.0,00110,kill,1.0,6800.0,2.64241673936
114,2_1_1,1,1.0,510.67419209,2_ND,training,01,1_A,115.0,00101,ignore,1.0,6900.0,1.15716631601
115,2_1_1,1,1.0,514.049379073,2_ND,training,01,1_A,116.0,10011,kill,0.0,6800.0,1.60618296813
116,2_1_1,1,1.0,520.737214233,2_ND,training,01,1_A,117.0,10111,kill,1.0,6900.0,4.89124608714
117,2_1_1,1,1.0,523.518580977,2_ND,training,01,1_A,118.0,10000,ignore,1.0,7000.0,1.0111058013
118,2_1_1,1,1.0,525.846828976,2_ND,training,01,1_A,119.0,01101,ignore,1.0,7100.0,0.561735387695
119,2_1_1,1,1.0,528.206343973,2_ND,training,01,1_A,120.0,10001,ignore,1.0,7200.0,0.578319841433
120,2_1_1,1,1.0,532.769056294,2_ND,training,01,1_A,121.0,00111,kill,1.0,7300.0,2.78643294247
121,2_1_1,1,1.0,537.363018615,2_ND,training,01,1_A,122.0,11110,ignore,0.0,7200.0,2.80669709293
122,2_1_1,1,1.0,540.06632242,2_ND,training,01,1_A,123.0,00001,ignore,1.0,7300.0,0.924917573254
123,2_1_1,1,1.0,542.410175373,2_ND,training,01,1_A,124.0,01001,ignore,1.0,7400.0,0.566519666958
124,2_1_1,1,1.0,552.694278878,2_ND,training,01,1_A,125.0,00010,ignore,0.0,7300.0,8.49429844255
125,2_1_1,1,1.0,555.28817994,2_ND,training,01,1_A,126.0,01000,ignore,1.0,7400.0,0.844001449685
126,2_1_1,1,1.0,557.663296044,2_ND,training,01,1_A,127.0,11000,ignore,1.0,7500.0,0.61837218402
127,2_1_1,1,1.0,560.866604339,2_ND,training,01,1_A,128.0,00100,ignore,1.0,7600.0,1.40010936778
128,2_1_1,1,1.0,563.507360997,2_ND,training,01,1_A,129.0,01001,ignore,1.0,7700.0,0.861790552676
129,2_1_1,1,1.0,569.429508775,2_ND,training,01,1_A,130.0,11010,kill,0.0,7600.0,4.13818250629
130,2_1_1,1,1.0,572.914083107,2_ND,training,01,1_A,131.0,10011,ignore,1.0,7700.0,1.71258435111
131,2_1_1,1,1.0,575.961090727,2_ND,training,01,1_A,132.0,11001,ignore,1.0,7800.0,1.28314806024
132,2_1_1,1,1.0,580.320688472,2_ND,training,01,1_A,133.0,01011,ignore,0.0,7700.0,2.57391947196
133,2_1_1,1,1.0,592.6807115,2_ND,training,01,1_A,134.0,00010,kill,1.0,7800.0,10.5971112152
134,2_1_1,1,1.0,598.290369862,2_ND,training,01,1_A,135.0,10101,ignore,1.0,7900.0,3.82747119875
135,2_1_1,1,1.0,601.087412442,2_ND,training,01,1_A,136.0,10000,ignore,1.0,8000.0,1.02355288141
136,2_1_1,1,1.0,610.525386476,2_ND,training,01,1_A,137.0,01010,ignore,0.0,7900.0,7.6530100195
137,2_1_1,1,1.0,613.494301008,2_ND,training,01,1_A,138.0,10001,ignore,1.0,8000.0,1.16318699646
138,2_1_1,1,1.0,616.572574344,2_ND,training,01,1_A,139.0,00101,ignore,1.0,8100.0,1.29894865808
139,2_1_1,1,1.0,622.119737838,2_ND,training,01,1_A,140.0,00110,kill,1.0,8200.0,3.7649224483
140,2_1_1,1,1.0,625.119882486,2_ND,training,01,1_A,141.0,01100,ignore,1.0,8300.0,1.22716169754
141,2_1_1,1,1.0,630.573286358,2_ND,training,01,1_A,142.0,00111,kill,1.0,8400.0,3.66465816955
142,2_1_1,1,1.0,633.510931967,2_ND,training,01,1_A,143.0,00001,ignore,1.0,8500.0,1.1541152435
143,2_1_1,1,1.0,640.667566839,2_ND,training,01,1_A,144.0,11111,ignore,0.0,8400.0,5.39472019808
144,2_1_1,1,1.0,645.089702109,2_ND,training,01,1_A,145.0,01111,kill,1.0,8500.0,2.63812541694
145,2_1_1,1,1.0,648.449271951,2_ND,training,01,1_A,146.0,10110,kill,1.0,8600.0,1.59401267512
146,2_1_1,1,1.0,651.529160145,2_ND,training,01,1_A,147.0,11110,kill,1.0,8700.0,1.31377905783
147,2_1_1,1,1.0,654.482455932,2_ND,training,01,1_A,148.0,10100,ignore,1.0,8800.0,1.15493053061
148,2_1_1,1,1.0,656.888860522,2_ND,training,01,1_A,149.0,11100,ignore,1.0,8900.0,0.651416328835
149,2_1_1,1,1.0,659.217047904,2_ND,training,01,1_A,150.0,00100,ignore,1.0,9000.0,0.536009904038
150,2_1_1,1,1.0,663.060998037,2_ND,training,01,1_A,151.0,10010,kill,0.0,8900.0,2.06556807102
151,2_1_1,1,1.0,666.498687266,2_ND,training,01,1_A,152.0,10111,kill,1.0,9000.0,1.67705393339
152,2_1_1,1,1.0,669.436363986,2_ND,training,01,1_A,153.0,11101,ignore,1.0,9100.0,1.15196348848
153,2_1_1,1,1.0,672.311521784,2_ND,training,01,1_A,154.0,00011,kill,1.0,9200.0,1.09691877919
154,2_1_1,1,1.0,674.849666765,2_ND,training,01,1_A,155.0,01000,ignore,1.0,9300.0,0.779102735157
155,2_1_1,1,1.0,677.287276133,2_ND,training,01,1_A,156.0,00000,ignore,1.0,9400.0,0.65127841638
156,2_1_1,1,1.0,680.086015036,2_ND,training,01,1_A,157.0,01110,kill,1.0,9500.0,1.04118194181
157,2_1_1,1,1.0,682.539296711,2_ND,training,01,1_A,158.0,01101,ignore,1.0,9600.0,0.661370080054
158,2_1_1,1,1.0,684.680007826,2_ND,training,01,1_A,159.0,11000,ignore,1.0,9700.0,0.386918201879
159,2_1_1,1,1.0,688.148952507,2_ND,training,01,1_A,160.0,11011,kill,0.0,9600.0,1.70704860933
160,2_1_1,1,1.0,694.805617848,2_ND,training,01,1_A,161.0,01011,kill,1.0,9700.0,4.89332567866
161,2_1_1,1,1.0,700.665206933,2_ND,training,01,1_A,162.0,11110,kill,1.0,9800.0,4.11076583107
162,2_1_1,1,1.0,706.790531187,2_ND,training,01,1_A,163.0,10101,ignore,1.0,9900.0,4.33442070355
163,2_1_1,1,1.0,709.118770206,2_ND,training,01,1_A,164.0,01101,ignore,1.0,10000.0,0.556759634628
164,2_1_1,1,1.0,711.618880536,2_ND,training,01,1_A,165.0,11100,ignore,1.0,10100.0,0.734315505209
165,2_1_1,1,1.0,718.338013483,2_ND,training,01,1_A,166.0,10111,kill,1.0,10200.0,4.93551309848
166,2_1_1,1,1.0,724.228926015,2_ND,training,01,1_A,167.0,00100,ignore,1.0,10300.0,4.10889022169
167,2_1_1,1,1.0,728.635391222,2_ND,training,01,1_A,168.0,10110,kill,1.0,10400.0,2.63753046903
168,2_1_1,1,1.0,733.463742174,2_ND,training,01,1_A,169.0,10011,ignore,1.0,10500.0,3.04121658028
169,2_1_1,1,1.0,735.979503643,2_ND,training,01,1_A,170.0,10000,ignore,1.0,10600.0,0.740595332786
170,2_1_1,1,1.0,738.323386424,2_ND,training,01,1_A,171.0,11101,ignore,1.0,10700.0,0.57367764407
171,2_1_1,1,1.0,740.62040527,2_ND,training,01,1_A,172.0,01001,ignore,1.0,10800.0,0.518577128341
172,2_1_1,1,1.0,743.042364782,2_ND,training,01,1_A,173.0,11000,ignore,1.0,10900.0,0.648600028224
173,2_1_1,1,1.0,745.448753015,2_ND,training,01,1_A,174.0,00101,ignore,1.0,11000.0,0.621319341099
174,2_1_1,1,1.0,748.870813876,2_ND,training,01,1_A,175.0,01110,kill,1.0,11100.0,1.65187111921
175,2_1_1,1,1.0,752.496016254,2_ND,training,01,1_A,176.0,00010,kill,1.0,11200.0,1.83951255965
176,2_1_1,1,1.0,755.730547609,2_ND,training,01,1_A,177.0,01010,kill,1.0,11300.0,1.46892319238
177,2_1_1,1,1.0,760.26199261,2_ND,training,01,1_A,178.0,00110,kill,1.0,11400.0,2.74324228973
178,2_1_1,1,1.0,763.621567904,2_ND,training,01,1_A,179.0,01000,ignore,1.0,11500.0,1.56693115923
179,2_1_1,1,1.0,765.856048584,2_ND,training,01,1_A,180.0,00001,ignore,1.0,11600.0,0.446216067122
180,2_1_1,1,1.0,769.965656592,2_ND,training,01,1_A,181.0,11111,kill,1.0,11700.0,2.33896058911
181,2_1_1,1,1.0,777.403528634,2_ND,training,01,1_A,182.0,01111,kill,1.0,11800.0,5.69243437933
182,2_1_1,1,1.0,780.591171037,2_ND,training,01,1_A,183.0,11001,ignore,1.0,11900.0,1.44471827372
183,2_1_1,1,1.0,785.325840304,2_ND,training,01,1_A,184.0,11011,kill,0.0,11800.0,2.97790321753
184,2_1_1,1,1.0,788.122831888,2_ND,training,01,1_A,185.0,10100,ignore,1.0,11900.0,0.999969851696
185,2_1_1,1,1.0,791.7948889,2_ND,training,01,1_A,186.0,00011,kill,1.0,12000.0,1.90307705137
186,2_1_1,1,1.0,794.748170255,2_ND,training,01,1_A,187.0,10001,ignore,1.0,12100.0,1.17661357572
187,2_1_1,1,1.0,798.329630651,2_ND,training,01,1_A,188.0,11010,kill,0.0,12000.0,1.83310508288
188,2_1_1,1,1.0,800.923471417,2_ND,training,01,1_A,189.0,00000,ignore,1.0,12100.0,0.822080746138
189,2_1_1,1,1.0,804.533072369,2_ND,training,01,1_A,190.0,00111,kill,1.0,12200.0,1.83633127213
190,2_1_1,1,1.0,807.736338328,2_ND,training,01,1_A,191.0,10010,kill,0.0,12100.0,1.44148534921
191,2_1_1,1,1.0,810.658397906,2_ND,training,01,1_A,192.0,01100,ignore,1.0,12200.0,1.14218389182
192,2_1_1,1,1.0,814.283606058,2_ND,training,01,1_A,193.0,11011,ignore,1.0,12300.0,1.87175200133
193,2_1_1,1,1.0,816.830585454,2_ND,training,01,1_A,194.0,01101,ignore,1.0,12400.0,0.763332285626
194,2_1_1,1,1.0,819.299471442,2_ND,training,01,1_A,195.0,11000,ignore,1.0,12500.0,0.699871388618
195,2_1_1,1,1.0,824.580965515,2_ND,training,01,1_A,196.0,11110,ignore,0.0,12400.0,3.50256869965
196,2_1_1,1,1.0,826.956089637,2_ND,training,01,1_A,197.0,11101,ignore,1.0,12500.0,0.590768204444
197,2_1_1,1,1.0,830.065615218,2_ND,training,01,1_A,198.0,10111,kill,1.0,12600.0,1.3420572048
198,2_1_1,1,1.0,832.565729717,2_ND,training,01,1_A,199.0,10000,ignore,1.0,12700.0,0.71893024837
199,2_1_1,1,1.0,835.737788654,2_ND,training,01,1_A,200.0,10110,kill,1.0,12800.0,1.40152281008
200,2_1_1,1,1.0,838.659777352,2_ND,training,01,1_A,201.0,00100,ignore,1.0,12900.0,1.14356782727
201,2_1_1,1,1.0,841.378724919,2_ND,training,01,1_A,202.0,10001,ignore,1.0,13000.0,0.944377662031
202,2_1_1,1,1.0,992.591156604,2_ND,test,01,2,0.0,11100,ignore,1.0,100.0,4.21277807
203,2_1_1,1,1.0,996.01321073,2_ND,test,01,2,1.0,00101,ignore,1.0,200.0,1.62380721763
204,2_1_1,1,1.0,1000.98180165,2_ND,test,01,2,2.0,10011,ignore,0.0,100.0,3.21373255247
205,2_1_1,1,1.0,1010.06038737,2_ND,test,01,2,3.0,00010,kill,0.0,0.0,7.33101073793
206,2_1_1,1,1.0,1015.17002296,2_ND,test,01,2,4.0,00110,kill,0.0,0.0,3.33624018576
207,2_1_1,1,1.0,1018.38893044,2_ND,test,01,2,5.0,01001,ignore,1.0,100.0,1.44770488018
208,2_1_1,1,1.0,1027.92068815,2_ND,test,01,2,6.0,01010,ignore,1.0,200.0,7.78114095294
209,2_1_1,1,1.0,1030.6864339,2_ND,test,01,2,7.0,10100,ignore,0.0,100.0,0.966419920973
210,2_1_1,1,1.0,1034.31164174,2_ND,test,01,2,8.0,01100,ignore,1.0,200.0,1.86282553754
211,2_1_1,1,1.0,1037.45241635,2_ND,test,01,2,9.0,00011,ignore,1.0,300.0,1.3785433879
212,2_1_1,1,1.0,1041.10887354,2_ND,test,01,2,10.0,11111,kill,1.0,400.0,1.90736163853
213,2_1_1,1,1.0,1045.28093344,2_ND,test,01,2,11.0,00111,kill,0.0,300.0,2.39701692154
214,2_1_1,1,1.0,1050.46873493,2_ND,test,01,2,12.0,10101,ignore,0.0,200.0,3.41074626674
215,2_1_1,1,1.0,1055.81272419,2_ND,test,01,2,13.0,11010,ignore,1.0,300.0,3.58447266126
216,2_1_1,1,1.0,1058.67225779,2_ND,test,01,2,14.0,11001,ignore,0.0,200.0,1.08551085339
217,2_1_1,1,1.0,1065.00070432,2_ND,test,01,2,15.0,01111,ignore,1.0,300.0,4.56994502746
218,2_1_1,1,1.0,1070.17282259,2_ND,test,01,2,16.0,01000,ignore,1.0,400.0,3.38251687022
219,2_1_1,1,1.0,1073.90741392,2_ND,test,01,2,17.0,01011,ignore,1.0,500.0,1.94756376046
220,2_1_1,1,1.0,1080.89214059,2_ND,test,01,2,18.0,01110,kill,0.0,400.0,5.24452936573
221,2_1_1,1,1.0,1085.3454877,2_ND,test,01,2,19.0,10010,kill,1.0,500.0,2.6868004952
222,2_1_1,1,1.0,1091.93957703,2_ND,test,01,2,20.0,00001,ignore,1.0,600.0,4.83292675887
223,2_1_1,1,1.0,1094.90850407,2_ND,test,01,2,21.0,00000,ignore,1.0,700.0,1.19546556679
224,2_1_1,1,1.0,1098.5805428,2_ND,test,01,2,22.0,00100,ignore,1.0,800.0,1.86550071843
225,2_1_1,1,1.0,1106.00281855,2_ND,test,01,2,23.0,11010,ignore,1.0,900.0,5.66977760815
226,2_1_1,1,1.0,1109.90927381,2_ND,test,01,2,24.0,00101,ignore,1.0,1000.0,2.14175989121
227,2_1_1,1,1.0,1115.6751501,2_ND,test,01,2,25.0,11100,kill,0.0,900.0,3.99854646688
228,2_1_1,1,1.0,1121.40983829,2_ND,test,01,2,26.0,01101,ignore,1.0,1000.0,3.97174366244
229,2_1_1,1,1.0,1125.03500378,2_ND,test,01,2,27.0,11001,ignore,0.0,900.0,1.84102799302
230,2_1_1,1,1.0,1128.81648471,2_ND,test,01,2,28.0,00000,ignore,1.0,1000.0,1.99731680094
231,2_1_1,1,1.0,1142.53592267,2_ND,test,01,2,29.0,10010,ignore,0.0,900.0,11.9801425309
232,2_1_1,1,1.0,1147.45709255,2_ND,test,01,2,30.0,01111,ignore,1.0,1000.0,3.15528204701
233,2_1_1,1,1.0,1152.05140863,2_ND,test,01,2,31.0,01100,ignore,1.0,1100.0,2.84347834454
234,2_1_1,1,1.0,1155.81719512,2_ND,test,01,2,32.0,10101,ignore,0.0,1000.0,1.97420812593
235,2_1_1,1,1.0,1162.78630946,2_ND,test,01,2,33.0,01010,ignore,1.0,1100.0,5.22237741828
236,2_1_1,1,1.0,1169.89604961,2_ND,test,01,2,34.0,00011,ignore,1.0,1200.0,5.32860432596
237,2_1_1,1,1.0,1176.69325063,2_ND,test,01,2,35.0,11000,kill,0.0,1100.0,5.03110214502
238,2_1_1,1,1.0,1186.41250674,2_ND,test,01,2,36.0,00110,kill,0.0,1000.0,7.95417361574
239,2_1_1,1,1.0,1192.72536499,2_ND,test,01,2,37.0,10110,kill,1.0,1100.0,4.52498813311
240,2_1_1,1,1.0,1197.49123903,2_ND,test,01,2,38.0,10011,ignore,0.0,1000.0,3.00420953713
241,2_1_1,1,1.0,1206.50730487,2_ND,test,01,2,39.0,11011,ignore,0.0,900.0,7.25766825319
242,2_1_1,1,1.0,1212.9451426,2_ND,test,01,2,40.0,01110,kill,0.0,800.0,4.66499685688
243,2_1_1,1,1.0,1217.64828796,2_ND,test,01,2,41.0,10100,ignore,0.0,700.0,2.96395641966
244,2_1_1,1,1.0,1222.52353973,2_ND,test,01,2,42.0,10111,kill,1.0,800.0,3.11484034228
245,2_1_1,1,1.0,1226.39871292,2_ND,test,01,2,43.0,01000,ignore,1.0,900.0,2.12491725253
246,2_1_1,1,1.0,1229.50826609,2_ND,test,01,2,44.0,10001,ignore,0.0,800.0,1.35045543183
247,2_1_1,1,1.0,1233.27404167,2_ND,test,01,2,45.0,01011,ignore,1.0,900.0,1.99101548468
248,2_1_1,1,1.0,1237.83678863,2_ND,test,01,2,46.0,11101,kill,1.0,1000.0,2.80588052291
249,2_1_1,1,1.0,1265.63508557,2_ND,test,01,2,47.0,10000,ignore,0.0,900.0,26.0274724817
250,2_1_1,1,1.0,1277.63572382,2_ND,test,01,2,48.0,00010,kill,0.0,800.0,10.2290863781
251,2_1_1,1,1.0,1292.71464438,2_ND,test,01,2,49.0,11110,kill,0.0,700.0,13.3324793452
252,2_1_1,1,1.0,1298.84104595,2_ND,test,01,2,50.0,11111,ignore,0.0,600.0,4.36470595782
253,2_1_1,1,1.0,1302.62247011,2_ND,test,01,2,51.0,01001,ignore,1.0,700.0,2.01885519834
254,2_1_1,1,1.0,1306.56016479,2_ND,test,01,2,52.0,00111,ignore,1.0,800.0,2.15976580541
255,2_1_1,1,1.0,1309.84157836,2_ND,test,01,2,53.0,00001,ignore,1.0,900.0,1.51109682096
256,2_1_1,1,1.0,1313.14178074,2_ND,test,01,2,54.0,11001,ignore,0.0,800.0,1.56236304973
257,2_1_1,1,1.0,1337.15862209,2_ND,test,01,2,55.0,00101,ignore,1.0,900.0,22.2182932853
258,2_1_1,1,1.0,1343.97147008,2_ND,test,01,2,56.0,00111,kill,0.0,800.0,5.0556864833
259,2_1_1,1,1.0,1348.94049815,2_ND,test,01,2,57.0,10011,kill,1.0,900.0,3.1927506158
260,2_1_1,1,1.0,1355.28453167,2_ND,test,01,2,58.0,01001,ignore,1.0,1000.0,4.56653602402
261,2_1_1,1,1.0,1360.74130895,2_ND,test,01,2,59.0,00011,ignore,1.0,1100.0,3.70788474368
262,2_1_1,1,1.0,1385.67074396,2_ND,test,01,2,60.0,10000,ignore,0.0,1000.0,23.1564988839
263,2_1_1,1,1.0,1403.09352325,2_ND,test,01,2,61.0,01011,ignore,1.0,1100.0,15.6687458306
264,2_1_1,1,1.0,1409.57825153,2_ND,test,01,2,62.0,00110,ignore,1.0,1200.0,4.71751905116
265,2_1_1,1,1.0,1415.09413776,2_ND,test,01,3,0.0,00010,ignore,0.0,1100.0,3.68644320573
266,2_1_1,1,1.0,1429.46992354,2_ND,test,01,3,1.0,10111,ignore,1.0,1200.0,12.6202721686
267,2_1_1,1,1.0,1437.56410941,2_ND,test,01,3,2.0,11011,kill,1.0,1300.0,6.35433333761
268,2_1_1,1,1.0,1454.1149465,2_ND,test,01,3,3.0,01010,ignore,0.0,1200.0,14.7992895905
269,2_1_1,1,1.0,1460.53716163,2_ND,test,01,3,4.0,11110,kill,0.0,1100.0,4.67673833838
270,2_1_1,1,1.0,1465.67814537,2_ND,test,01,3,5.0,10110,kill,0.0,1000.0,3.35719357777
271,2_1_1,1,1.0,1498.96110195,2_ND,test,01,3,6.0,11111,,,900.0,
272,2_1_1,1,1.0,1507.80527659,2_ND,test,01,3,7.0,11010,ignore,0.0,800.0,7.10346962077
273,2_1_1,1,1.0,1512.10238075,2_ND,test,01,3,8.0,11101,ignore,1.0,900.0,2.50871189768
274,2_1_1,1,1.0,1515.99319482,2_ND,test,01,3,9.0,11100,ignore,1.0,1000.0,2.15111965669
275,2_1_1,1,1.0,1519.69653295,2_ND,test,01,3,10.0,00001,ignore,0.0,900.0,1.94316274953
276,2_1_1,1,1.0,1527.16567423,2_ND,test,01,3,11.0,10100,kill,0.0,800.0,5.70476696003
277,2_1_1,1,1.0,1533.9472533,2_ND,test,01,3,12.0,01000,ignore,0.0,700.0,5.00721667009
278,2_1_1,1,1.0,1537.20053433,2_ND,test,01,3,13.0,01111,ignore,1.0,800.0,1.49013380715
279,2_1_1,1,1.0,1539.84127816,2_ND,test,01,3,14.0,10001,ignore,1.0,900.0,0.870230474164
280,2_1_1,1,1.0,1542.38830085,2_ND,test,01,3,15.0,00100,ignore,1.0,1000.0,0.761322933236
281,2_1_1,1,1.0,1544.95096058,2_ND,test,01,3,16.0,11000,kill,0.0,900.0,0.827057782111
282,2_1_1,1,1.0,1555.6546098,2_ND,test,01,3,17.0,01101,ignore,1.0,1000.0,8.91302823677
283,2_1_1,1,1.0,1560.87364461,2_ND,test,01,3,18.0,00000,ignore,0.0,900.0,3.43674533022
284,2_1_1,1,1.0,1567.85836551,2_ND,test,01,3,19.0,10101,ignore,1.0,1000.0,5.23254252835
285,2_1_1,1,1.0,1582.6247245,2_ND,test,01,3,20.0,01110,ignore,1.0,1100.0,12.9954918664
286,2_1_1,1,1.0,1592.85965868,2_ND,test,01,3,21.0,01100,ignore,1.0,1200.0,8.49773214194
287,2_1_1,1,1.0,1598.00057378,2_ND,test,01,3,22.0,10010,kill,1.0,1300.0,3.39176790938
288,2_1_1,1,1.0,1604.04773214,2_ND,test,01,3,23.0,11100,ignore,1.0,1400.0,4.26082516549
289,2_1_1,1,1.0,1618.06407156,2_ND,test,01,3,24.0,11110,kill,0.0,1300.0,12.2799109663
290,2_1_1,1,1.0,1623.50185252,2_ND,test,01,3,25.0,11111,ignore,1.0,1400.0,3.68354704418
291,2_1_1,1,1.0,1629.53341234,2_ND,test,01,3,26.0,11011,kill,1.0,1500.0,4.25306518448
292,2_1_1,1,1.0,1636.94014696,2_ND,test,01,3,27.0,10110,kill,0.0,1400.0,5.6395600272
293,2_1_1,1,1.0,1640.9247261,2_ND,test,01,3,28.0,00000,ignore,0.0,1300.0,2.20860541643
294,2_1_1,1,1.0,1648.59699511,2_ND,test,01,3,29.0,11010,kill,1.0,1400.0,5.91921409145
295,2_1_1,1,1.0,1653.42532939,2_ND,test,01,3,30.0,10010,kill,1.0,1500.0,3.05285703289
296,2_1_1,1,1.0,1659.80066904,2_ND,test,01,3,31.0,00011,ignore,0.0,1400.0,4.60039224868
297,2_1_1,1,1.0,1665.50410466,2_ND,test,01,3,32.0,10100,ignore,1.0,1500.0,3.96495676605
298,2_1_1,1,1.0,1674.67647727,2_ND,test,01,3,33.0,00101,ignore,1.0,1600.0,7.39531129727
299,2_1_1,1,1.0,1684.31759827,2_ND,test,01,3,34.0,01010,kill,1.0,1700.0,7.91045216041
300,2_1_1,1,1.0,1694.09936496,2_ND,test,01,3,35.0,01001,ignore,0.0,1600.0,7.98722257146
301,2_1_1,1,1.0,1701.11530508,2_ND,test,01,3,36.0,01000,kill,1.0,1700.0,5.25325633756
302,2_1_1,1,1.0,1707.64691942,2_ND,test,01,3,37.0,01110,ignore,1.0,1800.0,4.79200717145
303,2_1_1,1,1.0,1716.72550771,2_ND,test,01,3,38.0,10011,kill,1.0,1900.0,7.31570598348
304,2_1_1,1,1.0,1741.64864557,2_ND,test,01,3,39.0,01011,ignore,0.0,1800.0,23.194910389
305,2_1_1,1,1.0,1764.88425585,2_ND,test,01,3,40.0,10001,kill,0.0,1700.0,21.4814517371
306,2_1_1,1,1.0,1772.5096125,2_ND,test,01,3,41.0,10000,ignore,1.0,1800.0,5.8609396649
307,2_1_1,1,1.0,1779.97875122,2_ND,test,01,3,42.0,00110,kill,0.0,1700.0,5.71870509827
308,2_1_1,1,1.0,1784.22893403,2_ND,test,01,3,43.0,00010,ignore,0.0,1600.0,2.49365057474
309,2_1_1,1,1.0,1788.63545473,2_ND,test,01,3,44.0,11001,ignore,1.0,1700.0,2.63171794016
310,2_1_1,1,1.0,1793.13567378,2_ND,test,01,3,45.0,00100,ignore,1.0,1800.0,2.72399933289
311,2_1_1,1,1.0,1797.83904077,2_ND,test,01,3,46.0,01100,ignore,1.0,1900.0,2.92436335762
312,2_1_1,1,1.0,1802.37051303,2_ND,test,01,3,47.0,11101,ignore,1.0,2000.0,2.7895613101
313,2_1_1,1,1.0,1807.27702154,2_ND,test,01,3,48.0,00001,ignore,0.0,1900.0,3.11530315082
314,2_1_1,1,1.0,1816.15247954,2_ND,test,01,3,49.0,00111,kill,0.0,1800.0,7.09088719403
315,2_1_1,1,1.0,1822.68405892,2_ND,test,01,3,50.0,10101,ignore,1.0,1900.0,4.76978113614
316,2_1_1,1,1.0,1825.69984413,2_ND,test,01,3,51.0,01101,ignore,1.0,2000.0,1.23023490019
317,2_1_1,1,1.0,1829.71568834,2_ND,test,01,3,52.0,10111,ignore,1.0,2100.0,2.2770311618
318,2_1_1,1,1.0,1837.85678048,2_ND,test,01,4,0.0,11000,ignore,1.0,2200.0,6.35976997486
319,2_1_1,1,1.0,1849.32611196,2_ND,test,01,4,1.0,01111,ignore,1.0,2300.0,9.70836583363
320,2_1_1,1,1.0,1857.0765026,2_ND,test,01,4,2.0,00010,kill,0.0,2200.0,6.0168609201
321,2_1_1,1,1.0,1861.45172198,2_ND,test,01,4,3.0,10001,ignore,0.0,2100.0,2.60380766665
322,2_1_1,1,1.0,1865.34258127,2_ND,test,01,4,4.0,00011,ignore,0.0,2000.0,2.14607206086
323,2_1_1,1,1.0,1878.21824389,2_ND,test,01,4,5.0,11100,ignore,1.0,2100.0,11.0981490866
324,2_1_1,1,1.0,1886.23429177,2_ND,test,01,4,6.0,10000,kill,0.0,2000.0,6.24484880946
325,2_1_1,1,1.0,1897.76613383,2_ND,test,01,4,7.0,00110,kill,1.0,2100.0,9.78272662544
326,2_1_1,1,1.0,1902.610151,2_ND,test,01,4,8.0,01011,ignore,1.0,2200.0,3.07186329348
327,2_1_1,1,1.0,1906.43844133,2_ND,test,01,4,9.0,01010,ignore,1.0,2300.0,2.09122716426
328,2_1_1,1,1.0,1910.48565294,2_ND,test,01,4,10.0,10111,kill,1.0,2400.0,2.26942416739
329,2_1_1,1,1.0,1915.17327417,2_ND,test,01,4,11.0,10011,kill,1.0,2500.0,2.92864794478
330,2_1_1,1,1.0,1925.72068687,2_ND,test,01,4,12.0,00001,ignore,0.0,2400.0,8.81089797044
331,2_1_1,1,1.0,1932.08036159,2_ND,test,01,4,13.0,00111,kill,1.0,2500.0,4.61220268641
332,2_1_1,1,1.0,1946.97173051,2_ND,test,01,4,14.0,10101,ignore,0.0,2400.0,13.1027916047
333,2_1_1,1,1.0,1952.72831214,2_ND,test,01,4,15.0,10010,kill,0.0,2300.0,4.0171101247
334,2_1_1,1,1.0,1968.49473206,2_ND,test,01,4,16.0,11001,ignore,1.0,2400.0,14.0054289398
335,2_1_1,1,1.0,1974.57316192,2_ND,test,01,4,17.0,01100,ignore,1.0,2500.0,4.34731038641
336,2_1_1,1,1.0,1977.95466689,2_ND,test,01,4,18.0,00100,ignore,0.0,2400.0,1.60142530918
337,2_1_1,1,1.0,1993.20542958,2_ND,test,01,4,19.0,11110,kill,0.0,2300.0,13.4967613024
338,2_1_1,1,1.0,1999.2057471,2_ND,test,01,4,20.0,10110,kill,1.0,2400.0,4.25143268589
339,2_1_1,1,1.0,2006.95616789,2_ND,test,01,4,21.0,11111,ignore,1.0,2500.0,5.98949908914
340,2_1_1,1,1.0,2011.40948581,2_ND,test,01,4,22.0,01000,ignore,1.0,2600.0,2.71479768564
341,2_1_1,1,1.0,2016.11287268,2_ND,test,01,4,23.0,11000,ignore,1.0,2700.0,2.93163006107
342,2_1_1,1,1.0,2022.58201044,2_ND,test,01,4,24.0,01111,ignore,1.0,2800.0,4.69974085288
343,2_1_1,1,1.0,2027.0197558,2_ND,test,01,4,25.0,01110,ignore,1.0,2900.0,2.70093780469
344,2_1_1,1,1.0,2035.44203764,2_ND,test,01,4,26.0,00000,ignore,1.0,3000.0,6.63791309591
345,2_1_1,1,1.0,2041.49432891,2_ND,test,01,4,27.0,00101,kill,1.0,3100.0,4.31148361728
346,2_1_1,1,1.0,2046.15087783,2_ND,test,01,4,28.0,10100,ignore,0.0,3000.0,2.9126914738
347,2_1_1,1,1.0,2055.96386341,2_ND,test,01,4,29.0,11011,kill,0.0,2900.0,8.04215759224
348,2_1_1,1,1.0,2063.69862216,2_ND,test,01,4,30.0,01001,ignore,1.0,3000.0,5.98642781085
349,2_1_1,1,1.0,2067.08943013,2_ND,test,01,4,31.0,11010,ignore,1.0,3100.0,1.66421941551
350,2_1_1,1,1.0,2077.79313998,2_ND,test,01,4,32.0,01101,ignore,1.0,3200.0,8.92321515626
351,2_1_1,1,1.0,2084.12157849,2_ND,test,01,4,33.0,11101,kill,0.0,3100.0,4.56776440704
352,2_1_1,1,1.0,2089.12181166,2_ND,test,01,4,34.0,10110,kill,1.0,3200.0,3.22047871658
353,2_1_1,1,1.0,2094.18459678,2_ND,test,01,4,35.0,01011,ignore,1.0,3300.0,3.33030834659
354,2_1_1,1,1.0,2098.49729852,2_ND,test,01,4,36.0,10011,kill,1.0,3400.0,2.54619618207
355,2_1_1,1,1.0,2103.45065813,2_ND,test,01,4,37.0,11100,ignore,1.0,3500.0,3.19454155334
356,2_1_1,1,1.0,2106.48847052,2_ND,test,01,4,38.0,01001,ignore,1.0,3600.0,1.30507100888
357,2_1_1,1,1.0,2110.44180832,2_ND,test,01,4,39.0,00010,kill,0.0,3500.0,2.18059347257
358,2_1_1,1,1.0,2119.692266,2_ND,test,01,4,40.0,00001,ignore,0.0,3400.0,7.49130862883
359,2_1_1,1,1.0,2126.55198369,2_ND,test,01,4,41.0,00100,kill,1.0,3500.0,5.08094979987
360,2_1_1,1,1.0,2130.64599541,2_ND,test,01,4,42.0,10000,ignore,1.0,3600.0,2.32986157438
361,2_1_1,1,1.0,2147.72493618,2_ND,test,01,4,43.0,11110,ignore,1.0,3700.0,15.3563843845
362,2_1_1,1,1.0,2157.08482161,2_ND,test,01,4,44.0,01110,ignore,1.0,3800.0,7.58636687279
363,2_1_1,1,1.0,2161.06940845,2_ND,test,01,4,45.0,11000,ignore,1.0,3900.0,2.25385096475
364,2_1_1,1,1.0,2165.75711949,2_ND,test,01,4,46.0,11111,kill,0.0,3800.0,2.93871427105
365,2_1_1,1,1.0,2169.08545665,2_ND,test,01,4,47.0,01101,ignore,1.0,3900.0,1.5620147406
366,2_1_1,1,1.0,2172.19497165,2_ND,test,01,4,48.0,01100,ignore,1.0,4000.0,1.36415206291
367,2_1_1,1,1.0,2177.49211429,2_ND,test,01,4,49.0,00011,kill,1.0,4100.0,3.53112523734
368,2_1_1,1,1.0,2182.16424828,2_ND,test,01,4,50.0,11010,ignore,1.0,4200.0,2.94947721558
369,2_1_1,1,1.0,2186.02381107,2_ND,test,01,4,51.0,11001,ignore,1.0,4300.0,2.10156418381
370,2_1_1,1,1.0,2189.77399741,2_ND,test,01,4,52.0,00110,kill,1.0,4400.0,1.97512604557
