,unique_id,pair_id,sbj_id,wall_time,condition,block,rule_id,rule_num,trial,stimulus,choice,correct,points,reaction_time
0,1_6_2,6,2.0,25.198505592,1_I,training,01,1_B,1.0,10001,ignore,1.0,100.0,1.72762708852
1,1_6_2,6,2.0,29.3612836588,1_I,training,01,1_B,2.0,11111,kill,0.0,0.0,1.9914339001
2,1_6_2,6,2.0,34.2521728278,1_I,training,01,1_B,3.0,11010,kill,1.0,100.0,2.75658868393
3,1_6_2,6,2.0,37.4710693995,1_I,training,01,1_B,4.0,11101,ignore,0.0,0.0,1.08107621021
4,1_6_2,6,2.0,40.5181135696,1_I,training,01,1_B,5.0,01011,ignore,1.0,100.0,0.910827335161
5,1_6_2,6,2.0,43.9245295645,1_I,training,01,1_B,6.0,01110,kill,1.0,200.0,1.27017206506
6,1_6_2,6,2.0,47.4559381185,1_I,training,01,1_B,7.0,11001,ignore,0.0,100.0,1.40544386199
7,1_6_2,6,2.0,51.7998941656,1_I,training,01,1_B,8.0,01101,ignore,0.0,0.0,2.21560864426
8,1_6_2,6,2.0,57.1438998867,1_I,training,01,1_B,9.0,10011,ignore,1.0,100.0,3.20784800243
9,1_6_2,6,2.0,61.6597908519,1_I,training,01,1_B,10.0,00011,ignore,1.0,200.0,2.36929800758
10,1_6_2,6,2.0,64.9099020026,1_I,training,01,1_B,11.0,00010,kill,0.0,100.0,1.13590278014
11,1_6_2,6,2.0,73.4259555372,1_I,training,01,1_B,12.0,11000,kill,1.0,200.0,6.40304801425
12,1_6_2,6,2.0,78.4730986448,1_I,training,01,1_B,13.0,11110,kill,1.0,300.0,2.92571558299
13,1_6_2,6,2.0,83.7702088074,1_I,training,01,1_B,14.0,10010,kill,0.0,200.0,3.14318843983
14,1_6_2,6,2.0,88.0985803494,1_I,training,01,1_B,15.0,00111,ignore,1.0,300.0,2.18779283553
15,1_6_2,6,2.0,92.4581750915,1_I,training,01,1_B,16.0,01001,ignore,0.0,200.0,2.22442845114
16,1_6_2,6,2.0,99.9428477828,1_I,training,01,1_B,17.0,00100,ignore,1.0,300.0,5.33963153372
17,1_6_2,6,2.0,107.255719799,1_I,training,01,1_B,18.0,10110,kill,0.0,200.0,5.16597731991
18,1_6_2,6,2.0,116.162452517,1_I,training,01,1_B,19.0,00110,ignore,1.0,300.0,6.76996248996
19,1_6_2,6,2.0,127.131699373,1_I,training,01,1_B,20.0,11100,kill,1.0,400.0,8.84095405317
20,1_6_2,6,2.0,131.600683695,1_I,training,01,1_B,21.0,00001,ignore,1.0,500.0,2.34572132218
21,1_6_2,6,2.0,137.304073557,1_I,training,01,1_B,22.0,10111,kill,0.0,400.0,3.5797783225
22,1_6_2,6,2.0,140.819892269,1_I,training,01,1_B,23.0,00000,ignore,1.0,500.0,1.39809867559
23,1_6_2,6,2.0,147.507714047,1_I,training,01,1_B,24.0,01111,kill,0.0,400.0,4.58119793208
24,1_6_2,6,2.0,150.820359451,1_I,training,01,1_B,25.0,00101,ignore,1.0,500.0,1.18878918962
25,1_6_2,6,2.0,156.055063445,1_I,training,01,1_B,26.0,01010,ignore,0.0,400.0,3.14389167615
26,1_6_2,6,2.0,160.039606615,1_I,training,01,1_B,27.0,11011,kill,0.0,300.0,1.87589952054
27,1_6_2,6,2.0,163.586640727,1_I,training,01,1_B,28.0,01000,ignore,0.0,200.0,1.43511403061
28,1_6_2,6,2.0,168.133728618,1_I,training,01,1_B,29.0,10101,kill,0.0,100.0,2.41629496679
29,1_6_2,6,2.0,177.243567728,1_I,training,01,1_B,30.0,10100,kill,0.0,0.0,6.98317077066
30,1_6_2,6,2.0,182.165624675,1_I,training,01,1_B,31.0,10000,ignore,1.0,100.0,2.7718431237
31,1_6_2,6,2.0,187.025236044,1_I,training,01,1_B,32.0,01100,ignore,0.0,0.0,2.71222567933
32,1_6_2,6,2.0,190.494286872,1_I,training,01,1_B,33.0,01010,ignore,0.0,0.0,1.34077978358
33,1_6_2,6,2.0,198.228996408,1_I,training,01,1_B,34.0,00101,ignore,1.0,100.0,5.52750319084
34,1_6_2,6,2.0,210.201502044,1_I,training,01,1_B,35.0,11001,kill,1.0,200.0,9.79940522546
35,1_6_2,6,2.0,215.208256068,1_I,training,01,1_B,36.0,11011,kill,0.0,100.0,2.92165011345
36,1_6_2,6,2.0,218.652220696,1_I,training,01,1_B,37.0,10001,kill,0.0,0.0,1.31276568929
37,1_6_2,6,2.0,225.424467369,1_I,training,01,1_B,38.0,10000,kill,0.0,0.0,4.67933819427
38,1_6_2,6,2.0,234.193675307,1_I,training,01,1_B,39.0,01101,ignore,0.0,0.0,6.67262932795
39,1_6_2,6,2.0,239.278647028,1_I,training,01,1_B,40.0,10111,kill,0.0,0.0,2.95488860088
40,1_6_2,6,2.0,244.641301032,1_I,training,01,1_B,41.0,00000,ignore,1.0,100.0,3.22046684547
41,1_6_2,6,2.0,249.319791074,1_I,training,01,1_B,42.0,01000,kill,1.0,200.0,2.53611937529
42,1_6_2,6,2.0,254.279415127,1_I,training,01,1_B,43.0,01001,kill,1.0,300.0,2.82475785968
43,1_6_2,6,2.0,260.429884711,1_I,training,01,1_B,44.0,00100,ignore,1.0,400.0,4.00474325306
44,1_6_2,6,2.0,268.836542918,1_I,training,01,1_B,45.0,11010,kill,1.0,500.0,6.29307548275
45,1_6_2,6,2.0,275.289971062,1_I,training,01,1_B,46.0,11000,kill,1.0,600.0,4.342620596
46,1_6_2,6,2.0,282.196553526,1_I,training,01,1_B,47.0,10010,kill,0.0,500.0,4.76407427128
47,1_6_2,6,2.0,286.77492866,1_I,training,01,1_B,48.0,00010,kill,0.0,400.0,2.44773738947
48,1_6_2,6,2.0,290.884520631,1_I,training,01,1_B,49.0,11110,ignore,0.0,300.0,1.98270974649
49,1_6_2,6,2.0,296.166029868,1_I,training,01,1_B,50.0,11101,kill,1.0,400.0,3.15904348365
50,1_6_2,6,2.0,299.541157799,1_I,training,01,1_B,51.0,11100,kill,1.0,500.0,1.24724155244
51,1_6_2,6,2.0,304.228902808,1_I,training,01,1_B,52.0,01100,ignore,0.0,400.0,2.52504699532
52,1_6_2,6,2.0,310.651061361,1_I,training,01,1_B,53.0,00111,kill,0.0,300.0,4.27308517945
53,1_6_2,6,2.0,314.43252975,1_I,training,01,1_B,54.0,00001,ignore,1.0,400.0,1.65643888187
54,1_6_2,6,2.0,322.823566094,1_I,training,01,1_B,55.0,01011,ignore,1.0,500.0,6.24084222505
55,1_6_2,6,2.0,327.355018574,1_I,training,01,1_B,56.0,10011,kill,0.0,400.0,2.38419857128
56,1_6_2,6,2.0,331.855202286,1_I,training,01,1_B,57.0,10100,kill,0.0,300.0,2.34139804038
57,1_6_2,6,2.0,335.16789367,1_I,training,01,1_B,58.0,10110,ignore,1.0,400.0,1.18417320058
58,1_6_2,6,2.0,338.449276052,1_I,training,01,1_B,59.0,00110,ignore,1.0,500.0,1.15429407266
59,1_6_2,6,2.0,341.605704466,1_I,training,01,1_B,60.0,01110,ignore,0.0,400.0,1.04852166424
60,1_6_2,6,2.0,347.981042177,1_I,training,01,1_B,61.0,00011,ignore,1.0,500.0,4.24118214313
61,1_6_2,6,2.0,351.903070388,1_I,training,01,1_B,62.0,10101,kill,0.0,400.0,1.77245316992
62,1_6_2,6,2.0,355.371987384,1_I,training,01,1_B,63.0,01111,ignore,1.0,500.0,1.33580129735
63,1_6_2,6,2.0,358.590906124,1_I,training,01,1_B,64.0,11111,ignore,1.0,600.0,1.09464050173
64,1_6_2,6,2.0,363.997459235,1_I,training,01,1_B,65.0,11000,kill,1.0,700.0,3.26997254792
65,1_6_2,6,2.0,368.153876565,1_I,training,01,1_B,66.0,11110,ignore,0.0,600.0,2.02334186276
66,1_6_2,6,2.0,372.575964918,1_I,training,01,1_B,67.0,00100,kill,0.0,500.0,2.26855293834
67,1_6_2,6,2.0,378.810640175,1_I,training,01,1_B,68.0,01001,ignore,0.0,400.0,4.10267578753
68,1_6_2,6,2.0,382.763984365,1_I,training,01,1_B,69.0,10100,ignore,1.0,500.0,1.79250053677
69,1_6_2,6,2.0,386.373554784,1_I,training,01,1_B,70.0,00110,ignore,1.0,600.0,1.47500514188
70,1_6_2,6,2.0,389.748712683,1_I,training,01,1_B,71.0,00101,ignore,1.0,700.0,1.22965038111
71,1_6_2,6,2.0,393.436356292,1_I,training,01,1_B,72.0,01101,ignore,0.0,600.0,1.56013450575
72,1_6_2,6,2.0,404.546313634,1_I,training,01,1_B,73.0,01110,ignore,0.0,500.0,8.97434480584
73,1_6_2,6,2.0,410.593432109,1_I,training,01,1_B,74.0,00001,kill,0.0,400.0,3.8877083897
74,1_6_2,6,2.0,413.67175449,1_I,training,01,1_B,75.0,00111,ignore,1.0,500.0,0.935853598759
75,1_6_2,6,2.0,418.843856083,1_I,training,01,1_B,76.0,10000,kill,0.0,400.0,3.03255741968
76,1_6_2,6,2.0,422.812841842,1_I,training,01,1_B,77.0,00000,kill,0.0,300.0,1.84709638936
77,1_6_2,6,2.0,427.188010826,1_I,training,01,1_B,78.0,01011,kill,0.0,200.0,2.22369483567
78,1_6_2,6,2.0,432.313250114,1_I,training,01,1_B,79.0,11010,ignore,0.0,100.0,2.99608026829
79,1_6_2,6,2.0,437.532268612,1_I,training,01,1_B,80.0,11011,kill,0.0,0.0,3.10796997062
80,1_6_2,6,2.0,440.782413016,1_I,training,01,1_B,81.0,10110,kill,0.0,0.0,1.10170283359
81,1_6_2,6,2.0,443.923211356,1_I,training,01,1_B,82.0,01111,ignore,1.0,100.0,1.02495401048
82,1_6_2,6,2.0,446.751467334,1_I,training,01,1_B,83.0,10011,ignore,1.0,200.0,0.702519950688
83,1_6_2,6,2.0,449.611013839,1_I,training,01,1_B,84.0,01000,ignore,0.0,100.0,0.718393878847
84,1_6_2,6,2.0,453.017385496,1_I,training,01,1_B,85.0,01010,ignore,0.0,0.0,1.29460962994
85,1_6_2,6,2.0,456.09565574,1_I,training,01,1_B,86.0,10010,ignore,1.0,100.0,0.960391743275
86,1_6_2,6,2.0,459.25207348,1_I,training,01,1_B,87.0,11001,ignore,0.0,0.0,1.04208374711
87,1_6_2,6,2.0,462.924109593,1_I,training,01,1_B,88.0,11100,ignore,0.0,0.0,1.52737838999
88,1_6_2,6,2.0,466.643051528,1_I,training,01,1_B,89.0,11111,kill,0.0,0.0,1.58563944626
89,1_6_2,6,2.0,469.643214098,1_I,training,01,1_B,90.0,00010,ignore,1.0,100.0,0.888653427652
90,1_6_2,6,2.0,474.34657276,1_I,training,01,1_B,91.0,10101,ignore,1.0,200.0,2.58028286275
91,1_6_2,6,2.0,481.737530282,1_I,training,01,1_B,92.0,11101,ignore,0.0,100.0,5.25339866767
92,1_6_2,6,2.0,484.987759665,1_I,training,01,1_B,93.0,10001,ignore,1.0,200.0,1.12960362185
93,1_6_2,6,2.0,487.972208412,1_I,training,01,1_B,94.0,00011,ignore,1.0,300.0,0.863173529413
94,1_6_2,6,2.0,492.253663869,1_I,training,01,1_B,95.0,01100,kill,1.0,400.0,2.1546151064
95,1_6_2,6,2.0,497.644591834,1_I,training,01,1_B,96.0,10111,ignore,1.0,500.0,3.2225901019
96,1_6_2,6,2.0,501.082256071,1_I,training,01,1_B,97.0,00011,ignore,1.0,600.0,1.28907569787
97,1_6_2,6,2.0,504.066786514,1_I,training,01,1_B,98.0,11000,kill,1.0,700.0,0.861930447341
98,1_6_2,6,2.0,506.941935177,1_I,training,01,1_B,99.0,11010,kill,1.0,800.0,0.751521933954
99,1_6_2,6,2.0,509.988916125,1_I,training,01,1_B,100.0,11001,ignore,0.0,700.0,0.932577576656
100,1_6_2,6,2.0,514.520410069,1_I,training,01,1_B,101.0,11110,kill,1.0,800.0,2.40193383831
101,1_6_2,6,2.0,517.53618547,1_I,training,01,1_B,102.0,10000,kill,0.0,700.0,0.868466070387
102,1_6_2,6,2.0,522.317634154,1_I,training,01,1_B,103.0,11011,ignore,1.0,800.0,2.67063867241
103,1_6_2,6,2.0,525.505306294,1_I,training,01,1_B,104.0,11111,ignore,1.0,900.0,1.05948320135
104,1_6_2,6,2.0,528.896144352,1_I,training,01,1_B,105.0,10101,ignore,1.0,1000.0,1.2617492398
105,1_6_2,6,2.0,531.927496458,1_I,training,01,1_B,106.0,01010,kill,1.0,1100.0,0.90819214896
106,1_6_2,6,2.0,536.16212081,1_I,training,01,1_B,107.0,00001,kill,0.0,1000.0,2.08588309527
107,1_6_2,6,2.0,539.771655922,1_I,training,01,1_B,108.0,00100,kill,0.0,900.0,1.4598098183
108,1_6_2,6,2.0,543.037456674,1_I,training,01,1_B,109.0,10110,ignore,1.0,1000.0,1.1463257031
109,1_6_2,6,2.0,548.568964986,1_I,training,01,1_B,110.0,11101,ignore,0.0,900.0,3.40019319499
110,1_6_2,6,2.0,551.92851416,1_I,training,01,1_B,111.0,01110,ignore,0.0,800.0,1.22767327304
111,1_6_2,6,2.0,555.694329895,1_I,training,01,1_B,112.0,10100,kill,0.0,700.0,1.62660737532
112,1_6_2,6,2.0,558.81943535,1_I,training,01,1_B,113.0,01000,ignore,0.0,600.0,1.00889000735
113,1_6_2,6,2.0,561.991484806,1_I,training,01,1_B,114.0,00111,ignore,1.0,700.0,1.01692693527
114,1_6_2,6,2.0,564.913513427,1_I,training,01,1_B,115.0,01101,ignore,0.0,600.0,0.797017588298
115,1_6_2,6,2.0,569.335659254,1_I,training,01,1_B,116.0,01011,ignore,1.0,700.0,2.29008190466
116,1_6_2,6,2.0,573.101390421,1_I,training,01,1_B,117.0,01100,kill,1.0,800.0,1.60520156773
117,1_6_2,6,2.0,575.976534157,1_I,training,01,1_B,118.0,01111,ignore,1.0,900.0,0.750720581178
118,1_6_2,6,2.0,579.13297776,1_I,training,01,1_B,119.0,10011,ignore,1.0,1000.0,1.03229303895
119,1_6_2,6,2.0,582.945628707,1_I,training,01,1_B,120.0,10010,kill,0.0,900.0,1.69744088484
120,1_6_2,6,2.0,586.164535542,1_I,training,01,1_B,121.0,00010,ignore,1.0,1000.0,1.09256322456
121,1_6_2,6,2.0,589.07091931,1_I,training,01,1_B,122.0,01001,ignore,0.0,900.0,0.755485592276
122,1_6_2,6,2.0,592.836747772,1_I,training,01,1_B,123.0,10001,kill,0.0,800.0,1.65406232899
123,1_6_2,6,2.0,595.758777625,1_I,training,01,1_B,124.0,00000,ignore,1.0,900.0,0.770992507434
124,1_6_2,6,2.0,598.212035399,1_I,training,01,1_B,125.0,10111,ignore,1.0,1000.0,0.32971397207
125,1_6_2,6,2.0,601.149652631,1_I,training,01,1_B,126.0,00110,ignore,1.0,1100.0,0.812033921197
126,1_6_2,6,2.0,603.649739458,1_I,training,01,1_B,127.0,00101,ignore,1.0,1200.0,0.380542809768
127,1_6_2,6,2.0,607.103067022,1_I,training,01,1_B,128.0,11100,ignore,0.0,1100.0,1.30316177186
128,1_6_2,6,2.0,610.821981041,1_I,training,01,1_B,129.0,01001,ignore,0.0,1000.0,1.59314145478
129,1_6_2,6,2.0,614.681548072,1_I,training,01,1_B,130.0,11110,ignore,0.0,900.0,1.73453218774
130,1_6_2,6,2.0,617.728570895,1_I,training,01,1_B,131.0,01011,kill,0.0,800.0,0.9455211482
131,1_6_2,6,2.0,620.369327976,1_I,training,01,1_B,132.0,00110,ignore,1.0,900.0,0.50349134461
132,1_6_2,6,2.0,623.119463553,1_I,training,01,1_B,133.0,00001,ignore,1.0,1000.0,0.610770394776
133,1_6_2,6,2.0,625.869602004,1_I,training,01,1_B,134.0,00000,ignore,1.0,1100.0,0.648736945688
134,1_6_2,6,2.0,629.275986388,1_I,training,01,1_B,135.0,10010,ignore,1.0,1200.0,1.28231099959
135,1_6_2,6,2.0,631.916745112,1_I,training,01,1_B,136.0,10011,ignore,1.0,1300.0,0.531806356714
136,1_6_2,6,2.0,634.416890234,1_I,training,01,1_B,137.0,10100,ignore,1.0,1400.0,0.364649176212
137,1_6_2,6,2.0,636.901386808,1_I,training,01,1_B,138.0,01010,ignore,0.0,1300.0,0.388150734785
138,1_6_2,6,2.0,640.823430619,1_I,training,01,1_B,139.0,10111,kill,0.0,1200.0,1.78544025755
139,1_6_2,6,2.0,644.058021307,1_I,training,01,1_B,140.0,00100,kill,0.0,1100.0,1.07296292389
140,1_6_2,6,2.0,646.698773052,1_I,training,01,1_B,141.0,01100,kill,1.0,1200.0,0.539698367859
141,1_6_2,6,2.0,649.46449026,1_I,training,01,1_B,142.0,10101,kill,0.0,1100.0,0.626363521043
142,1_6_2,6,2.0,652.589663863,1_I,training,01,1_B,143.0,11111,ignore,1.0,1200.0,1.03080446048
143,1_6_2,6,2.0,655.121012069,1_I,training,01,1_B,144.0,10001,ignore,1.0,1300.0,0.402223671847
144,1_6_2,6,2.0,657.543030222,1_I,training,01,1_B,145.0,01101,ignore,0.0,1200.0,0.312027147467
145,1_6_2,6,2.0,660.340025231,1_I,training,01,1_B,146.0,00010,ignore,1.0,1300.0,0.68813583258
146,1_6_2,6,2.0,662.88704169,1_I,training,01,1_B,147.0,11010,ignore,0.0,1200.0,0.444875180684
147,1_6_2,6,2.0,667.309140307,1_I,training,01,1_B,148.0,11101,ignore,0.0,1100.0,2.29661547506
148,1_6_2,6,2.0,669.902993209,1_I,training,01,1_B,149.0,01000,ignore,0.0,1000.0,0.467187025967
149,1_6_2,6,2.0,672.87191123,1_I,training,01,1_B,150.0,10110,ignore,1.0,1100.0,0.857760292888
150,1_6_2,6,2.0,675.653308187,1_I,training,01,1_B,151.0,01110,ignore,0.0,1000.0,0.676583954635
151,1_6_2,6,2.0,678.465921365,1_I,training,01,1_B,152.0,11000,ignore,0.0,900.0,0.71193091945
152,1_6_2,6,2.0,681.028555993,1_I,training,01,1_B,153.0,00011,kill,0.0,800.0,0.443333233438
153,1_6_2,6,2.0,683.434930524,1_I,training,01,1_B,154.0,11011,ignore,1.0,900.0,0.334008106307
154,1_6_2,6,2.0,687.481980442,1_I,training,01,1_B,155.0,10000,ignore,1.0,1000.0,1.91264105266
155,1_6_2,6,2.0,690.310239293,1_I,training,01,1_B,156.0,00111,ignore,1.0,1100.0,0.684698472544
156,1_6_2,6,2.0,692.763462993,1_I,training,01,1_B,157.0,01111,ignore,1.0,1200.0,0.330114648458
157,1_6_2,6,2.0,695.466789634,1_I,training,01,1_B,158.0,00101,ignore,1.0,1300.0,0.546533266608
158,1_6_2,6,2.0,697.888714186,1_I,training,01,1_B,159.0,11001,ignore,0.0,1200.0,0.302296787077
159,1_6_2,6,2.0,701.388920887,1_I,training,01,1_B,160.0,11100,ignore,0.0,1100.0,1.35562903114
160,1_6_2,6,2.0,704.482810121,1_I,training,01,1_B,161.0,01001,kill,1.0,1200.0,0.954527745814
161,1_6_2,6,2.0,706.967291916,1_I,training,01,1_B,162.0,11111,kill,0.0,1100.0,0.373842975088
162,1_6_2,6,2.0,709.545544302,1_I,training,01,1_B,163.0,01011,ignore,1.0,1200.0,0.457803562653
163,1_6_2,6,2.0,711.998823424,1_I,training,01,1_B,164.0,01010,ignore,0.0,1100.0,0.346792803097
164,1_6_2,6,2.0,714.530169988,1_I,training,01,1_B,165.0,10011,ignore,1.0,1200.0,0.407662361175
165,1_6_2,6,2.0,717.374091756,1_I,training,01,1_B,166.0,01101,ignore,0.0,1100.0,0.699346971383
166,1_6_2,6,2.0,721.233612397,1_I,training,01,1_B,167.0,01100,kill,1.0,1200.0,1.74990732306
167,1_6_2,6,2.0,724.249419409,1_I,training,01,1_B,168.0,10101,ignore,1.0,1300.0,0.885156130369
168,1_6_2,6,2.0,726.983981155,1_I,training,01,1_B,169.0,10001,ignore,1.0,1400.0,0.622500442345
169,1_6_2,6,2.0,729.671548815,1_I,training,01,1_B,170.0,00101,ignore,1.0,1500.0,0.533446009883
170,1_6_2,6,2.0,732.218535717,1_I,training,01,1_B,171.0,11101,ignore,0.0,1400.0,0.428870704275
171,1_6_2,6,2.0,735.796874724,1_I,training,01,1_B,172.0,11011,ignore,1.0,1500.0,1.49765279995
172,1_6_2,6,2.0,738.656332144,1_I,training,01,1_B,173.0,00011,ignore,1.0,1600.0,0.641315811404
173,1_6_2,6,2.0,741.453357122,1_I,training,01,1_B,174.0,11000,kill,1.0,1700.0,0.690390458319
174,1_6_2,6,2.0,745.562958946,1_I,training,01,1_B,175.0,11110,kill,1.0,1800.0,2.0125646532
175,1_6_2,6,2.0,748.6724606,1_I,training,01,1_B,176.0,11010,kill,1.0,1900.0,0.98115384126
176,1_6_2,6,2.0,751.719489992,1_I,training,01,1_B,177.0,01110,kill,1.0,2000.0,0.96069430321
177,1_6_2,6,2.0,754.73527853,1_I,training,01,1_B,178.0,00001,ignore,1.0,2100.0,0.89924261489
178,1_6_2,6,2.0,757.922949849,1_I,training,01,1_B,179.0,00010,kill,0.0,2000.0,1.05432161916
179,1_6_2,6,2.0,760.891802596,1_I,training,01,1_B,180.0,01111,ignore,1.0,2100.0,0.850730392823
180,1_6_2,6,2.0,763.938831577,1_I,training,01,1_B,181.0,10110,kill,0.0,2000.0,0.926698389618
181,1_6_2,6,2.0,766.423320351,1_I,training,01,1_B,182.0,10100,ignore,1.0,2100.0,0.361398606911
182,1_6_2,6,2.0,769.56413347,1_I,training,01,1_B,183.0,00110,ignore,1.0,2200.0,1.01499826962
183,1_6_2,6,2.0,772.423637279,1_I,training,01,1_B,184.0,10010,ignore,1.0,2300.0,0.725698833399
184,1_6_2,6,2.0,776.142563204,1_I,training,01,1_B,185.0,11001,ignore,0.0,2200.0,1.61777237886
185,1_6_2,6,2.0,779.674025537,1_I,training,01,1_B,186.0,00111,kill,0.0,2100.0,1.42750815824
186,1_6_2,6,2.0,782.75228675,1_I,training,01,1_B,187.0,00000,ignore,1.0,2200.0,0.9101277936
187,1_6_2,6,2.0,785.689898644,1_I,training,01,1_B,188.0,10111,ignore,1.0,2300.0,0.815685166886
188,1_6_2,6,2.0,788.986939017,1_I,training,01,1_B,189.0,00100,ignore,1.0,2400.0,1.12751772357
189,1_6_2,6,2.0,791.705867405,1_I,training,01,1_B,190.0,11100,ignore,0.0,2300.0,0.617637314795
190,1_6_2,6,2.0,799.006174357,1_I,training,01,1_B,191.0,10000,ignore,1.0,2400.0,5.15455557969
191,1_6_2,6,2.0,804.068929886,1_I,training,01,1_B,192.0,01000,ignore,0.0,2300.0,2.95041834966
192,1_6_2,6,2.0,807.334715858,1_I,training,01,1_B,193.0,11111,ignore,1.0,2400.0,1.13672794361
193,1_6_2,6,2.0,810.006742119,1_I,training,01,1_B,194.0,00101,ignore,1.0,2500.0,0.525150859176
194,1_6_2,6,2.0,813.303772639,1_I,training,01,1_B,195.0,10110,kill,0.0,2400.0,1.08401067211
195,1_6_2,6,2.0,816.241478956,1_I,training,01,1_B,196.0,01111,ignore,1.0,2500.0,0.675291198543
196,1_6_2,6,2.0,819.460336527,1_I,training,01,1_B,197.0,10100,ignore,1.0,2600.0,0.962675927109
197,1_6_2,6,2.0,822.007368997,1_I,training,01,1_B,198.0,10001,ignore,1.0,2700.0,0.422467682124
198,1_6_2,6,2.0,824.631532493,1_I,training,01,1_B,199.0,10111,ignore,1.0,2800.0,0.46908079664
199,1_6_2,6,2.0,827.116701514,1_I,training,01,1_B,200.0,00100,ignore,1.0,2900.0,0.341513809582
200,1_6_2,6,2.0,829.869422193,1_I,training,01,1_B,201.0,11011,ignore,1.0,3000.0,0.57549198832
201,1_6_2,6,2.0,832.765934379,1_I,training,01,1_B,202.0,11010,ignore,0.0,2900.0,0.779819703836
202,1_6_2,6,2.0,835.819288791,1_I,training,01,1_B,203.0,00001,ignore,1.0,3000.0,0.920322462387
203,1_6_2,6,2.0,838.338169229,1_I,training,01,1_B,204.0,10011,ignore,1.0,3100.0,0.395188845432
204,1_6_2,6,2.0,841.232140651,1_I,training,01,1_B,205.0,10000,ignore,1.0,3200.0,0.782804660819
205,1_6_2,6,2.0,928.477226515,1_I,test,01,2,0.0,00111,ignore,1.0,100.0,3.39829367691
206,1_6_2,6,2.0,932.493241665,1_I,test,01,2,1.0,00010,ignore,1.0,200.0,1.87313789138
207,1_6_2,6,2.0,936.399657455,1_I,test,01,2,2.0,11100,kill,0.0,100.0,1.77900028778
208,1_6_2,6,2.0,940.415492793,1_I,test,01,2,3.0,10010,kill,1.0,200.0,1.91904325375
209,1_6_2,6,2.0,944.900104726,1_I,test,01,2,4.0,01101,ignore,1.0,300.0,2.35915834969
210,1_6_2,6,2.0,948.822148537,1_I,test,01,2,5.0,00011,ignore,1.0,400.0,1.79451336087
211,1_6_2,6,2.0,952.541067893,1_I,test,01,2,6.0,01011,ignore,1.0,500.0,1.5953591329
212,1_6_2,6,2.0,959.572647432,1_I,test,01,2,7.0,01000,kill,0.0,400.0,4.91918817052
213,1_6_2,6,2.0,962.80722211,1_I,test,01,2,8.0,01100,ignore,1.0,500.0,1.0736222336
214,1_6_2,6,2.0,967.791803048,1_I,test,01,2,9.0,11110,kill,0.0,400.0,2.89382527307
215,1_6_2,6,2.0,970.963847577,1_I,test,01,2,10.0,11000,ignore,1.0,500.0,1.06895328631
216,1_6_2,6,2.0,976.589129765,1_I,test,01,2,11.0,10101,ignore,0.0,400.0,3.46988748629
217,1_6_2,6,2.0,979.620540987,1_I,test,01,2,12.0,00110,ignore,1.0,500.0,0.92658467306
218,1_6_2,6,2.0,984.44887045,1_I,test,01,2,13.0,11101,kill,1.0,600.0,2.66235994287
219,1_6_2,6,2.0,988.386557061,1_I,test,01,2,14.0,00000,ignore,1.0,700.0,1.8047297877
220,1_6_2,6,2.0,993.574309254,1_I,test,01,2,15.0,11001,ignore,0.0,600.0,3.09379686446
221,1_6_2,6,2.0,997.308893579,1_I,test,01,2,16.0,01001,ignore,1.0,700.0,1.60838768396
222,1_6_2,6,2.0,1008.01250225,1_I,test,01,2,17.0,01010,ignore,1.0,800.0,8.61309357887
223,1_6_2,6,2.0,1015.79415538,1_I,test,01,2,18.0,01110,kill,0.0,700.0,5.67621119423
224,1_6_2,6,2.0,1019.70061058,1_I,test,01,2,19.0,10111,ignore,0.0,600.0,1.76066523775
225,1_6_2,6,2.0,1024.66961235,1_I,test,01,2,20.0,01100,ignore,1.0,700.0,2.87771652228
226,1_6_2,6,2.0,1028.60727556,1_I,test,01,2,21.0,00110,kill,0.0,600.0,1.84528677714
227,1_6_2,6,2.0,1032.77934595,1_I,test,01,2,22.0,10101,ignore,0.0,500.0,2.04077415933
228,1_6_2,6,2.0,1036.12324863,1_I,test,01,2,23.0,11100,ignore,1.0,600.0,1.22215083578
229,1_6_2,6,2.0,1039.5609375,1_I,test,01,2,24.0,00101,ignore,1.0,700.0,1.28338289104
230,1_6_2,6,2.0,1042.84236956,1_I,test,01,2,25.0,01011,ignore,1.0,800.0,1.19571440477
231,1_6_2,6,2.0,1045.99878607,1_I,test,01,2,26.0,00100,ignore,1.0,900.0,1.03148347559
232,1_6_2,6,2.0,1049.8895726,1_I,test,01,2,27.0,00001,ignore,1.0,1000.0,1.75491413579
233,1_6_2,6,2.0,1052.92098506,1_I,test,01,2,28.0,01111,ignore,1.0,1100.0,0.924679818103
234,1_6_2,6,2.0,1055.68674578,1_I,test,01,2,29.0,11101,ignore,0.0,1000.0,0.641860583501
235,1_6_2,6,2.0,1060.15569521,1_I,test,01,2,30.0,11110,ignore,1.0,1100.0,2.36859518178
236,1_6_2,6,2.0,1062.73393405,1_I,test,01,2,31.0,00011,ignore,1.0,1200.0,0.429091979453
237,1_6_2,6,2.0,1065.71850267,1_I,test,01,2,32.0,01101,ignore,1.0,1300.0,0.857908904416
238,1_6_2,6,2.0,1068.73420828,1_I,test,01,2,33.0,01000,ignore,1.0,1400.0,0.904754378395
239,1_6_2,6,2.0,1071.96875463,1_I,test,01,2,34.0,10100,kill,1.0,1500.0,1.10384415331
240,1_6_2,6,2.0,1074.90642893,1_I,test,01,2,35.0,11010,ignore,1.0,1600.0,0.845130365564
241,1_6_2,6,2.0,1077.75033756,1_I,test,01,2,36.0,11001,ignore,0.0,1500.0,0.67120684467
242,1_6_2,6,2.0,1081.43799307,1_I,test,01,2,37.0,00000,kill,0.0,1400.0,1.54534724808
243,1_6_2,6,2.0,1083.89122539,1_I,test,01,2,38.0,11000,ignore,1.0,1500.0,0.335908855976
244,1_6_2,6,2.0,1088.07892175,1_I,test,01,2,39.0,01110,ignore,1.0,1600.0,2.05870360662
245,1_6_2,6,2.0,1091.36035956,1_I,test,01,2,40.0,01001,ignore,1.0,1700.0,1.18266204301
246,1_6_2,6,2.0,1095.15740219,1_I,test,01,2,41.0,00010,ignore,1.0,1800.0,1.63073072946
247,1_6_2,6,2.0,1098.53257856,1_I,test,01,2,42.0,01010,ignore,1.0,1900.0,1.26053571582
248,1_6_2,6,2.0,1102.03272204,1_I,test,01,2,43.0,00111,ignore,1.0,2000.0,1.41416062607
249,1_6_2,6,2.0,1104.61100522,1_I,test,01,2,44.0,11111,ignore,0.0,1900.0,0.51374348747
250,1_6_2,6,2.0,1107.43930266,1_I,test,01,2,45.0,10010,ignore,0.0,1800.0,0.699259118159
251,1_6_2,6,2.0,1110.92382551,1_I,test,01,2,46.0,10011,kill,1.0,1900.0,1.35475090943
252,1_6_2,6,2.0,1114.00208344,1_I,test,01,2,47.0,10001,kill,1.0,2000.0,0.948814412526
253,1_6_2,6,2.0,1117.12726196,1_I,test,01,2,48.0,10110,kill,1.0,2100.0,1.047480973
254,1_6_2,6,2.0,1120.75241114,1_I,test,01,2,49.0,10000,ignore,0.0,2000.0,1.46678265482
255,1_6_2,6,2.0,1124.62761481,1_I,test,01,2,50.0,11011,ignore,0.0,1900.0,1.76293176884
256,1_6_2,6,2.0,1128.53407658,1_I,test,01,2,51.0,11110,ignore,1.0,2000.0,1.84335318515
257,1_6_2,6,2.0,1133.08112547,1_I,test,01,2,52.0,11100,ignore,1.0,2100.0,2.43721142371
258,1_6_2,6,2.0,1136.12818771,1_I,test,01,2,53.0,10001,ignore,0.0,2000.0,0.955807775503
259,1_6_2,6,2.0,1139.89394186,1_I,test,01,2,54.0,10000,ignore,0.0,1900.0,1.62793584744
260,1_6_2,6,2.0,1146.67559622,1_I,test,01,2,55.0,10101,ignore,0.0,1800.0,4.6340962469
261,1_6_2,6,2.0,1155.7228904,1_I,test,01,2,56.0,01111,ignore,1.0,1900.0,6.96203385962
262,1_6_2,6,2.0,1162.27004439,1_I,test,01,2,57.0,00011,ignore,1.0,2000.0,4.43038021972
263,1_6_2,6,2.0,1168.42982683,1_I,test,01,2,58.0,11001,ignore,0.0,1900.0,4.08835078561
264,1_6_2,6,2.0,1174.16447068,1_I,test,01,2,59.0,00111,ignore,1.0,2000.0,3.64698480755
265,1_6_2,6,2.0,1178.61781507,1_I,test,01,2,60.0,10110,kill,1.0,2100.0,2.27184538161
266,1_6_2,6,2.0,1182.33673566,1_I,test,01,2,61.0,01100,ignore,1.0,2200.0,1.6205972295
267,1_6_2,6,2.0,1186.22755381,1_I,test,01,2,62.0,10111,kill,1.0,2300.0,1.75605253294
268,1_6_2,6,2.0,1189.49334922,1_I,test,01,2,63.0,01010,ignore,1.0,2400.0,1.15110918801
269,1_6_2,6,2.0,1192.6184711,1_I,test,01,2,64.0,01101,ignore,1.0,2500.0,1.00443125095
270,1_6_2,6,2.0,1195.94675561,1_I,test,01,2,65.0,11101,ignore,0.0,2400.0,1.21178497636
271,1_6_2,6,2.0,1199.16569323,1_I,test,01,2,66.0,00000,ignore,1.0,2500.0,1.1125301277
272,1_6_2,6,2.0,1206.0097788,1_I,test,01,2,67.0,11010,ignore,1.0,2600.0,4.73936000979
273,1_6_2,6,2.0,1210.93187434,1_I,test,01,2,68.0,10100,ignore,0.0,2500.0,2.78047531878
274,1_6_2,6,2.0,1214.05701797,1_I,test,01,2,69.0,10010,ignore,0.0,2400.0,1.0115017934
275,1_6_2,6,2.0,1217.97913322,1_I,test,01,2,70.0,01000,ignore,1.0,2500.0,1.78013663229
276,1_6_2,6,2.0,1220.77613479,1_I,test,01,2,71.0,11000,ignore,1.0,2600.0,0.706332534306
277,1_6_2,6,2.0,1224.02625662,1_I,test,01,2,72.0,00010,kill,0.0,2500.0,1.09468853364
278,1_6_2,6,2.0,1228.52647071,1_I,test,01,2,73.0,00110,ignore,1.0,2600.0,2.37046678389
279,1_6_2,6,2.0,1232.93293925,1_I,test,01,2,74.0,00001,ignore,1.0,2700.0,2.28556772683
280,1_6_2,6,2.0,1235.82370649,1_I,test,01,2,75.0,00100,ignore,1.0,2800.0,0.761514622431
281,1_6_2,6,2.0,1239.27700737,1_I,test,01,2,76.0,10011,kill,1.0,2900.0,1.35335675265
282,1_6_2,6,2.0,1242.52715711,1_I,test,01,2,77.0,01001,ignore,1.0,3000.0,1.0938087698
283,1_6_2,6,2.0,1246.12110321,1_I,test,01,2,78.0,00101,ignore,1.0,3100.0,1.45463427811
284,1_6_2,6,2.0,1249.59001076,1_I,test,01,2,79.0,11111,kill,1.0,3200.0,1.36948972466
285,1_6_2,6,2.0,1253.27766176,1_I,test,01,2,80.0,01011,ignore,1.0,3300.0,1.57918182374
286,1_6_2,6,2.0,1256.44972394,1_I,test,01,2,81.0,01110,ignore,1.0,3400.0,1.08747594813
287,1_6_2,6,2.0,1260.16865643,1_I,test,01,2,82.0,11011,kill,1.0,3500.0,1.58257566769
288,1_6_2,6,2.0,1263.4187918,1_I,test,01,3,0.0,11011,kill,1.0,3600.0,1.14342162035
289,1_6_2,6,2.0,1266.98152537,1_I,test,01,3,1.0,01010,ignore,0.0,3500.0,1.47660127896
290,1_6_2,6,2.0,1272.04427105,1_I,test,01,3,2.0,10011,kill,1.0,3600.0,2.94737879231
291,1_6_2,6,2.0,1276.40380708,1_I,test,01,3,3.0,01011,kill,1.0,3700.0,2.22383154185
292,1_6_2,6,2.0,1279.93529856,1_I,test,01,3,4.0,01100,ignore,1.0,3800.0,1.41651459985
293,1_6_2,6,2.0,1283.40420324,1_I,test,01,3,5.0,11111,kill,0.0,3700.0,1.36281657437
294,1_6_2,6,2.0,1287.56063576,1_I,test,01,3,6.0,10101,kill,0.0,3600.0,2.04672970478
295,1_6_2,6,2.0,1290.87329759,1_I,test,01,3,7.0,00001,ignore,0.0,3500.0,1.14584497354
296,1_6_2,6,2.0,1296.35789351,1_I,test,01,3,8.0,01101,kill,0.0,3400.0,3.34722550075
297,1_6_2,6,2.0,1299.90501424,1_I,test,01,3,9.0,10110,kill,0.0,3300.0,1.42553843969
298,1_6_2,6,2.0,1306.42093395,1_I,test,01,3,10.0,11001,ignore,1.0,3400.0,4.38886546592
299,1_6_2,6,2.0,1310.45235256,1_I,test,01,3,11.0,00100,ignore,1.0,3500.0,1.92494994624
300,1_6_2,6,2.0,1314.01506108,1_I,test,01,3,12.0,10111,kill,0.0,3400.0,1.40973635412
301,1_6_2,6,2.0,1320.65598771,1_I,test,01,3,13.0,11010,ignore,0.0,3300.0,4.51957792684
302,1_6_2,6,2.0,1323.78116747,1_I,test,01,3,14.0,01000,ignore,0.0,3200.0,1.02098829951
303,1_6_2,6,2.0,1327.25009268,1_I,test,01,3,15.0,11110,ignore,1.0,3300.0,1.3779589397
304,1_6_2,6,2.0,1331.969042,1_I,test,01,3,16.0,00011,kill,1.0,3400.0,2.61540239445
305,1_6_2,6,2.0,1335.21920077,1_I,test,01,3,17.0,00110,kill,0.0,3300.0,1.11861498981
306,1_6_2,6,2.0,1338.90691089,1_I,test,01,3,18.0,11101,ignore,1.0,3400.0,1.53010964
307,1_6_2,6,2.0,1342.23519786,1_I,test,01,3,19.0,11000,ignore,1.0,3500.0,1.22845492042
308,1_6_2,6,2.0,1347.71980774,1_I,test,01,3,20.0,10001,ignore,1.0,3600.0,3.35722106293
309,1_6_2,6,2.0,1351.1731275,1_I,test,01,3,21.0,10100,ignore,1.0,3700.0,1.28798697473
310,1_6_2,6,2.0,1356.64213441,1_I,test,01,3,22.0,00010,kill,1.0,3800.0,3.34828918161
311,1_6_2,6,2.0,1359.45476236,1_I,test,01,3,23.0,01110,kill,0.0,3700.0,0.655735235014
312,1_6_2,6,2.0,1363.42373868,1_I,test,01,3,24.0,01001,ignore,0.0,3600.0,1.88569474453
313,1_6_2,6,2.0,1366.98644638,1_I,test,01,3,25.0,10000,ignore,1.0,3700.0,1.41545789798
314,1_6_2,6,2.0,1370.04902333,1_I,test,01,3,26.0,00000,kill,1.0,3800.0,0.925016862482
315,1_6_2,6,2.0,1373.04916496,1_I,test,01,3,27.0,11100,ignore,1.0,3900.0,0.905512625617
316,1_6_2,6,2.0,1376.06494406,1_I,test,01,3,28.0,00101,kill,0.0,3800.0,0.881251588235
317,1_6_2,6,2.0,1379.72137186,1_I,test,01,3,29.0,10010,ignore,0.0,3700.0,1.5709835579
318,1_6_2,6,2.0,1387.79994671,1_I,test,01,3,30.0,00111,kill,0.0,3600.0,5.90751190227
319,1_6_2,6,2.0,1391.45632361,1_I,test,01,3,31.0,01111,ignore,1.0,3700.0,1.4896322932
320,1_6_2,6,2.0,1396.9097226,1_I,test,01,3,32.0,00010,ignore,0.0,3600.0,3.38899067729
321,1_6_2,6,2.0,1400.7380028,1_I,test,01,3,33.0,00100,ignore,1.0,3700.0,1.68471653582
322,1_6_2,6,2.0,1403.92568233,1_I,test,01,3,34.0,01101,ignore,1.0,3800.0,1.05204030903
323,1_6_2,6,2.0,1411.3037866,1_I,test,01,3,35.0,10000,ignore,1.0,3900.0,5.23305571988
324,1_6_2,6,2.0,1414.91661744,1_I,test,01,3,36.0,00111,kill,0.0,3800.0,1.44246085913
325,1_6_2,6,2.0,1418.19806797,1_I,test,01,3,37.0,11111,ignore,1.0,3900.0,1.19826871674
326,1_6_2,6,2.0,1422.69825784,1_I,test,01,3,38.0,00101,ignore,1.0,4000.0,2.36036571573
327,1_6_2,6,2.0,1426.18596762,1_I,test,01,3,39.0,00011,kill,1.0,4100.0,1.4052151973
328,1_6_2,6,2.0,1429.49863109,1_I,test,01,3,40.0,00110,kill,0.0,4000.0,1.15933619089
329,1_6_2,6,2.0,1433.23319119,1_I,test,01,3,41.0,10011,ignore,0.0,3900.0,1.57523828134
330,1_6_2,6,2.0,1436.18647093,1_I,test,01,3,42.0,11010,ignore,0.0,3800.0,0.872243759033
331,1_6_2,6,2.0,1439.57726958,1_I,test,01,3,43.0,01110,kill,0.0,3700.0,1.26914451075
332,1_6_2,6,2.0,1444.07748942,1_I,test,01,3,44.0,01001,ignore,0.0,3600.0,2.36823473725
333,1_6_2,6,2.0,1447.59328021,1_I,test,01,3,45.0,01010,kill,1.0,3700.0,1.3955751533
334,1_6_2,6,2.0,1451.15595836,1_I,test,01,3,46.0,10010,ignore,0.0,3600.0,1.4449671392
335,1_6_2,6,2.0,1454.6248458,1_I,test,01,3,47.0,11001,ignore,1.0,3700.0,1.40389534628
336,1_6_2,6,2.0,1457.57816576,1_I,test,01,3,48.0,00000,ignore,0.0,3600.0,0.783057957266
337,1_6_2,6,2.0,1461.32831243,1_I,test,01,3,49.0,11110,ignore,1.0,3700.0,1.62230420944
338,1_6_2,6,2.0,1464.32847376,1_I,test,01,3,50.0,01111,ignore,1.0,3800.0,0.901750537074
339,1_6_2,6,2.0,1467.4848603,1_I,test,01,3,51.0,10101,kill,0.0,3700.0,1.00753033502
340,1_6_2,6,2.0,1471.09443647,1_I,test,01,3,52.0,00001,kill,1.0,3800.0,1.51216541366
341,1_6_2,6,2.0,1476.29780888,1_I,test,01,3,53.0,10111,ignore,1.0,3900.0,3.04656508261
342,1_6_2,6,2.0,1479.48546173,1_I,test,01,3,54.0,11011,ignore,0.0,3800.0,0.995714897403
343,1_6_2,6,2.0,1484.00131821,1_I,test,01,3,55.0,01100,kill,0.0,3700.0,2.41821090603
344,1_6_2,6,2.0,1487.56397172,1_I,test,01,3,56.0,11100,ignore,1.0,3800.0,1.41903771161
345,1_6_2,6,2.0,1496.12689906,1_I,test,01,3,57.0,11000,ignore,1.0,3900.0,6.46362691774
346,1_6_2,6,2.0,1499.14264203,1_I,test,01,3,58.0,10100,ignore,1.0,4000.0,0.855411245459
347,1_6_2,6,2.0,1504.40854746,1_I,test,01,3,59.0,10110,kill,0.0,3900.0,3.125639553
348,1_6_2,6,2.0,1508.42439142,1_I,test,01,3,60.0,10001,ignore,1.0,4000.0,1.92527056946
349,1_6_2,6,2.0,1512.12769671,1_I,test,01,3,61.0,11101,ignore,1.0,4100.0,1.59801197185
350,1_6_2,6,2.0,1515.51847484,1_I,test,01,3,62.0,01000,kill,1.0,4200.0,1.26364998947
351,1_6_2,6,2.0,1519.89367707,1_I,test,01,3,63.0,01011,ignore,0.0,4100.0,2.22787976917
352,1_6_2,6,2.0,1523.40946376,1_I,test,01,3,64.0,11101,ignore,1.0,4200.0,1.3701211184
353,1_6_2,6,2.0,1526.37840724,1_I,test,01,3,65.0,01100,kill,0.0,4100.0,0.881390347065
354,1_6_2,6,2.0,1529.95668959,1_I,test,01,3,66.0,10010,ignore,0.0,4000.0,1.42912317966
355,1_6_2,6,2.0,1535.53507499,1_I,test,01,3,67.0,10011,ignore,0.0,3900.0,3.45627885763
356,1_6_2,6,2.0,1542.00414675,1_I,test,01,3,68.0,00110,ignore,1.0,4000.0,4.38074561114
357,1_6_2,6,2.0,1545.4417958,1_I,test,01,3,69.0,11010,ignore,0.0,3900.0,1.32131249433
358,1_6_2,6,2.0,1549.80141682,1_I,test,01,3,70.0,10000,ignore,1.0,4000.0,2.27123656698
359,1_6_2,6,2.0,1553.70787366,1_I,test,01,3,71.0,11011,ignore,0.0,3900.0,1.73976027565
360,1_6_2,6,2.0,1558.91127194,1_I,test,01,3,72.0,10111,ignore,1.0,4000.0,3.03946210837
361,1_6_2,6,2.0,1562.13013977,1_I,test,01,3,73.0,01111,ignore,1.0,4100.0,1.10427520885
362,1_6_2,6,2.0,1565.14592092,1_I,test,01,3,74.0,10100,ignore,1.0,4200.0,0.829268753278
363,1_6_2,6,2.0,1569.30235221,1_I,test,01,3,75.0,00001,kill,1.0,4300.0,2.07966275857
364,1_6_2,6,2.0,1572.77129343,1_I,test,01,3,76.0,01000,kill,1.0,4400.0,1.38555003303
365,1_6_2,6,2.0,1576.16206662,1_I,test,01,3,77.0,01001,kill,1.0,4500.0,1.24900313275
366,1_6_2,6,2.0,1581.39670616,1_I,test,01,3,78.0,10110,ignore,1.0,4600.0,3.1238385619
367,1_6_2,6,2.0,1584.94374972,1_I,test,01,3,79.0,10001,kill,0.0,4500.0,1.38875380201
368,1_6_2,6,2.0,1588.44391208,1_I,test,01,3,80.0,11110,ignore,1.0,4600.0,1.4269161753
369,1_6_2,6,2.0,1591.6940922,1_I,test,01,3,81.0,11111,ignore,1.0,4700.0,1.11958424899
370,1_6_2,6,2.0,1595.11611487,1_I,test,01,3,82.0,01110,ignore,1.0,4800.0,1.29176384232
371,1_6_2,6,2.0,1598.71004002,1_I,test,01,3,83.0,00010,kill,1.0,4900.0,1.50742749748
372,1_6_2,6,2.0,1601.92895343,1_I,test,01,3,84.0,00100,ignore,1.0,5000.0,1.09124788937
373,1_6_2,6,2.0,1605.25724122,1_I,test,01,3,85.0,10101,ignore,1.0,5100.0,1.16424693981
374,1_6_2,6,2.0,1608.6323905,1_I,test,01,3,86.0,00000,kill,1.0,5200.0,1.21412745532
375,1_6_2,6,2.0,1612.2107213,1_I,test,01,3,87.0,00011,kill,1.0,5300.0,1.42654259383
376,1_6_2,6,2.0,1615.99214822,1_I,test,01,3,88.0,11001,kill,0.0,5200.0,1.68609345038
377,1_6_2,6,2.0,1619.69545105,1_I,test,01,3,89.0,01011,kill,1.0,5300.0,1.52567592588
378,1_6_2,6,2.0,1623.27384507,1_I,test,01,3,90.0,11000,kill,0.0,5200.0,1.44171862254
379,1_6_2,6,2.0,1627.10204152,1_I,test,01,3,91.0,00101,ignore,1.0,5300.0,1.69967949994
380,1_6_2,6,2.0,1630.14909062,1_I,test,01,3,92.0,01101,ignore,1.0,5400.0,0.912156628341
381,1_6_2,6,2.0,1632.82112345,1_I,test,01,3,93.0,00111,ignore,1.0,5500.0,0.531735335182
382,1_6_2,6,2.0,1636.2900351,1_I,test,01,3,94.0,01010,kill,1.0,5600.0,1.31156119696
383,1_6_2,6,2.0,1639.41512373,1_I,test,01,3,95.0,11100,ignore,1.0,5700.0,0.966926545263
384,1_6_2,6,2.0,1643.57162275,1_I,test,01,3,96.0,11010,kill,1.0,5800.0,2.04246964445
385,1_6_2,6,2.0,1646.71237922,1_I,test,01,3,97.0,00000,kill,1.0,5900.0,0.989973237609
386,1_6_2,6,2.0,1649.44689457,1_I,test,01,3,98.0,01000,kill,1.0,6000.0,0.647877297783
387,1_6_2,6,2.0,1653.65023989,1_I,test,01,3,99.0,10001,ignore,1.0,6100.0,2.04666812541
388,1_6_2,6,2.0,1656.99410932,1_I,test,01,3,100.0,01101,ignore,1.0,6200.0,1.2024770504
389,1_6_2,6,2.0,1660.13494789,1_I,test,01,4,0.0,00111,ignore,0.0,6100.0,1.03556085047
390,1_6_2,6,2.0,1663.74444975,1_I,test,01,4,1.0,01010,kill,0.0,6000.0,1.50686794634
391,1_6_2,6,2.0,1666.71337434,1_I,test,01,4,2.0,11101,ignore,1.0,6100.0,0.823761916119
392,1_6_2,6,2.0,1672.90119099,1_I,test,01,4,3.0,10000,kill,0.0,6000.0,4.02937746138
393,1_6_2,6,2.0,1676.26071224,1_I,test,01,4,4.0,10100,ignore,0.0,5900.0,1.20753107397
394,1_6_2,6,2.0,1681.40162102,1_I,test,01,4,5.0,01011,kill,0.0,5800.0,3.06029440683
395,1_6_2,6,2.0,1684.58924594,1_I,test,01,4,6.0,00011,kill,1.0,5900.0,1.02876084669
396,1_6_2,6,2.0,1688.40193589,1_I,test,01,4,7.0,11111,ignore,1.0,6000.0,1.69083382973
397,1_6_2,6,2.0,1691.80836831,1_I,test,01,4,8.0,01110,ignore,1.0,6100.0,1.28000423666
398,1_6_2,6,2.0,1696.21479539,1_I,test,01,4,9.0,00010,kill,0.0,6000.0,2.25327591947
399,1_6_2,6,2.0,1700.48063309,1_I,test,01,4,10.0,10010,kill,0.0,5900.0,2.16839205199
400,1_6_2,6,2.0,1704.43396003,1_I,test,01,4,11.0,00001,kill,1.0,6000.0,1.78642593789
401,1_6_2,6,2.0,1707.71540605,1_I,test,01,4,12.0,10111,ignore,0.0,5900.0,1.13641512044
402,1_6_2,6,2.0,1711.19994491,1_I,test,01,4,13.0,11011,ignore,1.0,6000.0,1.38392023256
403,1_6_2,6,2.0,1714.74696547,1_I,test,01,4,14.0,00100,ignore,0.0,5900.0,1.39090538495
404,1_6_2,6,2.0,1718.37216227,1_I,test,01,4,15.0,10110,ignore,0.0,5800.0,1.52231122949
405,1_6_2,6,2.0,1721.91918899,1_I,test,01,4,16.0,01100,ignore,1.0,5900.0,1.38844918943
406,1_6_2,6,2.0,1725.24746775,1_I,test,01,4,17.0,01001,kill,0.0,5800.0,1.17880471172
407,1_6_2,6,2.0,1728.63828077,1_I,test,01,4,18.0,00101,ignore,0.0,5700.0,1.23262096958
408,1_6_2,6,2.0,1731.88841491,1_I,test,01,4,19.0,10101,ignore,0.0,5600.0,1.08059383853
409,1_6_2,6,2.0,1735.92123137,1_I,test,01,4,20.0,10011,ignore,0.0,5500.0,1.93874659723
410,1_6_2,6,2.0,1739.72229924,1_I,test,01,4,21.0,11110,ignore,1.0,5600.0,1.68380146649
411,1_6_2,6,2.0,1743.45685729,1_I,test,01,4,22.0,01111,ignore,1.0,5700.0,1.58805089411
412,1_6_2,6,2.0,1748.29159676,1_I,test,01,4,23.0,11100,ignore,1.0,5800.0,2.73609671408
413,1_6_2,6,2.0,1752.87939641,1_I,test,01,4,24.0,00110,ignore,0.0,5700.0,2.47385032356
414,1_6_2,6,2.0,1756.80147388,1_I,test,01,4,25.0,11000,kill,0.0,5600.0,1.7668367215
415,1_6_2,6,2.0,1761.30167237,1_I,test,01,4,26.0,11001,ignore,1.0,5700.0,2.35250408374
416,1_6_2,6,2.0,1765.23934585,1_I,test,01,4,27.0,01011,kill,0.0,5600.0,1.76684739525
417,1_6_2,6,2.0,1769.69274895,1_I,test,01,4,28.0,01100,ignore,1.0,5700.0,2.35325124668
418,1_6_2,6,2.0,1773.72417536,1_I,test,01,4,29.0,00110,ignore,0.0,5600.0,1.85989299149
419,1_6_2,6,2.0,1778.06816138,1_I,test,01,4,30.0,11111,ignore,1.0,5700.0,2.21113223511
420,1_6_2,6,2.0,1783.08400246,1_I,test,01,4,31.0,01101,ignore,1.0,5800.0,2.88791611741
421,1_6_2,6,2.0,1786.42785218,1_I,test,01,4,32.0,00100,ignore,0.0,5700.0,1.0781417483
422,1_6_2,6,2.0,1792.41257722,1_I,test,01,4,33.0,11001,kill,0.0,5600.0,3.82261325574
423,1_6_2,6,2.0,1808.61650179,1_I,test,01,4,34.0,11011,kill,0.0,5500.0,14.0323661131
424,1_6_2,6,2.0,1811.71037912,1_I,test,01,4,35.0,10110,ignore,0.0,5400.0,0.924721281541
425,1_6_2,6,2.0,1815.28867379,1_I,test,01,4,36.0,00011,ignore,0.0,5300.0,1.43390379087
426,1_6_2,6,2.0,1818.16381629,1_I,test,01,4,37.0,11000,ignore,1.0,5400.0,0.725578137848
427,1_6_2,6,2.0,1821.35148228,1_I,test,01,4,38.0,10010,ignore,1.0,5500.0,1.07039916974
428,1_6_2,6,2.0,1824.21102057,1_I,test,01,4,39.0,01110,ignore,1.0,5600.0,0.744307706329
429,1_6_2,6,2.0,1827.28927932,1_I,test,01,4,40.0,01001,ignore,1.0,5700.0,0.897703541346
430,1_6_2,6,2.0,1830.63320047,1_I,test,01,4,41.0,00001,ignore,0.0,5600.0,1.20829958442
431,1_6_2,6,2.0,1834.02400281,1_I,test,01,4,42.0,10100,ignore,0.0,5500.0,1.27052060425
432,1_6_2,6,2.0,1837.80539115,1_I,test,01,4,43.0,10011,ignore,0.0,5400.0,1.63379861331
433,1_6_2,6,2.0,1842.30563644,1_I,test,01,4,44.0,11100,ignore,1.0,5500.0,2.35443685467
434,1_6_2,6,2.0,1846.04017602,1_I,test,01,4,45.0,00000,ignore,1.0,5600.0,1.56404356371
435,1_6_2,6,2.0,1849.35289285,1_I,test,01,4,46.0,10001,ignore,0.0,5500.0,1.20255628251
436,1_6_2,6,2.0,1854.27493174,1_I,test,01,4,47.0,11101,kill,0.0,5400.0,2.7258018762
437,1_6_2,6,2.0,1859.30648213,1_I,test,01,4,48.0,01111,ignore,1.0,5500.0,2.87793451322
438,1_6_2,6,2.0,1862.93165019,1_I,test,01,4,49.0,10101,ignore,0.0,5400.0,1.48349611496
439,1_6_2,6,2.0,1866.10364382,1_I,test,01,4,50.0,11110,ignore,1.0,5500.0,1.01332495307
440,1_6_2,6,2.0,1869.01003046,1_I,test,01,4,51.0,00111,ignore,0.0,5400.0,0.760588879341
441,1_6_2,6,2.0,1873.96341406,1_I,test,01,4,52.0,10000,kill,0.0,5300.0,2.76007366534
442,1_6_2,6,2.0,1880.24499842,1_I,test,01,4,53.0,10111,ignore,0.0,5200.0,4.1090508937
443,1_6_2,6,2.0,1884.05768344,1_I,test,01,4,54.0,00101,ignore,0.0,5100.0,1.66846163667
444,1_6_2,6,2.0,1887.43282903,1_I,test,01,4,55.0,11010,ignore,1.0,5200.0,1.21408845506
445,1_6_2,6,2.0,1891.21429126,1_I,test,01,4,56.0,01000,ignore,1.0,5300.0,1.65583170935
446,1_6_2,6,2.0,1898.37089743,1_I,test,01,4,57.0,00010,ignore,1.0,5400.0,4.99671864102
447,1_6_2,6,2.0,1901.37099103,1_I,test,01,4,58.0,01010,ignore,1.0,5500.0,0.84894869659
448,1_6_2,6,2.0,1904.21490992,1_I,test,01,4,59.0,10010,ignore,1.0,5600.0,0.72511054522
449,1_6_2,6,2.0,1907.18381111,1_I,test,01,4,60.0,01101,ignore,1.0,5700.0,0.78491929614
450,1_6_2,6,2.0,1909.80892539,1_I,test,01,4,61.0,01111,ignore,1.0,5800.0,0.511329165915
451,1_6_2,6,2.0,1912.40283536,1_I,test,01,4,62.0,11011,ignore,1.0,5900.0,0.434481405291
452,1_6_2,6,2.0,1915.34045136,1_I,test,01,4,63.0,10111,ignore,0.0,5800.0,0.768163962033
453,1_6_2,6,2.0,1918.49685761,1_I,test,01,4,64.0,11000,ignore,1.0,5900.0,1.0334737206
454,1_6_2,6,2.0,1921.51261576,1_I,test,01,4,65.0,00000,ignore,1.0,6000.0,0.863405888875
455,1_6_2,6,2.0,1924.54404669,1_I,test,01,4,66.0,01110,kill,0.0,5900.0,0.87746363636
456,1_6_2,6,2.0,1927.99732828,1_I,test,01,4,67.0,10000,ignore,1.0,6000.0,1.28021565914
457,1_6_2,6,2.0,1930.79435325,1_I,test,01,4,68.0,00100,ignore,0.0,5900.0,0.600103617542
458,1_6_2,6,2.0,1934.27888103,1_I,test,01,4,69.0,01010,ignore,1.0,6000.0,1.37851684873
459,1_6_2,6,2.0,1937.46653346,1_I,test,01,4,70.0,00010,ignore,1.0,6100.0,0.980717859369
460,1_6_2,6,2.0,1940.91980437,1_I,test,01,4,71.0,10101,ignore,0.0,6000.0,1.26424771982
461,1_6_2,6,2.0,1943.60747959,1_I,test,01,4,72.0,11010,ignore,1.0,6100.0,0.480298914439
462,1_6_2,6,2.0,1946.99825279,1_I,test,01,4,73.0,01001,kill,0.0,6000.0,1.17544329957
463,1_6_2,6,2.0,1949.79524492,1_I,test,01,4,74.0,11100,ignore,1.0,6100.0,0.710526088918
464,1_6_2,6,2.0,1954.82674852,1_I,test,01,4,75.0,00101,kill,1.0,6200.0,2.85953008378
465,1_6_2,6,2.0,1958.07688717,1_I,test,01,4,76.0,00110,ignore,0.0,6100.0,1.07644995794
466,1_6_2,6,2.0,1962.82715248,1_I,test,01,4,77.0,11001,ignore,1.0,6200.0,2.6431237815
467,1_6_2,6,2.0,1966.6867232,1_I,test,01,4,78.0,11101,ignore,1.0,6300.0,1.67784468946
468,1_6_2,6,2.0,1970.74939786,1_I,test,01,4,79.0,00111,kill,1.0,6400.0,1.95317423142
469,1_6_2,6,2.0,1974.74963432,1_I,test,01,4,80.0,00011,ignore,0.0,6300.0,1.87254344527
470,1_6_2,6,2.0,1977.81223262,1_I,test,01,4,81.0,10001,ignore,0.0,6200.0,0.877875807562
471,1_6_2,6,2.0,1981.12488623,1_I,test,01,4,82.0,11110,ignore,1.0,6300.0,1.22668143477
472,1_6_2,6,2.0,1983.9219186,1_I,test,01,4,83.0,10100,ignore,0.0,6200.0,0.582023506075
473,1_6_2,6,2.0,1987.12520029,1_I,test,01,4,84.0,01100,ignore,1.0,6300.0,1.02743073245
474,1_6_2,6,2.0,1989.85981786,1_I,test,01,4,85.0,01000,ignore,1.0,6400.0,0.583873760665
475,1_6_2,6,2.0,1992.68796793,1_I,test,01,4,86.0,11111,ignore,1.0,6500.0,0.614938496585
476,1_6_2,6,2.0,1996.9069191,1_I,test,01,4,87.0,01011,ignore,1.0,6600.0,2.11750574022
477,1_6_2,6,2.0,1999.5320966,1_I,test,01,4,88.0,10011,ignore,0.0,6500.0,0.432177516062
478,1_6_2,6,2.0,2002.51052453,1_I,test,01,4,89.0,00001,ignore,0.0,6400.0,0.735847522928
479,1_6_2,6,2.0,2005.30754089,1_I,test,01,4,90.0,10110,ignore,0.0,6300.0,0.690566575297
480,1_6_2,6,2.0,2008.02645326,1_I,test,01,4,91.0,11111,ignore,1.0,6400.0,0.593326603394
481,1_6_2,6,2.0,2010.69844422,1_I,test,01,4,92.0,00110,ignore,0.0,6300.0,0.57687054499
482,1_6_2,6,2.0,2013.99543656,1_I,test,01,4,93.0,01111,ignore,1.0,6400.0,1.11302522578
483,1_6_2,6,2.0,2016.96436402,1_I,test,01,4,94.0,01100,ignore,1.0,6500.0,0.791556319869
484,1_6_2,6,2.0,2020.02709122,1_I,test,01,4,95.0,00010,kill,0.0,6400.0,0.921111499289
485,1_6_2,6,2.0,2022.51147203,1_I,test,01,4,96.0,01011,ignore,1.0,6500.0,0.331294509049
486,1_6_2,6,2.0,2026.08980857,1_I,test,01,4,97.0,11101,ignore,1.0,6600.0,1.46192732732
487,1_6_2,6,2.0,2029.23058598,1_I,test,01,4,98.0,10010,ignore,1.0,6700.0,1.00629710565
488,1_6_2,6,2.0,2031.90258186,1_I,test,01,4,99.0,01000,ignore,1.0,6800.0,0.496335822645
489,1_6_2,6,2.0,2034.71519463,1_I,test,01,4,100.0,10100,ignore,0.0,6700.0,0.632313729611
490,1_6_2,6,2.0,2037.55913158,1_I,test,01,4,101.0,11100,ignore,1.0,6800.0,0.686102892547
491,1_6_2,6,2.0,2040.93428291,1_I,test,01,4,102.0,10111,ignore,0.0,6700.0,1.26311301743
492,1_6_2,6,2.0,2043.93444795,1_I,test,01,4,103.0,11001,ignore,1.0,6800.0,0.836766656499
493,1_6_2,6,2.0,2046.66894811,1_I,test,01,4,104.0,11110,ignore,1.0,6900.0,0.58174311471
494,1_6_2,6,2.0,2052.21606228,1_I,test,01,4,105.0,00101,ignore,0.0,6800.0,3.43710632827
495,1_6_2,6,2.0,2055.57559503,1_I,test,01,4,106.0,00100,ignore,0.0,6700.0,1.2214397994
496,1_6_2,6,2.0,2058.15385316,1_I,test,01,4,107.0,00011,ignore,0.0,6600.0,0.405969339225
497,1_6_2,6,2.0,2062.02907572,1_I,test,01,4,108.0,11010,kill,0.0,6500.0,1.72074005257
498,1_6_2,6,2.0,2066.29488592,1_I,test,01,4,109.0,00111,kill,1.0,6600.0,2.0697168704
499,1_6_2,6,2.0,2071.49824109,1_I,test,01,4,110.0,10101,ignore,0.0,6500.0,3.08620084479
500,1_6_2,6,2.0,2074.62341592,1_I,test,01,4,111.0,01101,kill,0.0,6400.0,0.936126600602
501,1_6_2,6,2.0,2077.6235982,1_I,test,01,4,112.0,10011,ignore,0.0,6300.0,0.870657885174
502,1_6_2,6,2.0,2080.76434768,1_I,test,01,5,0.0,11000,ignore,1.0,6400.0,1.03062464874
503,1_6_2,6,2.0,2083.4832539,1_I,test,01,5,1.0,01110,ignore,1.0,6500.0,0.573285394485
504,1_6_2,6,2.0,2086.60839713,1_I,test,01,5,2.0,01010,ignore,1.0,6600.0,1.02845212882
505,1_6_2,6,2.0,2089.5460238,1_I,test,01,5,3.0,10001,ignore,0.0,6500.0,0.724853964541
506,1_6_2,6,2.0,2094.71811718,1_I,test,01,5,4.0,11011,ignore,0.0,6400.0,2.99995935762
507,1_6_2,6,2.0,2097.49955765,1_I,test,01,5,5.0,10110,ignore,0.0,6300.0,0.63759970212
508,1_6_2,6,2.0,2101.21847126,1_I,test,01,5,6.0,00001,ignore,1.0,6400.0,1.549961595
509,1_6_2,6,2.0,2104.29673987,1_I,test,01,5,7.0,00000,ignore,1.0,6500.0,0.949440879911
510,1_6_2,6,2.0,2107.23438337,1_I,test,01,5,8.0,10000,ignore,0.0,6400.0,0.756468398908
511,1_6_2,6,2.0,2111.21894337,1_I,test,01,5,9.0,01001,ignore,1.0,6500.0,1.81660105728
512,1_6_2,6,2.0,2113.95345791,1_I,test,01,5,10.0,10000,ignore,0.0,6400.0,0.625314619228
513,1_6_2,6,2.0,2117.25049992,1_I,test,01,5,11.0,11011,ignore,0.0,6300.0,1.18035363796
514,1_6_2,6,2.0,2119.95376498,1_I,test,01,5,12.0,00111,ignore,1.0,6400.0,0.546317738839
515,1_6_2,6,2.0,2122.96953176,1_I,test,01,5,13.0,11101,kill,1.0,6500.0,0.858932353429
516,1_6_2,6,2.0,2125.98532769,1_I,test,01,5,14.0,00110,ignore,1.0,6600.0,0.858201611654
517,1_6_2,6,2.0,2129.39171249,1_I,test,01,5,15.0,10100,kill,1.0,6700.0,1.29542083542
518,1_6_2,6,2.0,2132.40749445,1_I,test,01,5,16.0,01000,ignore,1.0,6800.0,0.906309052043
519,1_6_2,6,2.0,2135.51704866,1_I,test,01,5,17.0,00010,ignore,1.0,6900.0,0.944240707982
520,1_6_2,6,2.0,2139.00156535,1_I,test,01,5,18.0,11000,kill,0.0,6800.0,1.38634728051
521,1_6_2,6,2.0,2141.97047146,1_I,test,01,5,19.0,11110,kill,0.0,6700.0,0.800849877314
522,1_6_2,6,2.0,2145.14249588,1_I,test,01,5,20.0,00001,ignore,1.0,6800.0,1.03818618397
523,1_6_2,6,2.0,2147.83010705,1_I,test,01,5,21.0,01010,ignore,1.0,6900.0,0.51354561245
524,1_6_2,6,2.0,2150.62713655,1_I,test,01,5,22.0,10001,ignore,0.0,6800.0,0.636647685171
525,1_6_2,6,2.0,2153.31476456,1_I,test,01,5,23.0,00011,ignore,1.0,6900.0,0.548002550207
526,1_6_2,6,2.0,2156.23677019,1_I,test,01,5,24.0,01011,ignore,1.0,7000.0,0.751568734269
527,1_6_2,6,2.0,2159.34633014,1_I,test,01,5,25.0,11100,kill,0.0,6900.0,1.01954405819
528,1_6_2,6,2.0,2163.4090286,1_I,test,01,5,26.0,00101,ignore,1.0,7000.0,1.89979026069
