,unique_id,pair_id,sbj_id,wall_time,condition,block,rule_id,rule_num,trial,stimulus,choice,correct,points,reaction_time
0,2_5_1,5,1.0,36.2310450557,2_ND,training,05,1_A,1.0,00110,kill,1.0,100.0,2.96057018782
1,2_5_1,5,1.0,41.3875654282,2_ND,training,05,1_A,2.0,10000,kill,1.0,200.0,3.34930755119
2,2_5_1,5,1.0,45.5908846282,2_ND,training,05,1_A,3.0,11101,kill,0.0,100.0,2.40325024375
3,2_5_1,5,1.0,48.8879551111,2_ND,training,05,1_A,4.0,01011,ignore,1.0,200.0,1.50372203264
4,2_5_1,5,1.0,53.5600698543,2_ND,training,05,1_A,5.0,01101,ignore,1.0,300.0,2.86510269667
5,2_5_1,5,1.0,57.8571390542,2_ND,training,05,1_A,6.0,11111,kill,0.0,200.0,2.48248832555
6,2_5_1,5,1.0,61.4354399728,2_ND,training,05,1_A,7.0,00100,kill,1.0,300.0,1.77888720686
7,2_5_1,5,1.0,66.5294940217,2_ND,training,05,1_A,8.0,11001,kill,0.0,200.0,3.28956227229
8,2_5_1,5,1.0,71.1703183533,2_ND,training,05,1_A,9.0,00000,kill,1.0,300.0,2.82525209114
9,2_5_1,5,1.0,75.9518079361,2_ND,training,05,1_A,10.0,11011,ignore,1.0,400.0,2.98862286396
10,2_5_1,5,1.0,81.9365002951,2_ND,training,05,1_A,11.0,11010,ignore,0.0,300.0,4.18542201211
11,2_5_1,5,1.0,85.8117158234,2_ND,training,05,1_A,12.0,00010,ignore,0.0,200.0,2.05237049059
12,2_5_1,5,1.0,90.1713142095,2_ND,training,05,1_A,13.0,10100,ignore,1.0,300.0,2.55031463283
13,2_5_1,5,1.0,96.0622055729,2_ND,training,05,1_A,14.0,01111,kill,0.0,200.0,4.101606199
14,2_5_1,5,1.0,99.7343148638,2_ND,training,05,1_A,15.0,00011,kill,0.0,100.0,1.88534567917
15,2_5_1,5,1.0,104.109492546,2_ND,training,05,1_A,16.0,00101,kill,0.0,0.0,2.56692666906
16,2_5_1,5,1.0,108.219087084,2_ND,training,05,1_A,17.0,10111,kill,0.0,0.0,2.31646193616
17,2_5_1,5,1.0,113.313139208,2_ND,training,05,1_A,18.0,10110,kill,0.0,0.0,3.31772078822
18,2_5_1,5,1.0,117.469611151,2_ND,training,05,1_A,19.0,00001,ignore,1.0,100.0,2.35682057269
19,2_5_1,5,1.0,123.376147239,2_ND,training,05,1_A,20.0,00111,ignore,1.0,200.0,4.11538782265
20,2_5_1,5,1.0,126.704421217,2_ND,training,05,1_A,21.0,10001,kill,0.0,100.0,1.55530738441
21,2_5_1,5,1.0,130.36086686,2_ND,training,05,1_A,22.0,01110,ignore,0.0,0.0,1.89174609997
22,2_5_1,5,1.0,133.720424835,2_ND,training,05,1_A,23.0,10011,ignore,1.0,100.0,1.57409811669
23,2_5_1,5,1.0,139.298838649,2_ND,training,05,1_A,24.0,01100,kill,1.0,200.0,3.81336147175
24,2_5_1,5,1.0,143.145941846,2_ND,training,05,1_A,25.0,10010,kill,1.0,300.0,2.06538942628
25,2_5_1,5,1.0,147.427450352,2_ND,training,05,1_A,26.0,01000,ignore,0.0,200.0,2.50074729307
26,2_5_1,5,1.0,151.944777608,2_ND,training,05,1_A,27.0,01010,ignore,0.0,100.0,2.75065460307
27,2_5_1,5,1.0,154.288647881,2_ND,training,05,1_A,28.0,01001,ignore,1.0,200.0,0.549444822187
28,2_5_1,5,1.0,158.258057295,2_ND,training,05,1_A,29.0,11110,kill,0.0,100.0,2.19029064248
29,2_5_1,5,1.0,163.617684867,2_ND,training,05,1_A,30.0,10101,ignore,1.0,200.0,3.57949915328
30,2_5_1,5,1.0,167.242879869,2_ND,training,05,1_A,31.0,11000,kill,1.0,300.0,1.85802137322
31,2_5_1,5,1.0,170.930603415,2_ND,training,05,1_A,32.0,11100,kill,0.0,200.0,1.90165879818
32,2_5_1,5,1.0,174.774525325,2_ND,training,05,1_A,33.0,10110,kill,0.0,100.0,2.07908317083
33,2_5_1,5,1.0,176.915283907,2_ND,training,05,1_A,34.0,01111,ignore,1.0,200.0,0.370680453634
34,2_5_1,5,1.0,179.82858829,2_ND,training,05,1_A,35.0,10111,ignore,1.0,300.0,1.14696015292
35,2_5_1,5,1.0,185.110074344,2_ND,training,05,1_A,36.0,11000,ignore,0.0,200.0,3.50847327706
36,2_5_1,5,1.0,189.469675296,2_ND,training,05,1_A,37.0,01001,ignore,1.0,300.0,2.58016562324
37,2_5_1,5,1.0,192.876107148,2_ND,training,05,1_A,38.0,11011,kill,0.0,200.0,1.62644166624
38,2_5_1,5,1.0,196.79819463,2_ND,training,05,1_A,39.0,00000,kill,1.0,300.0,2.13547653564
39,2_5_1,5,1.0,200.845611177,2_ND,training,05,1_A,40.0,11010,ignore,0.0,200.0,2.29625423359
40,2_5_1,5,1.0,204.45515087,2_ND,training,05,1_A,41.0,01000,ignore,0.0,100.0,1.83497299482
41,2_5_1,5,1.0,208.037720981,2_ND,training,05,1_A,42.0,01110,ignore,0.0,0.0,1.81586346026
42,2_5_1,5,1.0,210.647254901,2_ND,training,05,1_A,43.0,00100,ignore,0.0,0.0,0.812353427926
43,2_5_1,5,1.0,213.194226921,2_ND,training,05,1_A,44.0,00110,kill,1.0,100.0,0.778833004053
44,2_5_1,5,1.0,216.350652358,2_ND,training,05,1_A,45.0,10001,ignore,1.0,200.0,1.37880862883
45,2_5_1,5,1.0,220.116485991,2_ND,training,05,1_A,46.0,10000,kill,1.0,300.0,1.98612632781
46,2_5_1,5,1.0,223.726682853,2_ND,training,05,1_A,47.0,10011,ignore,1.0,400.0,1.8163179299
47,2_5_1,5,1.0,228.070684623,2_ND,training,05,1_A,48.0,01010,kill,1.0,500.0,2.56542502694
48,2_5_1,5,1.0,232.41465849,2_ND,training,05,1_A,49.0,01011,ignore,1.0,600.0,2.58038243444
49,2_5_1,5,1.0,236.414878509,2_ND,training,05,1_A,50.0,01100,kill,1.0,700.0,2.21867302561
50,2_5_1,5,1.0,240.102526684,2_ND,training,05,1_A,51.0,00011,ignore,1.0,800.0,1.90331021963
51,2_5_1,5,1.0,243.227688651,2_ND,training,05,1_A,52.0,11101,kill,0.0,700.0,1.34490140863
52,2_5_1,5,1.0,246.321615372,2_ND,training,05,1_A,53.0,00001,ignore,1.0,800.0,1.2972055088
53,2_5_1,5,1.0,249.809529751,2_ND,training,05,1_A,54.0,11110,kill,0.0,700.0,1.75645398214
54,2_5_1,5,1.0,253.872254259,2_ND,training,05,1_A,55.0,01101,ignore,1.0,800.0,2.28487421101
55,2_5_1,5,1.0,259.925997781,2_ND,training,05,1_A,56.0,11100,ignore,1.0,900.0,4.28750224509
56,2_5_1,5,1.0,267.285793414,2_ND,training,05,1_A,57.0,00101,ignore,1.0,1000.0,5.57593555961
57,2_5_1,5,1.0,271.14535684,2_ND,training,05,1_A,58.0,11001,kill,0.0,900.0,2.06784394725
58,2_5_1,5,1.0,273.62986831,2_ND,training,05,1_A,59.0,10010,kill,1.0,1000.0,0.710483270897
59,2_5_1,5,1.0,276.614379137,2_ND,training,05,1_A,60.0,10101,ignore,1.0,1100.0,1.18458716067
60,2_5_1,5,1.0,279.723922038,2_ND,training,05,1_A,61.0,00010,kill,1.0,1200.0,1.31928433058
61,2_5_1,5,1.0,283.302239955,2_ND,training,05,1_A,62.0,10100,ignore,1.0,1300.0,1.80091824037
62,2_5_1,5,1.0,286.396133961,2_ND,training,05,1_A,63.0,00111,ignore,1.0,1400.0,1.30246670857
63,2_5_1,5,1.0,289.615056191,2_ND,training,05,1_A,64.0,11111,ignore,1.0,1500.0,1.44074511213
64,2_5_1,5,1.0,292.72459396,2_ND,training,05,1_A,65.0,11001,ignore,1.0,1600.0,1.33320354595
65,2_5_1,5,1.0,295.990361523,2_ND,training,05,1_A,66.0,01111,ignore,1.0,1700.0,1.47010442859
66,2_5_1,5,1.0,299.13116629,2_ND,training,05,1_A,67.0,01000,kill,1.0,1800.0,1.36927823677
67,2_5_1,5,1.0,302.350084351,2_ND,training,05,1_A,68.0,10011,ignore,1.0,1900.0,1.44058667317
68,2_5_1,5,1.0,305.077831375,2_ND,training,05,1_A,69.0,00101,ignore,1.0,2000.0,0.932607315135
69,2_5_1,5,1.0,309.312451891,2_ND,training,05,1_A,70.0,10010,ignore,0.0,1900.0,2.45445264792
70,2_5_1,5,1.0,312.187577937,2_ND,training,05,1_A,71.0,00000,kill,1.0,2000.0,1.08099822959
71,2_5_1,5,1.0,315.062710397,2_ND,training,05,1_A,72.0,01001,ignore,1.0,2100.0,1.1005827603
72,2_5_1,5,1.0,317.85972379,2_ND,training,05,1_A,73.0,10111,ignore,1.0,2200.0,1.02285722533
73,2_5_1,5,1.0,320.594313196,2_ND,training,05,1_A,74.0,00111,ignore,1.0,2300.0,0.948406950789
74,2_5_1,5,1.0,323.390233553,2_ND,training,05,1_A,75.0,10100,kill,0.0,2200.0,0.996784715451
75,2_5_1,5,1.0,326.343481552,2_ND,training,05,1_A,76.0,01110,kill,1.0,2300.0,1.14659035511
76,2_5_1,5,1.0,333.515740622,2_ND,training,05,1_A,77.0,10000,kill,1.0,2400.0,5.38662377483
77,2_5_1,5,1.0,336.609659003,2_ND,training,05,1_A,78.0,11111,ignore,1.0,2500.0,1.31820091599
78,2_5_1,5,1.0,339.969170793,2_ND,training,05,1_A,79.0,11010,kill,1.0,2600.0,1.58426450967
79,2_5_1,5,1.0,342.87558276,2_ND,training,05,1_A,80.0,01100,kill,1.0,2700.0,1.12687817519
80,2_5_1,5,1.0,346.688293798,2_ND,training,05,1_A,81.0,00010,kill,1.0,2800.0,2.03227087289
81,2_5_1,5,1.0,350.87599329,2_ND,training,05,1_A,82.0,00110,ignore,0.0,2700.0,2.4291200544
82,2_5_1,5,1.0,353.829279135,2_ND,training,05,1_A,83.0,11000,kill,1.0,2800.0,1.18646597732
83,2_5_1,5,1.0,356.70442699,2_ND,training,05,1_A,84.0,00011,ignore,1.0,2900.0,1.08133146456
84,2_5_1,5,1.0,360.064005812,2_ND,training,05,1_A,85.0,00001,ignore,1.0,3000.0,1.59639791913
85,2_5_1,5,1.0,364.579869913,2_ND,training,05,1_A,86.0,10110,kill,0.0,2900.0,2.76347372607
86,2_5_1,5,1.0,367.33004503,2_ND,training,05,1_A,87.0,01010,kill,1.0,3000.0,0.963085326115
87,2_5_1,5,1.0,370.43958344,2_ND,training,05,1_A,88.0,10001,ignore,1.0,3100.0,1.33065024119
88,2_5_1,5,1.0,374.0647685,2_ND,training,05,1_A,89.0,00100,kill,1.0,3200.0,1.81897065993
89,2_5_1,5,1.0,376.924269385,2_ND,training,05,1_A,90.0,01101,ignore,1.0,3300.0,1.0959966901
90,2_5_1,5,1.0,380.643171088,2_ND,training,05,1_A,91.0,11101,ignore,1.0,3400.0,1.94680267615
91,2_5_1,5,1.0,383.34646912,2_ND,training,05,1_A,92.0,01011,ignore,1.0,3500.0,0.939751180271
92,2_5_1,5,1.0,387.924869144,2_ND,training,05,1_A,93.0,11110,kill,0.0,3400.0,2.78878964181
93,2_5_1,5,1.0,390.706218569,2_ND,training,05,1_A,94.0,11100,kill,0.0,3300.0,1.0101859573
94,2_5_1,5,1.0,394.018878611,2_ND,training,05,1_A,95.0,10101,ignore,1.0,3400.0,1.52853793554
95,2_5_1,5,1.0,396.565919587,2_ND,training,05,1_A,96.0,11011,ignore,1.0,3500.0,0.769821547699
96,2_5_1,5,1.0,399.394163417,2_ND,training,05,1_A,97.0,00101,ignore,1.0,3600.0,1.03299154565
97,2_5_1,5,1.0,403.003749615,2_ND,training,05,1_A,98.0,01110,ignore,0.0,3500.0,1.86350964746
98,2_5_1,5,1.0,405.613225484,2_ND,training,05,1_A,99.0,11101,ignore,1.0,3600.0,0.843142864473
99,2_5_1,5,1.0,408.441534741,2_ND,training,05,1_A,100.0,00010,kill,1.0,3700.0,1.04899901216
100,2_5_1,5,1.0,411.481541541,2_ND,training,05,1_A,101.0,11100,kill,0.0,3600.0,1.2858745574
101,2_5_1,5,1.0,415.262903795,2_ND,training,05,1_A,102.0,11001,ignore,1.0,3700.0,2.00129830143
102,2_5_1,5,1.0,419.1401925,2_ND,training,05,1_A,103.0,00110,kill,1.0,3800.0,2.09503451018
103,2_5_1,5,1.0,421.984073357,2_ND,training,05,1_A,104.0,10111,ignore,1.0,3900.0,1.07306377328
104,2_5_1,5,1.0,425.265493021,2_ND,training,05,1_A,105.0,01111,ignore,1.0,4000.0,1.5006273413
105,2_5_1,5,1.0,428.718814466,2_ND,training,05,1_A,106.0,11010,ignore,0.0,3900.0,1.69517883717
106,2_5_1,5,1.0,431.406437304,2_ND,training,05,1_A,107.0,00100,kill,1.0,4000.0,0.881060129832
107,2_5_1,5,1.0,435.172261957,2_ND,training,05,1_A,108.0,10101,ignore,1.0,4100.0,1.98822323857
108,2_5_1,5,1.0,438.940185765,2_ND,training,05,1_A,109.0,10110,kill,0.0,4000.0,1.98702404167
109,2_5_1,5,1.0,441.518445951,2_ND,training,05,1_A,110.0,01010,kill,1.0,4100.0,0.809184007285
110,2_5_1,5,1.0,444.065472494,2_ND,training,05,1_A,111.0,11111,ignore,1.0,4200.0,0.792494675938
111,2_5_1,5,1.0,447.159355917,2_ND,training,05,1_A,112.0,00111,ignore,1.0,4300.0,1.31174404731
112,2_5_1,5,1.0,450.159508262,2_ND,training,05,1_A,113.0,00011,ignore,1.0,4400.0,1.22568827937
113,2_5_1,5,1.0,453.237780315,2_ND,training,05,1_A,114.0,01001,ignore,1.0,4500.0,1.31132710269
114,2_5_1,5,1.0,457.284897303,2_ND,training,05,1_A,115.0,11000,kill,1.0,4600.0,2.26616847129
115,2_5_1,5,1.0,460.535020783,2_ND,training,05,1_A,116.0,10000,kill,1.0,4700.0,1.46860118284
116,2_5_1,5,1.0,463.566440127,2_ND,training,05,1_A,117.0,01100,kill,1.0,4800.0,1.25592317956
117,2_5_1,5,1.0,466.71352825,2_ND,training,05,1_A,118.0,10011,ignore,1.0,4900.0,1.3887328732
118,2_5_1,5,1.0,469.557390504,2_ND,training,05,1_A,119.0,00000,kill,1.0,5000.0,1.05939921486
119,2_5_1,5,1.0,472.510667689,2_ND,training,05,1_A,120.0,10001,ignore,1.0,5100.0,1.17589418587
120,2_5_1,5,1.0,475.463936855,2_ND,training,05,1_A,121.0,01101,ignore,1.0,5200.0,1.18394955611
121,2_5_1,5,1.0,479.464153667,2_ND,training,05,1_A,122.0,11110,kill,0.0,5100.0,2.231661813
122,2_5_1,5,1.0,482.168341715,2_ND,training,05,1_A,123.0,01000,kill,1.0,5200.0,0.932161184377
123,2_5_1,5,1.0,484.996600618,2_ND,training,05,1_A,124.0,00001,ignore,1.0,5300.0,1.05340579617
124,2_5_1,5,1.0,487.590229063,2_ND,training,05,1_A,125.0,01011,ignore,1.0,5400.0,0.818411954122
125,2_5_1,5,1.0,490.337243739,2_ND,training,05,1_A,126.0,11011,ignore,1.0,5500.0,0.993018422538
126,2_5_1,5,1.0,493.290506171,2_ND,training,05,1_A,127.0,10100,kill,0.0,5400.0,1.18473854364
127,2_5_1,5,1.0,498.697009545,2_ND,training,05,1_A,128.0,10010,kill,1.0,5500.0,3.61544843998
128,2_5_1,5,1.0,501.572158041,2_ND,training,05,1_A,129.0,11101,ignore,1.0,5600.0,1.09969819623
129,2_5_1,5,1.0,505.197362665,2_ND,training,05,1_A,130.0,00101,ignore,1.0,5700.0,1.84532252271
130,2_5_1,5,1.0,509.916368284,2_ND,training,05,1_A,131.0,11100,kill,0.0,5600.0,2.97094344948
131,2_5_1,5,1.0,512.932144507,2_ND,training,05,1_A,132.0,01111,ignore,1.0,5700.0,1.22484027813
132,2_5_1,5,1.0,515.525995535,2_ND,training,05,1_A,133.0,01001,ignore,1.0,5800.0,0.814339367273
133,2_5_1,5,1.0,518.401175463,2_ND,training,05,1_A,134.0,10101,ignore,1.0,5900.0,1.09242090881
134,2_5_1,5,1.0,522.432648368,2_ND,training,05,1_A,135.0,10110,kill,0.0,5800.0,2.25511302407
135,2_5_1,5,1.0,525.432758057,2_ND,training,05,1_A,136.0,11110,kill,0.0,5700.0,1.25979627444
136,2_5_1,5,1.0,527.964175797,2_ND,training,05,1_A,137.0,01000,kill,1.0,5800.0,0.760558320933
137,2_5_1,5,1.0,530.511168664,2_ND,training,05,1_A,138.0,00111,ignore,1.0,5900.0,0.760703610096
138,2_5_1,5,1.0,533.776971507,2_ND,training,05,1_A,139.0,00100,kill,1.0,6000.0,1.48114063222
139,2_5_1,5,1.0,536.636501899,2_ND,training,05,1_A,140.0,10111,ignore,1.0,6100.0,1.06769192282
140,2_5_1,5,1.0,539.324093306,2_ND,training,05,1_A,141.0,00001,ignore,1.0,6200.0,0.919498896699
141,2_5_1,5,1.0,542.293000462,2_ND,training,05,1_A,142.0,01101,ignore,1.0,6300.0,1.20192564274
142,2_5_1,5,1.0,544.824383563,2_ND,training,05,1_A,143.0,01011,ignore,1.0,6400.0,0.760749794732
143,2_5_1,5,1.0,547.871409465,2_ND,training,05,1_A,144.0,10001,ignore,1.0,6500.0,1.26520821573
144,2_5_1,5,1.0,550.418435046,2_ND,training,05,1_A,145.0,00011,ignore,1.0,6600.0,0.781425758199
145,2_5_1,5,1.0,555.996855596,2_ND,training,05,1_A,146.0,00110,ignore,0.0,6500.0,3.79653134141
146,2_5_1,5,1.0,558.481359689,2_ND,training,05,1_A,147.0,11011,ignore,1.0,6600.0,0.722418150563
147,2_5_1,5,1.0,560.918994714,2_ND,training,05,1_A,148.0,10011,ignore,1.0,6700.0,0.659998973671
148,2_5_1,5,1.0,565.366335891,2_ND,training,05,1_A,149.0,10010,ignore,0.0,6600.0,2.69718818956
149,2_5_1,5,1.0,567.866449107,2_ND,training,05,1_A,150.0,11001,ignore,1.0,6700.0,0.715008403036
150,2_5_1,5,1.0,570.866586699,2_ND,training,05,1_A,151.0,11000,kill,1.0,6800.0,1.24543413558
151,2_5_1,5,1.0,573.632379599,2_ND,training,05,1_A,152.0,01100,kill,1.0,6900.0,0.987080810282
152,2_5_1,5,1.0,576.429381767,2_ND,training,05,1_A,153.0,10100,kill,0.0,6800.0,1.00941717555
153,2_5_1,5,1.0,580.788963476,2_ND,training,05,1_A,154.0,11010,ignore,0.0,6700.0,2.60895019757
154,2_5_1,5,1.0,583.586006697,2_ND,training,05,1_A,155.0,00000,kill,1.0,6800.0,1.00531508185
155,2_5_1,5,1.0,587.792671717,2_ND,training,05,1_A,156.0,00010,kill,1.0,6900.0,2.44362170935
156,2_5_1,5,1.0,590.433429979,2_ND,training,05,1_A,157.0,11111,ignore,1.0,7000.0,0.888986888694
157,2_5_1,5,1.0,593.605445297,2_ND,training,05,1_A,158.0,10000,kill,1.0,7100.0,1.41268858726
158,2_5_1,5,1.0,598.261955085,2_ND,training,05,1_A,159.0,01110,ignore,0.0,7000.0,2.90817211474
159,2_5_1,5,1.0,601.574594281,2_ND,training,05,1_A,160.0,01010,ignore,0.0,6900.0,1.57413339663
160,2_5_1,5,1.0,604.668517794,2_ND,training,05,1_A,161.0,01010,ignore,0.0,6800.0,1.32597725407
161,2_5_1,5,1.0,607.18424719,2_ND,training,05,1_A,162.0,01011,ignore,1.0,6900.0,0.752294157643
162,2_5_1,5,1.0,610.200036563,2_ND,training,05,1_A,163.0,11001,ignore,1.0,7000.0,1.2328693488
163,2_5_1,5,1.0,613.41896617,2_ND,training,05,1_A,164.0,01000,kill,1.0,7100.0,1.47899914045
164,2_5_1,5,1.0,616.106627495,2_ND,training,05,1_A,165.0,11101,ignore,1.0,7200.0,0.915034381895
165,2_5_1,5,1.0,619.722967235,2_ND,training,05,1_A,166.0,11011,ignore,1.0,7300.0,1.85336185662
166,2_5_1,5,1.0,622.254372787,2_ND,training,05,1_A,167.0,11111,ignore,1.0,7400.0,0.770598026891
167,2_5_1,5,1.0,624.613860202,2_ND,training,05,1_A,168.0,01001,ignore,1.0,7500.0,0.610999320059
168,2_5_1,5,1.0,628.129651178,2_ND,training,05,1_A,169.0,11010,kill,1.0,7600.0,1.74553869246
169,2_5_1,5,1.0,630.989165533,2_ND,training,05,1_A,170.0,11110,kill,0.0,7500.0,1.09944097347
170,2_5_1,5,1.0,635.973826141,2_ND,training,05,1_A,171.0,10010,kill,1.0,7600.0,3.21378867963
171,2_5_1,5,1.0,640.840242854,2_ND,training,05,1_A,172.0,00011,ignore,1.0,7700.0,3.09931172063
172,2_5_1,5,1.0,644.923617347,2_ND,training,05,1_A,173.0,00010,kill,1.0,7800.0,2.31604146354
173,2_5_1,5,1.0,647.798766485,2_ND,training,05,1_A,174.0,00100,kill,1.0,7900.0,1.08483828963
174,2_5_1,5,1.0,650.590213989,2_ND,training,05,1_A,175.0,00111,ignore,1.0,8000.0,1.01648470775
175,2_5_1,5,1.0,653.168459742,2_ND,training,05,1_A,176.0,10011,ignore,1.0,8100.0,0.798134012417
176,2_5_1,5,1.0,655.921754567,2_ND,training,05,1_A,177.0,10101,ignore,1.0,8200.0,0.9892133217
177,2_5_1,5,1.0,658.359391517,2_ND,training,05,1_A,178.0,01101,ignore,1.0,8300.0,0.652381716016
178,2_5_1,5,1.0,661.174564132,2_ND,training,05,1_A,179.0,00000,kill,1.0,8400.0,1.01698439986
179,2_5_1,5,1.0,664.737249512,2_ND,training,05,1_A,180.0,00110,kill,1.0,8500.0,1.7826009006
180,2_5_1,5,1.0,667.709292734,2_ND,training,05,1_A,181.0,00101,ignore,1.0,8600.0,1.18021309078
181,2_5_1,5,1.0,670.443797147,2_ND,training,05,1_A,182.0,10100,kill,0.0,8500.0,0.947807191973
182,2_5_1,5,1.0,673.58467087,2_ND,training,05,1_A,183.0,01110,kill,1.0,8600.0,1.38085614769
183,2_5_1,5,1.0,676.209748165,2_ND,training,05,1_A,184.0,01100,kill,1.0,8700.0,0.860273836402
184,2_5_1,5,1.0,678.975477883,2_ND,training,05,1_A,185.0,11000,kill,1.0,8800.0,1.02636084313
185,2_5_1,5,1.0,681.678764048,2_ND,training,05,1_A,186.0,10111,ignore,1.0,8900.0,0.93690184482
186,2_5_1,5,1.0,685.882099926,2_ND,training,05,1_A,187.0,11100,kill,0.0,8800.0,2.43432801355
187,2_5_1,5,1.0,689.116626469,2_ND,training,05,1_A,188.0,10000,kill,1.0,8900.0,1.47879547904
188,2_5_1,5,1.0,691.663619657,2_ND,training,05,1_A,189.0,00001,ignore,1.0,9000.0,0.745975522146
189,2_5_1,5,1.0,695.288831657,2_ND,training,05,1_A,190.0,01111,ignore,1.0,9100.0,1.87538711705
190,2_5_1,5,1.0,699.179673308,2_ND,training,05,1_A,191.0,10110,ignore,1.0,9200.0,2.11030430544
191,2_5_1,5,1.0,702.72672134,2_ND,training,05,1_A,192.0,10001,ignore,1.0,9300.0,1.77556287525
192,2_5_1,5,1.0,705.476831991,2_ND,training,05,1_A,193.0,00111,ignore,1.0,9400.0,0.991259236926
193,2_5_1,5,1.0,708.055181339,2_ND,training,05,1_A,194.0,11111,ignore,1.0,9500.0,0.79914911223
194,2_5_1,5,1.0,711.476746357,2_ND,training,05,1_A,195.0,00010,kill,1.0,9600.0,1.65448696567
195,2_5_1,5,1.0,714.023727036,2_ND,training,05,1_A,196.0,10001,ignore,1.0,9700.0,0.762091714987
196,2_5_1,5,1.0,716.539462526,2_ND,training,05,1_A,197.0,10011,ignore,1.0,9800.0,0.738076666494
197,2_5_1,5,1.0,719.008365192,2_ND,training,05,1_A,198.0,11011,ignore,1.0,9900.0,0.716541155642
198,2_5_1,5,1.0,722.352288705,2_ND,training,05,1_A,199.0,11010,kill,1.0,10000.0,1.57547531688
199,2_5_1,5,1.0,725.711814607,2_ND,training,05,1_A,200.0,11100,kill,0.0,9900.0,1.60701685739
200,2_5_1,5,1.0,728.52447914,2_ND,training,05,1_A,201.0,10000,kill,1.0,10000.0,1.03770013342
201,2_5_1,5,1.0,731.008961423,2_ND,training,05,1_A,202.0,00011,ignore,1.0,10100.0,0.698726073791
202,2_5_1,5,1.0,735.431088675,2_ND,training,05,1_A,203.0,00101,ignore,1.0,10200.0,2.6371568225
203,2_5_1,5,1.0,738.22807224,2_ND,training,05,1_A,204.0,01001,ignore,1.0,10300.0,1.04153249602
204,2_5_1,5,1.0,740.712594935,2_ND,training,05,1_A,205.0,01111,ignore,1.0,10400.0,0.710694309026
205,2_5_1,5,1.0,743.978367309,2_ND,training,05,1_A,206.0,01110,kill,1.0,10500.0,1.5057948889
206,2_5_1,5,1.0,746.900430094,2_ND,training,05,1_A,207.0,01000,kill,1.0,10600.0,1.1485551265
207,2_5_1,5,1.0,750.431867078,2_ND,training,05,1_A,208.0,11110,ignore,1.0,10700.0,1.79014952276
208,2_5_1,5,1.0,753.244502104,2_ND,training,05,1_A,209.0,01010,kill,1.0,10800.0,1.05389811156
209,2_5_1,5,1.0,755.775873018,2_ND,training,05,1_A,210.0,01011,ignore,1.0,10900.0,0.746377392621
210,2_5_1,5,1.0,759.322949915,2_ND,training,05,1_A,211.0,00110,kill,1.0,11000.0,1.79541232617
211,2_5_1,5,1.0,762.859140068,2_ND,training,05,1_A,212.0,00000,ignore,0.0,10900.0,1.75363543645
212,2_5_1,5,1.0,765.781165007,2_ND,training,05,1_A,213.0,10010,kill,1.0,11000.0,1.1708690409
213,2_5_1,5,1.0,769.140714322,2_ND,training,05,1_A,214.0,10110,ignore,1.0,11100.0,1.56243393031
214,2_5_1,5,1.0,772.687725792,2_ND,training,05,1_A,215.0,10100,kill,0.0,11000.0,1.77763861805
215,2_5_1,5,1.0,776.484802368,2_ND,training,05,1_A,216.0,01100,ignore,0.0,10900.0,2.05803388156
216,2_5_1,5,1.0,779.375580194,2_ND,training,05,1_A,217.0,00001,ignore,1.0,11000.0,1.11821727305
217,2_5_1,5,1.0,784.14147669,2_ND,training,05,1_A,218.0,00100,ignore,0.0,10900.0,3.00849540719
218,2_5_1,5,1.0,786.563444861,2_ND,training,05,1_A,219.0,10111,ignore,1.0,11000.0,0.629016138966
219,2_5_1,5,1.0,789.016732629,2_ND,training,05,1_A,220.0,11001,ignore,1.0,11100.0,0.691010032329
220,2_5_1,5,1.0,791.407468761,2_ND,training,05,1_A,221.0,11101,ignore,1.0,11200.0,0.623411761688
221,2_5_1,5,1.0,793.73569912,2_ND,training,05,1_A,222.0,10101,ignore,1.0,11300.0,0.549290873401
222,2_5_1,5,1.0,796.313941025,2_ND,training,05,1_A,223.0,01101,ignore,1.0,11400.0,0.823154538921
223,2_5_1,5,1.0,799.501615821,2_ND,training,05,1_A,224.0,11000,kill,1.0,11500.0,1.413972456
224,2_5_1,5,1.0,801.939264317,2_ND,training,05,1_A,225.0,01101,ignore,1.0,11600.0,0.675004490175
225,2_5_1,5,1.0,805.673812029,2_ND,training,05,1_A,226.0,01100,ignore,0.0,11500.0,1.97658182378
226,2_5_1,5,1.0,809.064591458,2_ND,training,05,1_A,227.0,00110,kill,1.0,11600.0,1.63986567968
227,2_5_1,5,1.0,812.361660017,2_ND,training,05,1_A,228.0,01110,ignore,0.0,11500.0,1.52534349823
228,2_5_1,5,1.0,814.736793118,2_ND,training,05,1_A,229.0,01011,ignore,1.0,11600.0,0.61517999179
229,2_5_1,5,1.0,817.299423334,2_ND,training,05,1_A,230.0,10101,ignore,1.0,11700.0,0.765079283625
230,2_5_1,5,1.0,819.908920049,2_ND,training,05,1_A,231.0,10111,ignore,1.0,11800.0,0.853647944783
231,2_5_1,5,1.0,822.534051226,2_ND,training,05,1_A,232.0,11111,ignore,1.0,11900.0,0.834129804487
232,2_5_1,5,1.0,824.94043978,2_ND,training,05,1_A,233.0,00111,ignore,1.0,12000.0,0.598492264075
233,2_5_1,5,1.0,828.250104236,2_ND,training,05,1_A,234.0,00010,kill,1.0,12100.0,1.54991436599
234,2_5_1,5,1.0,831.687747601,2_ND,training,05,1_A,235.0,10110,ignore,1.0,12200.0,1.66168567507
235,2_5_1,5,1.0,835.32853537,2_ND,training,05,1_A,236.0,01000,kill,1.0,12300.0,1.89103216247
236,2_5_1,5,1.0,838.250618682,2_ND,training,05,1_A,237.0,10001,ignore,1.0,12400.0,1.11663544927
237,2_5_1,5,1.0,840.719437638,2_ND,training,05,1_A,238.0,00011,ignore,1.0,12500.0,0.694093498227
238,2_5_1,5,1.0,981.211040052,2_ND,test,05,2,0.0,11000,kill,0.0,0.0,7.10454533792
239,2_5_1,5,1.0,986.758242995,2_ND,test,05,2,1.0,11110,ignore,0.0,0.0,3.78998466927
240,2_5_1,5,1.0,996.227479858,2_ND,test,05,2,2.0,11010,kill,0.0,0.0,7.72477645354
241,2_5_1,5,1.0,1000.35268609,2_ND,test,05,2,3.0,10000,kill,0.0,0.0,2.3775452866
242,2_5_1,5,1.0,1004.36851555,2_ND,test,05,2,4.0,01010,ignore,1.0,100.0,2.23282508852
243,2_5_1,5,1.0,1011.80634269,2_ND,test,05,2,5.0,00001,ignore,1.0,200.0,5.64542130651
244,2_5_1,5,1.0,1024.41640453,2_ND,test,05,2,6.0,00100,ignore,0.0,100.0,10.8374316852
245,2_5_1,5,1.0,1031.16673872,2_ND,test,05,2,7.0,10100,ignore,0.0,0.0,4.9541261482
246,2_5_1,5,1.0,1035.49511213,2_ND,test,05,2,8.0,00101,ignore,0.0,0.0,2.5352690255
247,2_5_1,5,1.0,1050.24647746,2_ND,test,05,2,9.0,11001,ignore,1.0,100.0,12.9829572279
248,2_5_1,5,1.0,1070.65377014,2_ND,test,05,2,10.0,11100,kill,0.0,0.0,18.653923449
249,2_5_1,5,1.0,1082.73249025,2_ND,test,05,2,11.0,11101,kill,0.0,0.0,10.3171001822
250,2_5_1,5,1.0,1086.92021925,2_ND,test,05,2,12.0,01001,ignore,1.0,100.0,2.40012572484
251,2_5_1,5,1.0,1095.73317853,2_ND,test,05,2,13.0,10010,kill,0.0,0.0,7.05367745163
252,2_5_1,5,1.0,1100.56152756,2_ND,test,05,2,14.0,10011,ignore,1.0,100.0,3.05352959665
253,2_5_1,5,1.0,1133.86007499,2_ND,test,05,2,15.0,01111,,,0.0,
254,2_5_1,5,1.0,1137.48529565,2_ND,test,05,2,16.0,11011,ignore,1.0,100.0,1.85785587828
255,2_5_1,5,1.0,1142.65746812,2_ND,test,05,2,17.0,00000,kill,0.0,0.0,3.39765131883
256,2_5_1,5,1.0,1151.73605609,2_ND,test,05,2,18.0,11101,ignore,1.0,100.0,7.30734624365
257,2_5_1,5,1.0,1161.03340272,2_ND,test,05,2,19.0,01010,kill,0.0,0.0,7.52150536255
258,2_5_1,5,1.0,1168.14588476,2_ND,test,05,2,20.0,10100,ignore,0.0,0.0,5.34134968184
259,2_5_1,5,1.0,1171.39606436,2_ND,test,05,2,21.0,01011,ignore,1.0,100.0,1.47467189665
260,2_5_1,5,1.0,1177.94327565,2_ND,test,05,2,22.0,00000,kill,0.0,0.0,4.7659266434
261,2_5_1,5,1.0,1181.89971936,2_ND,test,05,2,23.0,11000,kill,0.0,0.0,2.22056948222
262,2_5_1,5,1.0,1196.15045447,2_ND,test,05,2,24.0,00010,ignore,1.0,100.0,12.4818491174
263,2_5_1,5,1.0,1201.32259936,2_ND,test,05,2,25.0,01101,ignore,1.0,200.0,3.42969287217
264,2_5_1,5,1.0,1213.57323857,2_ND,test,05,2,26.0,01111,kill,1.0,300.0,10.45044581
265,2_5_1,5,1.0,1218.80788154,2_ND,test,05,2,27.0,10111,kill,1.0,400.0,3.45379676194
266,2_5_1,5,1.0,1226.40201288,2_ND,test,05,2,28.0,10010,ignore,1.0,500.0,5.84938420486
267,2_5_1,5,1.0,1230.96474669,2_ND,test,05,2,29.0,11010,kill,0.0,400.0,2.81982475497
268,2_5_1,5,1.0,1244.10607039,2_ND,test,05,2,30.0,01110,ignore,0.0,300.0,11.3764753425
269,2_5_1,5,1.0,1250.70013246,2_ND,test,05,2,31.0,11111,ignore,0.0,200.0,4.84103440755
270,2_5_1,5,1.0,1263.73354865,2_ND,test,05,2,32.0,11011,ignore,1.0,300.0,11.267514561
271,2_5_1,5,1.0,1270.04636841,2_ND,test,05,2,33.0,00101,ignore,0.0,200.0,4.56032483194
272,2_5_1,5,1.0,1275.15604057,2_ND,test,05,2,34.0,11001,ignore,1.0,300.0,3.31744175604
273,2_5_1,5,1.0,1281.53133788,2_ND,test,05,2,35.0,10110,ignore,0.0,200.0,4.59715098527
274,2_5_1,5,1.0,1293.39133108,2_ND,test,05,2,36.0,10101,ignore,0.0,100.0,10.089950993
275,2_5_1,5,1.0,1300.89171627,2_ND,test,05,2,37.0,10001,ignore,1.0,200.0,5.70875904449
276,2_5_1,5,1.0,1306.23580592,2_ND,test,05,2,38.0,10000,kill,0.0,100.0,3.58855807718
277,2_5_1,5,1.0,1310.39225541,2_ND,test,05,2,39.0,11110,kill,1.0,200.0,2.38546851747
278,2_5_1,5,1.0,1322.48822645,2_ND,test,05,2,40.0,00001,ignore,1.0,300.0,10.3192378252
279,2_5_1,5,1.0,1331.92620818,2_ND,test,05,2,41.0,00100,ignore,0.0,200.0,7.68260988094
280,2_5_1,5,1.0,1338.95782188,2_ND,test,05,2,42.0,10011,ignore,1.0,300.0,5.24062451891
281,2_5_1,5,1.0,1350.81780001,2_ND,test,05,2,43.0,01000,ignore,1.0,400.0,10.1157528096
282,2_5_1,5,1.0,1358.5689373,2_ND,test,05,2,44.0,00011,ignore,1.0,500.0,5.9909891851
283,2_5_1,5,1.0,1362.99102094,2_ND,test,05,2,45.0,11100,ignore,1.0,600.0,2.65870323806
284,2_5_1,5,1.0,1366.66305518,2_ND,test,05,2,46.0,01001,ignore,1.0,700.0,1.91918747113
285,2_5_1,5,1.0,1369.91331817,2_ND,test,05,2,47.0,01100,ignore,1.0,800.0,1.49731583877
286,2_5_1,5,1.0,1372.89778634,2_ND,test,05,2,48.0,00111,ignore,0.0,700.0,1.21142524504
287,2_5_1,5,1.0,1383.94522727,2_ND,test,05,2,49.0,00110,kill,1.0,800.0,9.28209479397
288,2_5_1,5,1.0,1387.53918863,2_ND,test,05,2,50.0,11110,kill,1.0,900.0,1.8477148227
289,2_5_1,5,1.0,1391.48192032,2_ND,test,05,2,51.0,11111,kill,1.0,1000.0,2.22988723252
290,2_5_1,5,1.0,1394.7945361,2_ND,test,05,2,52.0,10001,kill,0.0,900.0,1.51477042387
291,2_5_1,5,1.0,1408.22576333,2_ND,test,05,3,0.0,01111,ignore,1.0,1000.0,11.6606429928
292,2_5_1,5,1.0,1411.52281297,2_ND,test,05,3,1.0,10101,ignore,1.0,1100.0,1.52074331606
293,2_5_1,5,1.0,1415.17925059,2_ND,test,05,3,2.0,01010,kill,0.0,1000.0,1.90651876892
294,2_5_1,5,1.0,1424.02343934,2_ND,test,05,3,3.0,01011,kill,0.0,900.0,7.0856266357
295,2_5_1,5,1.0,1431.19571253,2_ND,test,05,3,4.0,11000,ignore,0.0,800.0,5.40431954636
296,2_5_1,5,1.0,1435.18028878,2_ND,test,05,3,5.0,10100,ignore,0.0,700.0,2.20690075435
297,2_5_1,5,1.0,1441.07120741,2_ND,test,05,3,6.0,01110,kill,0.0,600.0,4.1504406784
298,2_5_1,5,1.0,1454.41876315,2_ND,test,05,3,7.0,10000,ignore,0.0,500.0,11.5880840432
299,2_5_1,5,1.0,1461.10664449,2_ND,test,05,3,8.0,00011,ignore,1.0,600.0,4.94090034382
300,2_5_1,5,1.0,1468.18513945,2_ND,test,05,3,9.0,01101,ignore,1.0,700.0,5.29065530867
301,2_5_1,5,1.0,1479.82633968,2_ND,test,05,3,10.0,00111,ignore,1.0,800.0,9.84143114641
302,2_5_1,5,1.0,1483.38901351,2_ND,test,05,3,11.0,10011,kill,1.0,900.0,1.82476971827
303,2_5_1,5,1.0,1489.60811663,2_ND,test,05,3,12.0,11001,kill,1.0,1000.0,4.46231590291
304,2_5_1,5,1.0,1494.78027243,2_ND,test,05,3,13.0,00010,ignore,1.0,1100.0,3.41727401601
305,2_5_1,5,1.0,1498.59296294,2_ND,test,05,3,14.0,01100,ignore,1.0,1200.0,2.04562336429
306,2_5_1,5,1.0,1502.90566596,2_ND,test,05,3,15.0,11010,kill,1.0,1300.0,2.55423166727
307,2_5_1,5,1.0,1506.45275472,2_ND,test,05,3,16.0,11100,kill,1.0,1400.0,1.82759660286
308,2_5_1,5,1.0,1515.43756447,2_ND,test,05,3,17.0,00001,ignore,1.0,1500.0,7.23380587058
309,2_5_1,5,1.0,1520.15658388,2_ND,test,05,4,0.0,00110,ignore,0.0,1400.0,2.93835762303
310,2_5_1,5,1.0,1528.76637406,2_ND,test,05,4,1.0,11011,kill,0.0,1300.0,6.8591336532
311,2_5_1,5,1.0,1543.9702664,2_ND,test,05,4,2.0,01000,ignore,1.0,1400.0,13.4266992097
312,2_5_1,5,1.0,1556.37718864,2_ND,test,05,4,3.0,01001,kill,0.0,1300.0,10.6552365038
313,2_5_1,5,1.0,1563.14000391,2_ND,test,05,4,4.0,00000,ignore,1.0,1400.0,4.97181518448
314,2_5_1,5,1.0,1566.98396912,2_ND,test,05,4,5.0,11101,ignore,1.0,1500.0,2.04820072356
315,2_5_1,5,1.0,1569.99975176,2_ND,test,05,4,6.0,10110,kill,1.0,1600.0,1.26894820906
316,2_5_1,5,1.0,1573.5624365,2_ND,test,05,4,7.0,10010,kill,1.0,1700.0,1.78422473957
317,2_5_1,5,1.0,1576.84384622,2_ND,test,05,4,8.0,10111,kill,1.0,1800.0,1.54416309591
318,2_5_1,5,1.0,1583.38792176,2_ND,test,05,4,9.0,00101,ignore,1.0,1900.0,4.76072798532
319,2_5_1,5,1.0,1587.0287525,2_ND,test,05,4,10.0,00100,ignore,1.0,2000.0,1.85383043824
320,2_5_1,5,1.0,1590.29991405,2_ND,test,05,4,11.0,00111,kill,1.0,2100.0,1.52227638939
321,2_5_1,5,1.0,1594.55009814,2_ND,test,05,4,12.0,11000,ignore,1.0,2200.0,2.48487934264
322,2_5_1,5,1.0,1599.01910665,2_ND,test,05,4,13.0,10110,kill,1.0,2300.0,2.72004958434
323,2_5_1,5,1.0,1603.37869798,2_ND,test,05,5,0.0,01101,ignore,1.0,2400.0,2.60152473444
324,2_5_1,5,1.0,1606.61322131,2_ND,test,05,5,1.0,00110,kill,1.0,2500.0,1.46253720429
325,2_5_1,5,1.0,1610.05091471,2_ND,test,05,5,2.0,10101,ignore,0.0,2400.0,1.66737055473
326,2_5_1,5,1.0,1630.22379086,2_ND,test,05,5,3.0,01011,ignore,1.0,2500.0,18.4397935162
327,2_5_1,5,1.0,1642.77135238,2_ND,test,05,5,4.0,11111,kill,1.0,2600.0,10.7756100221
328,2_5_1,5,1.0,1654.22504971,2_ND,test,05,5,5.0,01111,kill,1.0,2700.0,9.71285696875
329,2_5_1,5,1.0,1658.25652133,2_ND,test,05,5,6.0,01110,kill,1.0,2800.0,2.26046627239
330,2_5_1,5,1.0,1661.95979788,2_ND,test,05,5,7.0,00101,kill,1.0,2900.0,1.93656379894
331,2_5_1,5,1.0,1665.80379355,2_ND,test,05,5,8.0,01001,ignore,1.0,3000.0,2.07259006004
332,2_5_1,5,1.0,1669.54039616,2_ND,test,05,5,9.0,10100,kill,1.0,3100.0,1.94752174527
333,2_5_1,5,1.0,1673.36873974,2_ND,test,05,5,10.0,00011,ignore,1.0,3200.0,2.06844466824
334,2_5_1,5,1.0,1676.85326692,2_ND,test,05,5,11.0,00000,ignore,1.0,3300.0,1.71107308719
335,2_5_1,5,1.0,1679.9627925,2_ND,test,05,5,12.0,11100,kill,0.0,3200.0,1.37031354236
336,2_5_1,5,1.0,1691.14021142,2_ND,test,05,5,13.0,00100,ignore,0.0,3100.0,9.37684032945
337,2_5_1,5,1.0,1707.34416149,2_ND,test,05,5,14.0,11001,ignore,1.0,3200.0,14.434269962
338,2_5_1,5,1.0,1711.2974948,2_ND,test,05,5,15.0,10011,kill,0.0,3100.0,2.1984239493
339,2_5_1,5,1.0,1716.50089322,2_ND,test,05,5,16.0,10001,ignore,1.0,3200.0,3.42757094473
340,2_5_1,5,1.0,1721.03240879,2_ND,test,05,5,17.0,11011,ignore,1.0,3300.0,2.80126558732
341,2_5_1,5,1.0,1725.07948344,2_ND,test,05,5,18.0,10010,kill,0.0,3200.0,2.29567500128
342,2_5_1,5,1.0,1730.09539693,2_ND,test,05,5,19.0,00001,kill,0.0,3100.0,3.21701454816
343,2_5_1,5,1.0,1749.64324774,2_ND,test,05,5,20.0,10000,ignore,1.0,3200.0,17.8059661569
344,2_5_1,5,1.0,1754.5966638,2_ND,test,05,5,21.0,01000,kill,0.0,3100.0,3.16714957407
345,2_5_1,5,1.0,1760.5188568,2_ND,test,05,5,22.0,10111,kill,1.0,3200.0,4.17441307025
346,2_5_1,5,1.0,1763.98780597,2_ND,test,05,5,23.0,11101,ignore,1.0,3300.0,1.70023284754
347,2_5_1,5,1.0,1767.019191,2_ND,test,05,5,24.0,11010,kill,0.0,3200.0,1.27865018987
348,2_5_1,5,1.0,1782.75436124,2_ND,test,05,5,25.0,01010,kill,0.0,3100.0,14.0041277518
349,2_5_1,5,1.0,1793.47369528,2_ND,test,05,5,26.0,00010,ignore,1.0,3200.0,8.9855663391
350,2_5_1,5,1.0,1797.88017075,2_ND,test,05,5,27.0,01100,kill,0.0,3100.0,2.62677746703
351,2_5_1,5,1.0,1816.22484124,2_ND,test,05,5,28.0,11110,kill,1.0,3200.0,16.6169860035
352,2_5_1,5,1.0,1823.58459742,2_ND,test,05,5,29.0,00001,ignore,1.0,3300.0,5.5706775671
353,2_5_1,5,1.0,1833.12173725,2_ND,test,05,5,30.0,01000,kill,0.0,3200.0,7.8086038128
354,2_5_1,5,1.0,1866.42669247,2_ND,test,05,5,31.0,01101,,,3100.0,
355,2_5_1,5,1.0,1874.34899099,2_ND,test,05,5,32.0,00010,ignore,1.0,3200.0,6.13883710935
356,2_5_1,5,1.0,1884.1151043,2_ND,test,05,5,33.0,10110,kill,1.0,3300.0,8.01629515831
357,2_5_1,5,1.0,1891.19553549,2_ND,test,05,5,34.0,11001,ignore,1.0,3400.0,5.30543471289
358,2_5_1,5,1.0,1895.36764991,2_ND,test,05,5,35.0,10010,ignore,1.0,3500.0,2.41773169292
359,2_5_1,5,1.0,1899.07094217,2_ND,test,05,5,36.0,00101,kill,1.0,3600.0,1.90157444707
360,2_5_1,5,1.0,1903.07112658,2_ND,test,05,5,37.0,11110,kill,1.0,3700.0,2.23981917432
361,2_5_1,5,1.0,1906.99321022,2_ND,test,05,5,38.0,01011,ignore,1.0,3800.0,2.17303875661
362,2_5_1,5,1.0,1910.54029096,2_ND,test,05,5,39.0,11101,kill,0.0,3700.0,1.7797040976
363,2_5_1,5,1.0,1931.19760802,2_ND,test,05,5,40.0,10100,kill,1.0,3800.0,18.8999900575
364,2_5_1,5,1.0,1937.52915213,2_ND,test,05,5,41.0,11100,ignore,1.0,3900.0,4.59295459794
365,2_5_1,5,1.0,1944.48265158,2_ND,test,05,5,42.0,11011,ignore,1.0,4000.0,5.17373633704
366,2_5_1,5,1.0,1947.77968197,2_ND,test,05,5,43.0,10001,kill,0.0,3900.0,1.53142287166
367,2_5_1,5,1.0,1959.78033304,2_ND,test,05,5,44.0,00000,kill,0.0,3800.0,10.2525796044
368,2_5_1,5,1.0,1966.84991405,2_ND,test,05,5,45.0,00011,ignore,1.0,3900.0,5.29798647817
369,2_5_1,5,1.0,1970.66266389,2_ND,test,05,5,46.0,10111,kill,1.0,4000.0,2.04216561041
370,2_5_1,5,1.0,1974.39720198,2_ND,test,05,5,47.0,01111,ignore,0.0,3900.0,1.95029635142
371,2_5_1,5,1.0,1980.89756568,2_ND,test,05,5,48.0,01010,ignore,1.0,4000.0,4.77597148099
372,2_5_1,5,1.0,1987.83545088,2_ND,test,05,5,49.0,10000,ignore,1.0,4100.0,5.16432750038
373,2_5_1,5,1.0,1991.03873544,2_ND,test,05,5,50.0,00111,kill,1.0,4200.0,1.42525593986
374,2_5_1,5,1.0,1994.44023195,2_ND,test,05,5,51.0,01001,kill,0.0,4100.0,1.6479050136
375,2_5_1,5,1.0,2007.12807769,2_ND,test,05,5,52.0,11000,ignore,1.0,4200.0,10.9085011803
376,2_5_1,5,1.0,2012.86274343,2_ND,test,05,5,53.0,01110,kill,1.0,4300.0,4.00872055729
377,2_5_1,5,1.0,2019.97459621,2_ND,test,05,5,54.0,11111,ignore,0.0,4200.0,5.33257492174
378,2_5_1,5,1.0,2026.4280376,2_ND,test,05,6,0.0,10101,ignore,1.0,4300.0,4.64993809976
379,2_5_1,5,1.0,2035.3347626,2_ND,test,05,6,1.0,10011,ignore,0.0,4200.0,7.1645359727
380,2_5_1,5,1.0,2042.02259519,2_ND,test,05,6,2.0,00100,ignore,1.0,4300.0,4.89526799918
381,2_5_1,5,1.0,2046.32275106,2_ND,test,05,6,3.0,01100,ignore,1.0,4400.0,2.55242822138
382,2_5_1,5,1.0,2049.78232411,2_ND,test,05,6,4.0,11010,kill,1.0,4500.0,1.74533438959
383,2_5_1,5,1.0,2053.76689812,2_ND,test,05,6,5.0,00110,kill,0.0,4400.0,2.19393473855
384,2_5_1,5,1.0,2061.93918061,2_ND,test,05,6,6.0,00000,ignore,1.0,4500.0,6.40843158259
385,2_5_1,5,1.0,2070.01772464,2_ND,test,05,6,7.0,01001,kill,0.0,4400.0,6.31449171242
386,2_5_1,5,1.0,2081.76835134,2_ND,test,05,6,8.0,01110,ignore,1.0,4500.0,9.99387508339
387,2_5_1,5,1.0,2085.14353608,2_ND,test,05,6,9.0,11100,kill,1.0,4600.0,1.62673448966
388,2_5_1,5,1.0,2088.54997691,2_ND,test,05,6,10.0,11000,kill,1.0,4700.0,1.6399477857
389,2_5_1,5,1.0,2092.20644244,2_ND,test,05,6,11.0,10010,kill,1.0,4800.0,1.91852164263
390,2_5_1,5,1.0,2095.3472023,2_ND,test,05,6,12.0,11010,kill,1.0,4900.0,1.40932352337
391,2_5_1,5,1.0,2099.08177022,2_ND,test,05,6,13.0,10101,kill,0.0,4800.0,1.93466990815
392,2_5_1,5,1.0,2107.42593364,2_ND,test,05,6,14.0,10001,ignore,0.0,4700.0,6.57594197414
393,2_5_1,5,1.0,2116.23891986,2_ND,test,05,6,15.0,11001,ignore,0.0,4600.0,7.04277082157
394,2_5_1,5,1.0,2123.4580156,2_ND,test,05,6,16.0,10000,ignore,0.0,4500.0,5.4600618361
395,2_5_1,5,1.0,2133.24022553,2_ND,test,05,6,17.0,00001,kill,0.0,4400.0,7.98793009442
396,2_5_1,5,1.0,2138.91239127,2_ND,test,05,6,18.0,01111,ignore,1.0,4500.0,3.89328141838
397,2_5_1,5,1.0,2144.38140651,2_ND,test,05,6,19.0,10111,ignore,1.0,4600.0,3.71942641248
398,2_5_1,5,1.0,2149.03791342,2_ND,test,05,6,20.0,01011,kill,0.0,4500.0,2.89521828655
399,2_5_1,5,1.0,2157.64773503,2_ND,test,05,6,21.0,00010,ignore,1.0,4600.0,6.86626084056
400,2_5_1,5,1.0,2161.60103851,2_ND,test,05,6,22.0,00101,ignore,1.0,4700.0,2.16086236979
401,2_5_1,5,1.0,2165.35123865,2_ND,test,05,6,23.0,01100,ignore,1.0,4800.0,1.96840137014
402,2_5_1,5,1.0,2169.10143589,2_ND,test,05,6,24.0,11111,kill,0.0,4700.0,2.00051252117
403,2_5_1,5,1.0,2178.8675662,2_ND,test,05,6,25.0,00011,ignore,1.0,4800.0,7.98209671833
404,2_5_1,5,1.0,2185.33665938,2_ND,test,05,6,26.0,11110,ignore,0.0,4700.0,4.72134147124
