,unique_id,pair_id,sbj_id,wall_time,condition,block,rule_id,rule_num,trial,stimulus,choice,correct,points,reaction_time
0,1_38_1,38,1.0,27.4926784805,1_I,training,03,1_B,1.0,10101,ignore,0.0,0.0,3.63734423971
1,1_38_1,38,1.0,33.9617111598,1_I,training,03,1_B,2.0,00000,ignore,0.0,0.0,4.34536866102
2,1_38_1,38,1.0,39.1182347787,1_I,training,03,1_B,3.0,00011,ignore,1.0,100.0,3.01713796196
3,1_38_1,38,1.0,42.2121117459,1_I,training,03,1_B,4.0,00100,kill,1.0,200.0,0.974928253727
4,1_38_1,38,1.0,45.181052377,1_I,training,03,1_B,5.0,00001,kill,1.0,300.0,0.856923755875
5,1_38_1,38,1.0,48.0561548488,1_I,training,03,1_B,6.0,00101,kill,1.0,400.0,0.759680454867
6,1_38_1,38,1.0,51.8532014168,1_I,training,03,1_B,7.0,11011,ignore,1.0,500.0,1.6827034714
7,1_38_1,38,1.0,55.1189878419,1_I,training,03,1_B,8.0,11010,ignore,1.0,600.0,1.16037296516
8,1_38_1,38,1.0,58.5254085079,1_I,training,03,1_B,9.0,00111,ignore,1.0,700.0,1.29872107538
9,1_38_1,38,1.0,61.5567757732,1_I,training,03,1_B,10.0,11001,kill,0.0,600.0,0.920123979611
10,1_38_1,38,1.0,66.0101188865,1_I,training,03,1_B,11.0,01000,kill,0.0,500.0,2.34888894306
11,1_38_1,38,1.0,69.7446724303,1_I,training,03,1_B,12.0,01010,ignore,1.0,600.0,1.63928142115
12,1_38_1,38,1.0,74.7292667063,1_I,training,03,1_B,13.0,10001,ignore,0.0,500.0,2.87825295741
13,1_38_1,38,1.0,77.9638154392,1_I,training,03,1_B,14.0,11111,ignore,1.0,600.0,1.13134250522
14,1_38_1,38,1.0,81.3858470935,1_I,training,03,1_B,15.0,00110,ignore,1.0,700.0,1.33602047768
15,1_38_1,38,1.0,87.5892771234,1_I,training,03,1_B,16.0,00010,ignore,1.0,800.0,4.11629920088
16,1_38_1,38,1.0,91.6424120218,1_I,training,03,1_B,17.0,01110,ignore,1.0,900.0,2.00814834961
17,1_38_1,38,1.0,96.8926910529,1_I,training,03,1_B,18.0,01100,kill,1.0,1000.0,3.18653870578
18,1_38_1,38,1.0,102.314802568,1_I,training,03,1_B,19.0,11110,ignore,1.0,1100.0,3.3640294272
19,1_38_1,38,1.0,107.815031887,1_I,training,03,1_B,20.0,01011,ignore,1.0,1200.0,3.4391157344
20,1_38_1,38,1.0,112.737170663,1_I,training,03,1_B,21.0,11000,kill,0.0,1100.0,2.87100584618
21,1_38_1,38,1.0,116.737379135,1_I,training,03,1_B,22.0,01111,ignore,1.0,1200.0,1.91774387639
22,1_38_1,38,1.0,120.315673658,1_I,training,03,1_B,23.0,10011,ignore,1.0,1300.0,1.51495959501
23,1_38_1,38,1.0,124.300205393,1_I,training,03,1_B,24.0,10111,ignore,1.0,1400.0,1.85864957927
24,1_38_1,38,1.0,128.409774171,1_I,training,03,1_B,25.0,11101,kill,1.0,1500.0,2.03799601787
25,1_38_1,38,1.0,132.363098041,1_I,training,03,1_B,26.0,10110,ignore,1.0,1600.0,1.91142590666
26,1_38_1,38,1.0,136.597694882,1_I,training,03,1_B,27.0,11100,kill,1.0,1700.0,2.18224419263
27,1_38_1,38,1.0,140.050953966,1_I,training,03,1_B,28.0,10010,ignore,1.0,1800.0,1.38458952921
28,1_38_1,38,1.0,143.160467258,1_I,training,03,1_B,29.0,01101,kill,1.0,1900.0,1.0597745557
29,1_38_1,38,1.0,146.566878623,1_I,training,03,1_B,30.0,01001,ignore,1.0,2000.0,1.35719669319
30,1_38_1,38,1.0,150.147380379,1_I,training,03,1_B,31.0,10000,ignore,0.0,1900.0,1.52244147724
31,1_38_1,38,1.0,154.538185567,1_I,training,03,1_B,32.0,10100,kill,1.0,2000.0,2.32719668036
32,1_38_1,38,1.0,158.319633013,1_I,training,03,1_B,33.0,10011,ignore,1.0,2100.0,1.72502158482
33,1_38_1,38,1.0,165.398124462,1_I,training,03,1_B,34.0,00000,kill,1.0,2200.0,5.01851387394
34,1_38_1,38,1.0,169.351434861,1_I,training,03,1_B,35.0,11110,ignore,1.0,2300.0,1.92288157663
35,1_38_1,38,1.0,173.523497626,1_I,training,03,1_B,36.0,00001,kill,1.0,2400.0,2.14544031108
36,1_38_1,38,1.0,177.929933687,1_I,training,03,1_B,37.0,11111,ignore,1.0,2500.0,2.35049449443
37,1_38_1,38,1.0,183.086430365,1_I,training,03,1_B,38.0,10101,kill,1.0,2600.0,3.09895437104
38,1_38_1,38,1.0,186.289741726,1_I,training,03,1_B,39.0,11011,ignore,1.0,2700.0,1.15274707723
39,1_38_1,38,1.0,189.133589507,1_I,training,03,1_B,40.0,00111,ignore,1.0,2800.0,0.78150164917
40,1_38_1,38,1.0,192.946299342,1_I,training,03,1_B,41.0,00010,ignore,1.0,2900.0,1.7783129972
41,1_38_1,38,1.0,196.805848556,1_I,training,03,1_B,42.0,01010,ignore,1.0,3000.0,1.8311361505
42,1_38_1,38,1.0,201.49358004,1_I,training,03,1_B,43.0,11100,kill,1.0,3100.0,2.64933487966
43,1_38_1,38,1.0,205.071836076,1_I,training,03,1_B,44.0,01011,ignore,1.0,3200.0,1.5628551232
44,1_38_1,38,1.0,210.025216714,1_I,training,03,1_B,45.0,11010,ignore,1.0,3300.0,2.94515948391
45,1_38_1,38,1.0,215.416113629,1_I,training,03,1_B,46.0,11101,kill,1.0,3400.0,3.33369746357
46,1_38_1,38,1.0,220.963213117,1_I,training,03,1_B,47.0,01100,kill,1.0,3500.0,3.51393776388
47,1_38_1,38,1.0,226.479127511,1_I,training,03,1_B,48.0,00110,ignore,1.0,3600.0,3.47917048864
48,1_38_1,38,1.0,235.698278538,1_I,training,03,1_B,49.0,10001,ignore,0.0,3500.0,7.17480496688
49,1_38_1,38,1.0,239.276598078,1_I,training,03,1_B,50.0,10000,kill,1.0,3600.0,1.53444205967
50,1_38_1,38,1.0,242.870522192,1_I,training,03,1_B,51.0,01110,ignore,1.0,3700.0,1.55674915296
51,1_38_1,38,1.0,246.745713505,1_I,training,03,1_B,52.0,10100,kill,1.0,3800.0,1.85049673951
52,1_38_1,38,1.0,250.592792915,1_I,training,03,1_B,53.0,00011,ignore,1.0,3900.0,1.82793017936
53,1_38_1,38,1.0,254.546111974,1_I,training,03,1_B,54.0,10110,ignore,1.0,4000.0,1.93603869488
54,1_38_1,38,1.0,261.81206678,1_I,training,03,1_B,55.0,01000,ignore,1.0,4100.0,5.22123061054
55,1_38_1,38,1.0,265.452856573,1_I,training,03,1_B,56.0,11000,kill,0.0,4000.0,1.59728595749
56,1_38_1,38,1.0,269.359324706,1_I,training,03,1_B,57.0,01111,ignore,1.0,4100.0,1.88177035291
57,1_38_1,38,1.0,276.250237337,1_I,training,03,1_B,58.0,11001,kill,0.0,4000.0,4.81647515084
58,1_38_1,38,1.0,279.766003877,1_I,training,03,1_B,59.0,10111,ignore,1.0,4100.0,1.48866845076
59,1_38_1,38,1.0,284.12562333,1_I,training,03,1_B,60.0,00101,kill,1.0,4200.0,2.34534685169
60,1_38_1,38,1.0,287.563314723,1_I,training,03,1_B,61.0,10010,ignore,1.0,4300.0,1.42360545387
61,1_38_1,38,1.0,292.907269626,1_I,training,03,1_B,62.0,00100,kill,1.0,4400.0,3.31475862848
62,1_38_1,38,1.0,297.048120677,1_I,training,03,1_B,63.0,01001,ignore,1.0,4500.0,2.11286936341
63,1_38_1,38,1.0,301.61083853,1_I,training,03,1_B,64.0,01101,kill,1.0,4600.0,2.56097214436
64,1_38_1,38,1.0,305.095373793,1_I,training,03,1_B,65.0,00001,ignore,0.0,4500.0,1.46162777123
65,1_38_1,38,1.0,308.845561738,1_I,training,03,1_B,66.0,10100,kill,1.0,4600.0,1.70273533868
66,1_38_1,38,1.0,312.76760558,1_I,training,03,1_B,67.0,11101,kill,1.0,4700.0,1.91991775318
67,1_38_1,38,1.0,320.518340041,1_I,training,03,1_B,68.0,01101,kill,1.0,4800.0,5.71926392237
68,1_38_1,38,1.0,324.462397833,1_I,training,03,1_B,69.0,01001,ignore,1.0,4900.0,1.92263718388
69,1_38_1,38,1.0,328.337608389,1_I,training,03,1_B,70.0,01000,ignore,1.0,5000.0,1.85040340841
70,1_38_1,38,1.0,333.712844603,1_I,training,03,1_B,71.0,11100,kill,1.0,5100.0,3.33974185454
71,1_38_1,38,1.0,338.291199102,1_I,training,03,1_B,72.0,10011,ignore,1.0,5200.0,2.56913011573
72,1_38_1,38,1.0,343.088270687,1_I,training,03,1_B,73.0,11001,ignore,1.0,5300.0,2.74072365914
73,1_38_1,38,1.0,346.369702418,1_I,training,03,1_B,74.0,00010,ignore,1.0,5400.0,1.2579841382
74,1_38_1,38,1.0,350.07300961,1_I,training,03,1_B,75.0,11110,ignore,1.0,5500.0,1.70148290598
75,1_38_1,38,1.0,354.401323377,1_I,training,03,1_B,76.0,10101,kill,1.0,5600.0,2.28426983013
76,1_38_1,38,1.0,358.089015732,1_I,training,03,1_B,77.0,01110,ignore,1.0,5700.0,1.71005236804
77,1_38_1,38,1.0,361.167279466,1_I,training,03,1_B,78.0,00110,ignore,1.0,5800.0,1.03763295672
78,1_38_1,38,1.0,365.714351371,1_I,training,03,1_B,79.0,00101,kill,1.0,5900.0,2.51176452854
79,1_38_1,38,1.0,369.058270995,1_I,training,03,1_B,80.0,11011,ignore,1.0,6000.0,1.3359172041
80,1_38_1,38,1.0,373.527255566,1_I,training,03,1_B,81.0,11000,ignore,1.0,6100.0,2.46310407026
81,1_38_1,38,1.0,377.230551212,1_I,training,03,1_B,82.0,10010,ignore,1.0,6200.0,1.70559300203
82,1_38_1,38,1.0,380.558819115,1_I,training,03,1_B,83.0,10111,ignore,1.0,6300.0,1.30519972854
83,1_38_1,38,1.0,384.277760387,1_I,training,03,1_B,84.0,00011,ignore,1.0,6400.0,1.69761816486
84,1_38_1,38,1.0,387.152878895,1_I,training,03,1_B,85.0,11010,ignore,1.0,6500.0,0.900152729437
85,1_38_1,38,1.0,391.418704449,1_I,training,03,1_B,86.0,00111,ignore,1.0,6600.0,2.24418973858
86,1_38_1,38,1.0,396.028313639,1_I,training,03,1_B,87.0,01100,kill,1.0,6700.0,2.58261020446
87,1_38_1,38,1.0,399.559711373,1_I,training,03,1_B,88.0,01111,ignore,1.0,6800.0,1.51491629708
88,1_38_1,38,1.0,403.638021932,1_I,training,03,1_B,89.0,00000,kill,1.0,6900.0,2.04180270769
89,1_38_1,38,1.0,407.031943609,1_I,training,03,1_B,90.0,01011,ignore,1.0,7000.0,1.39659716761
90,1_38_1,38,1.0,410.019582531,1_I,training,03,1_B,91.0,11111,ignore,1.0,7100.0,0.968971100076
91,1_38_1,38,1.0,413.738536953,1_I,training,03,1_B,92.0,00100,kill,1.0,7200.0,1.68726065867
92,1_38_1,38,1.0,417.519960025,1_I,training,03,1_B,93.0,10001,kill,1.0,7300.0,1.77606086342
93,1_38_1,38,1.0,420.848234022,1_I,training,03,1_B,94.0,10110,ignore,1.0,7400.0,1.3017564206
94,1_38_1,38,1.0,424.192196943,1_I,training,03,1_B,95.0,01010,ignore,1.0,7500.0,1.35913515753
95,1_38_1,38,1.0,427.817341751,1_I,training,03,1_B,96.0,10000,kill,1.0,7600.0,1.58882971149
96,1_38_1,38,1.0,431.45814309,1_I,training,03,1_B,97.0,00001,kill,1.0,7700.0,1.60118180897
97,1_38_1,38,1.0,434.989565199,1_I,training,03,1_B,98.0,11001,ignore,1.0,7800.0,1.52540337634
98,1_38_1,38,1.0,438.692848978,1_I,training,03,1_B,99.0,10000,kill,1.0,7900.0,1.69347984497
99,1_38_1,38,1.0,441.67734864,1_I,training,03,1_B,100.0,01110,ignore,1.0,8000.0,1.00756527083
100,1_38_1,38,1.0,444.786880535,1_I,training,03,1_B,101.0,00111,ignore,1.0,8100.0,1.08450986102
101,1_38_1,38,1.0,448.740195745,1_I,training,03,1_B,102.0,01010,ignore,1.0,8200.0,1.93377341135
102,1_38_1,38,1.0,452.462291352,1_I,training,03,1_B,103.0,00000,kill,1.0,8300.0,1.72453793091
103,1_38_1,38,1.0,455.72806591,1_I,training,03,1_B,104.0,11110,ignore,1.0,8400.0,1.27735114172
104,1_38_1,38,1.0,459.681361236,1_I,training,03,1_B,105.0,01111,ignore,1.0,8500.0,1.94329735222
105,1_38_1,38,1.0,464.087841877,1_I,training,03,1_B,106.0,00011,ignore,1.0,8600.0,2.38227164672
106,1_38_1,38,1.0,468.247401804,1_I,training,03,1_B,107.0,11100,kill,1.0,8700.0,2.17049986979
107,1_38_1,38,1.0,472.153863202,1_I,training,03,1_B,108.0,11101,kill,1.0,8800.0,1.9138037648
108,1_38_1,38,1.0,475.85716013,1_I,training,03,1_B,109.0,01011,ignore,1.0,8900.0,1.68130446719
109,1_38_1,38,1.0,479.204197847,1_I,training,03,1_B,110.0,00110,ignore,1.0,9000.0,1.33002836495
110,1_38_1,38,1.0,482.673110895,1_I,training,03,1_B,111.0,11011,ignore,1.0,9100.0,1.48256472559
111,1_38_1,38,1.0,485.6576561,1_I,training,03,1_B,112.0,11111,ignore,1.0,9200.0,0.980375453986
112,1_38_1,38,1.0,489.001558725,1_I,training,03,1_B,113.0,01000,ignore,1.0,9300.0,1.36396496139
113,1_38_1,38,1.0,493.454900235,1_I,training,03,1_B,114.0,10101,kill,1.0,9400.0,2.44190444179
114,1_38_1,38,1.0,497.220702376,1_I,training,03,1_B,115.0,10011,ignore,1.0,9500.0,1.75618935884
115,1_38_1,38,1.0,501.330244213,1_I,training,03,1_B,116.0,10100,kill,1.0,9600.0,2.099303641
116,1_38_1,38,1.0,504.45541083,1_I,training,03,1_B,117.0,11010,ignore,1.0,9700.0,1.13951715432
117,1_38_1,38,1.0,508.83060535,1_I,training,03,1_B,118.0,01100,kill,1.0,9800.0,2.38826119364
118,1_38_1,38,1.0,512.518314062,1_I,training,03,1_B,119.0,11000,ignore,1.0,9900.0,1.69810117732
119,1_38_1,38,1.0,515.799725267,1_I,training,03,1_B,120.0,00010,ignore,1.0,10000.0,1.27443382345
120,1_38_1,38,1.0,519.393631099,1_I,training,03,1_B,121.0,00101,kill,1.0,10100.0,1.58901829803
121,1_38_1,38,1.0,522.987557458,1_I,training,03,1_B,122.0,01101,kill,1.0,10200.0,1.59419865475
122,1_38_1,38,1.0,526.034618779,1_I,training,03,1_B,123.0,10110,ignore,1.0,10300.0,1.05644478456
123,1_38_1,38,1.0,529.22223833,1_I,training,03,1_B,124.0,10111,ignore,1.0,10400.0,1.16305936114
124,1_38_1,38,1.0,532.706791232,1_I,training,03,1_B,125.0,10001,ignore,0.0,10300.0,1.47332558888
125,1_38_1,38,1.0,536.738222322,1_I,training,03,1_B,126.0,00100,kill,1.0,10400.0,2.02698262823
126,1_38_1,38,1.0,540.269633847,1_I,training,03,1_B,127.0,10010,ignore,1.0,10500.0,1.5515190838
127,1_38_1,38,1.0,543.597939275,1_I,training,03,1_B,128.0,01001,ignore,1.0,10600.0,1.3267476648
128,1_38_1,38,1.0,547.832481594,1_I,training,03,1_B,129.0,11100,kill,1.0,10700.0,2.23119586957
129,1_38_1,38,1.0,551.1295365,1_I,training,03,1_B,130.0,00110,ignore,1.0,10800.0,1.2817065927
130,1_38_1,38,1.0,554.739069999,1_I,training,03,1_B,131.0,10001,kill,1.0,10900.0,1.62827316311
131,1_38_1,38,1.0,558.473626429,1_I,training,03,1_B,132.0,01110,ignore,1.0,11000.0,1.72810856683
132,1_38_1,38,1.0,561.614406921,1_I,training,03,1_B,133.0,01011,ignore,1.0,11100.0,1.14447877632
133,1_38_1,38,1.0,565.427059666,1_I,training,03,1_B,134.0,00000,kill,1.0,11200.0,1.82428641805
134,1_38_1,38,1.0,568.77101906,1_I,training,03,1_B,135.0,01001,ignore,1.0,11300.0,1.33242193864
135,1_38_1,38,1.0,573.036849745,1_I,training,03,1_B,136.0,00101,kill,1.0,11400.0,2.26851066668
136,1_38_1,38,1.0,576.521367368,1_I,training,03,1_B,137.0,01111,ignore,1.0,11500.0,1.47761336681
137,1_38_1,38,1.0,579.618387765,1_I,training,03,1_B,138.0,01010,ignore,1.0,11600.0,1.09597419059
138,1_38_1,38,1.0,585.41551708,1_I,training,03,1_B,139.0,11000,ignore,1.0,11700.0,3.82693015755
139,1_38_1,38,1.0,591.368971164,1_I,training,03,1_B,140.0,10010,ignore,1.0,11800.0,3.94049292929
140,1_38_1,38,1.0,595.291006988,1_I,training,03,1_B,141.0,11110,ignore,1.0,11900.0,1.94782439129
141,1_38_1,38,1.0,598.384920197,1_I,training,03,1_B,142.0,01000,ignore,1.0,12000.0,1.11504933398
142,1_38_1,38,1.0,602.69758962,1_I,training,03,1_B,143.0,01100,kill,1.0,12100.0,2.29996548995
143,1_38_1,38,1.0,605.916518705,1_I,training,03,1_B,144.0,10110,ignore,1.0,12200.0,1.23710299006
144,1_38_1,38,1.0,608.588516683,1_I,training,03,1_B,145.0,10111,ignore,1.0,12300.0,0.673121479236
145,1_38_1,38,1.0,611.838678971,1_I,training,03,1_B,146.0,11001,ignore,1.0,12400.0,1.24362622405
146,1_38_1,38,1.0,615.276347913,1_I,training,03,1_B,147.0,00010,ignore,1.0,12500.0,1.42296400306
147,1_38_1,38,1.0,619.667159835,1_I,training,03,1_B,148.0,10101,kill,1.0,12600.0,2.38649688319
148,1_38_1,38,1.0,622.62041956,1_I,training,03,1_B,149.0,00011,ignore,1.0,12700.0,0.98490826612
149,1_38_1,38,1.0,625.558089464,1_I,training,03,1_B,150.0,11111,ignore,1.0,12800.0,0.935248427482
150,1_38_1,38,1.0,629.933292965,1_I,training,03,1_B,151.0,11101,kill,1.0,12900.0,2.37547996557
151,1_38_1,38,1.0,634.386613948,1_I,training,03,1_B,152.0,00001,kill,1.0,13000.0,2.45308364647
152,1_38_1,38,1.0,637.418008796,1_I,training,03,1_B,153.0,10011,ignore,1.0,13100.0,1.03145193673
153,1_38_1,38,1.0,641.574449026,1_I,training,03,1_B,154.0,10100,kill,1.0,13200.0,2.16429415394
154,1_38_1,38,1.0,647.512248824,1_I,training,03,1_B,155.0,00100,kill,1.0,13300.0,3.91270463884
155,1_38_1,38,1.0,651.622575797,1_I,training,03,1_B,156.0,01101,kill,1.0,13400.0,2.11212912918
156,1_38_1,38,1.0,654.767331039,1_I,training,03,1_B,157.0,11011,ignore,1.0,13500.0,1.16904954951
157,1_38_1,38,1.0,658.658116983,1_I,training,03,1_B,158.0,10000,kill,1.0,13600.0,1.88774161848
158,1_38_1,38,1.0,662.173943178,1_I,training,03,1_B,159.0,11010,ignore,1.0,13700.0,1.54675406648
159,1_38_1,38,1.0,666.174114445,1_I,training,03,1_B,160.0,00111,ignore,1.0,13800.0,2.02660866241
160,1_38_1,38,1.0,670.03364634,1_I,training,03,1_B,161.0,10000,kill,1.0,13900.0,1.86250084992
161,1_38_1,38,1.0,673.549481836,1_I,training,03,1_B,162.0,11000,ignore,1.0,14000.0,1.55456212644
162,1_38_1,38,1.0,677.440262328,1_I,training,03,1_B,163.0,01011,ignore,1.0,14100.0,1.90645754943
163,1_38_1,38,1.0,681.618353447,1_I,training,03,1_B,164.0,01101,ignore,0.0,14000.0,2.1538590322
164,1_38_1,38,1.0,684.852859844,1_I,training,03,1_B,165.0,00111,ignore,1.0,14100.0,1.24035418348
165,1_38_1,38,1.0,687.68115116,1_I,training,03,1_B,166.0,10011,ignore,1.0,14200.0,0.820366832888
166,1_38_1,38,1.0,690.493781455,1_I,training,03,1_B,167.0,01010,ignore,1.0,14300.0,0.850794693406
167,1_38_1,38,1.0,693.431392987,1_I,training,03,1_B,168.0,00011,ignore,1.0,14400.0,0.951016250516
168,1_38_1,38,1.0,696.915914138,1_I,training,03,1_B,169.0,11001,ignore,1.0,14500.0,1.49448191943
169,1_38_1,38,1.0,699.869184126,1_I,training,03,1_B,170.0,10110,ignore,1.0,14600.0,0.952304283737
170,1_38_1,38,1.0,702.697479291,1_I,training,03,1_B,171.0,11011,ignore,1.0,14700.0,0.840552969083
171,1_38_1,38,1.0,706.338273253,1_I,training,03,1_B,172.0,01001,ignore,1.0,14800.0,1.6775952779
172,1_38_1,38,1.0,710.025924555,1_I,training,03,1_B,173.0,00000,kill,1.0,14900.0,1.67918896243
173,1_38_1,38,1.0,713.838605845,1_I,training,03,1_B,174.0,10100,kill,1.0,15000.0,1.80167880506
174,1_38_1,38,1.0,719.40137758,1_I,training,03,1_B,175.0,00100,kill,1.0,15100.0,3.57428064499
175,1_38_1,38,1.0,723.104689583,1_I,training,03,1_B,176.0,11101,kill,1.0,15200.0,1.70713440832
176,1_38_1,38,1.0,726.323583709,1_I,training,03,1_B,177.0,11111,ignore,1.0,15300.0,1.26118401556
177,1_38_1,38,1.0,729.526878713,1_I,training,03,1_B,178.0,01110,ignore,1.0,15400.0,1.20874990218
178,1_38_1,38,1.0,733.370818543,1_I,training,03,1_B,179.0,00001,kill,1.0,15500.0,1.84603865639
179,1_38_1,38,1.0,737.199086125,1_I,training,03,1_B,180.0,01111,ignore,1.0,15600.0,1.85052368044
180,1_38_1,38,1.0,741.793086571,1_I,training,03,1_B,181.0,01100,kill,1.0,15700.0,2.59750854092
181,1_38_1,38,1.0,745.621417978,1_I,training,03,1_B,182.0,11100,kill,1.0,15800.0,1.8750662298
182,1_38_1,38,1.0,749.0747117,1_I,training,03,1_B,183.0,00110,ignore,1.0,15900.0,1.46986624468
183,1_38_1,38,1.0,752.402997243,1_I,training,03,1_B,184.0,00010,ignore,1.0,16000.0,1.34506012319
184,1_38_1,38,1.0,756.668818948,1_I,training,03,1_B,185.0,10101,kill,1.0,16100.0,2.28175566369
185,1_38_1,38,1.0,759.731435131,1_I,training,03,1_B,186.0,10010,ignore,1.0,16200.0,1.08335781537
186,1_38_1,38,1.0,763.841035982,1_I,training,03,1_B,187.0,10001,kill,1.0,16300.0,2.12628049618
187,1_38_1,38,1.0,766.88800333,1_I,training,03,1_B,188.0,11110,ignore,1.0,16400.0,1.07959378203
188,1_38_1,38,1.0,770.624099243,1_I,training,03,1_B,189.0,01000,ignore,1.0,16500.0,1.75441542664
189,1_38_1,38,1.0,774.343039874,1_I,training,03,1_B,190.0,10111,ignore,1.0,16600.0,1.77145011501
190,1_38_1,38,1.0,777.34319286,1_I,training,03,1_B,191.0,11010,ignore,1.0,16700.0,1.00211678767
191,1_38_1,38,1.0,781.624621384,1_I,training,03,1_B,192.0,00101,kill,1.0,16800.0,2.27907183351
192,1_38_1,38,1.0,784.843531867,1_I,training,03,1_B,193.0,01011,ignore,1.0,16900.0,1.25807041334
193,1_38_1,38,1.0,787.734322622,1_I,training,03,1_B,194.0,01010,ignore,1.0,17000.0,0.902153735233
194,1_38_1,38,1.0,792.422049294,1_I,training,03,1_B,195.0,01100,kill,1.0,17100.0,2.72119116132
195,1_38_1,38,1.0,795.224797718,1_I,training,03,1_B,196.0,10010,ignore,1.0,17200.0,0.799933417407
196,1_38_1,38,1.0,798.599938036,1_I,training,03,1_B,197.0,11001,ignore,1.0,17300.0,1.40692612924
197,1_38_1,38,1.0,802.209490457,1_I,training,03,1_B,198.0,00101,kill,1.0,17400.0,1.62936908181
198,1_38_1,38,1.0,805.537777283,1_I,training,03,1_B,199.0,00001,kill,1.0,17500.0,1.35405550859
199,1_38_1,38,1.0,809.334794344,1_I,training,03,1_B,200.0,11111,ignore,1.0,17600.0,1.84310530185
200,1_38_1,38,1.0,812.694366971,1_I,training,03,1_B,201.0,01101,kill,1.0,17700.0,1.39141520726
201,1_38_1,38,1.0,816.257039602,1_I,training,03,1_B,202.0,00011,ignore,1.0,17800.0,1.57365587191
202,1_38_1,38,1.0,819.693297031,1_I,training,03,1_B,203.0,11000,ignore,1.0,17900.0,1.49432572615
203,1_38_1,38,1.0,823.646614808,1_I,training,03,1_B,204.0,11101,kill,1.0,18000.0,1.98539641018
204,1_38_1,38,1.0,826.709239329,1_I,training,03,1_B,205.0,01110,ignore,1.0,18100.0,1.08725687411
205,1_38_1,38,1.0,829.662517014,1_I,training,03,1_B,206.0,11110,ignore,1.0,18200.0,0.986775529422
206,1_38_1,38,1.0,833.522082586,1_I,training,03,1_B,207.0,01111,ignore,1.0,18300.0,1.86601054802
207,1_38_1,38,1.0,838.037937646,1_I,training,03,1_B,208.0,00000,kill,1.0,18400.0,2.54939652308
208,1_38_1,38,1.0,841.616234735,1_I,training,03,1_B,209.0,10000,kill,1.0,18500.0,1.62096992494
209,1_38_1,38,1.0,905.072365594,1_I,test,03,2,0.0,10001,kill,1.0,100.0,2.95870884933
210,1_38_1,38,1.0,909.353796683,1_I,test,03,2,1.0,10110,ignore,1.0,200.0,2.32592372124
211,1_38_1,38,1.0,912.80711029,1_I,test,03,2,2.0,10101,kill,0.0,100.0,1.45346563042
212,1_38_1,38,1.0,917.432352598,1_I,test,03,2,3.0,00100,ignore,1.0,200.0,2.65016074757
213,1_38_1,38,1.0,921.479410391,1_I,test,03,2,4.0,11010,ignore,1.0,300.0,2.06904159552
214,1_38_1,38,1.0,925.901480853,1_I,test,03,2,5.0,11100,kill,0.0,200.0,2.46442481748
215,1_38_1,38,1.0,929.751725823,1_I,test,03,2,6.0,00111,ignore,0.0,100.0,1.88398881053
216,1_38_1,38,1.0,932.861202874,1_I,test,03,2,7.0,01001,ignore,0.0,0.0,1.14295372702
217,1_38_1,38,1.0,939.658410446,1_I,test,03,2,8.0,00110,kill,0.0,0.0,4.84093912247
218,1_38_1,38,1.0,944.314894295,1_I,test,03,2,9.0,10100,kill,0.0,0.0,2.65720355672
219,1_38_1,38,1.0,948.705715198,1_I,test,03,2,10.0,10111,ignore,0.0,0.0,2.41200481601
220,1_38_1,38,1.0,955.065387571,1_I,test,03,2,11.0,00010,kill,0.0,0.0,4.338321041
221,1_38_1,38,1.0,959.034341993,1_I,test,03,2,12.0,10011,ignore,0.0,0.0,1.99773471647
222,1_38_1,38,1.0,964.862760958,1_I,test,03,2,13.0,11011,kill,1.0,100.0,3.88564920595
223,1_38_1,38,1.0,969.425439682,1_I,test,03,2,14.0,01000,ignore,1.0,200.0,2.60684678178
224,1_38_1,38,1.0,972.659990019,1_I,test,03,2,15.0,10011,kill,1.0,300.0,1.25986038182
225,1_38_1,38,1.0,976.675787349,1_I,test,03,2,16.0,01000,ignore,1.0,400.0,2.08983454418
226,1_38_1,38,1.0,980.222881705,1_I,test,03,2,17.0,11010,kill,0.0,300.0,1.60570339571
227,1_38_1,38,1.0,985.035571013,1_I,test,03,2,18.0,10000,ignore,1.0,400.0,2.83558461185
228,1_38_1,38,1.0,990.020140914,1_I,test,03,2,19.0,10101,ignore,1.0,500.0,3.01557763287
229,1_38_1,38,1.0,995.036074873,1_I,test,03,2,20.0,01100,ignore,1.0,600.0,3.0439769052
230,1_38_1,38,1.0,999.051854563,1_I,test,03,2,21.0,00101,ignore,1.0,700.0,2.08065602457
231,1_38_1,38,1.0,1002.77079584,1_I,test,03,2,22.0,10010,kill,0.0,600.0,1.73118432346
232,1_38_1,38,1.0,1006.17720367,1_I,test,03,2,23.0,11101,ignore,1.0,700.0,1.42773639707
233,1_38_1,38,1.0,1010.66804055,1_I,test,03,2,24.0,00110,kill,0.0,600.0,2.55396942589
234,1_38_1,38,1.0,1013.68379426,1_I,test,03,2,25.0,10001,ignore,0.0,500.0,1.04171514966
235,1_38_1,38,1.0,1017.73090112,1_I,test,03,2,26.0,11100,ignore,1.0,600.0,2.12853968592
236,1_38_1,38,1.0,1022.76234761,1_I,test,03,2,27.0,01011,ignore,0.0,500.0,3.03234515698
237,1_38_1,38,1.0,1026.51255704,1_I,test,03,2,28.0,10110,ignore,1.0,600.0,1.76453463385
238,1_38_1,38,1.0,1029.88164078,1_I,test,03,2,29.0,00111,kill,1.0,700.0,1.40341611042
239,1_38_1,38,1.0,1033.19428358,1_I,test,03,2,30.0,00100,ignore,1.0,800.0,1.32097621115
240,1_38_1,38,1.0,1036.46006744,1_I,test,03,2,31.0,00001,kill,1.0,900.0,1.32384830715
241,1_38_1,38,1.0,1039.8039489,1_I,test,03,2,32.0,01111,kill,1.0,1000.0,1.38249647523
242,1_38_1,38,1.0,1042.63223989,1_I,test,03,2,33.0,11011,kill,1.0,1100.0,0.8775508895
243,1_38_1,38,1.0,1047.10118245,1_I,test,03,2,34.0,11110,ignore,1.0,1200.0,2.56376245537
244,1_38_1,38,1.0,1050.27320994,1_I,test,03,2,35.0,01010,ignore,1.0,1300.0,1.24492965209
245,1_38_1,38,1.0,1053.5077298,1_I,test,03,2,36.0,00010,ignore,1.0,1400.0,1.26649554897
246,1_38_1,38,1.0,1056.94228033,1_I,test,03,2,37.0,11111,kill,1.0,1500.0,1.48692947761
247,1_38_1,38,1.0,1060.39556058,1_I,test,03,3,0.0,11000,ignore,0.0,1400.0,1.49021627155
248,1_38_1,38,1.0,1063.73945904,1_I,test,03,3,1.0,01101,ignore,1.0,1500.0,1.40655921938
249,1_38_1,38,1.0,1067.5052769,1_I,test,03,3,2.0,00011,ignore,1.0,1600.0,1.76368920169
250,1_38_1,38,1.0,1070.73980638,1_I,test,03,3,3.0,01001,ignore,1.0,1700.0,1.25867113202
251,1_38_1,38,1.0,1074.11495697,1_I,test,03,3,4.0,01110,kill,0.0,1600.0,1.43255850352
252,1_38_1,38,1.0,1078.36517987,1_I,test,03,3,5.0,00000,ignore,1.0,1700.0,2.26914249573
253,1_38_1,38,1.0,1083.59980686,1_I,test,03,3,6.0,10100,ignore,0.0,1600.0,3.30565323426
254,1_38_1,38,1.0,1086.97492601,1_I,test,03,3,7.0,11001,kill,1.0,1700.0,1.36914082796
255,1_38_1,38,1.0,1090.00633304,1_I,test,03,3,8.0,10111,kill,0.0,1600.0,1.04859663392
256,1_38_1,38,1.0,1093.92843846,1_I,test,03,3,9.0,00100,ignore,1.0,1700.0,1.95720336428
257,1_38_1,38,1.0,1099.45992664,1_I,test,03,3,10.0,01101,ignore,1.0,1800.0,3.56542509587
258,1_38_1,38,1.0,1103.06946399,1_I,test,03,3,11.0,01011,ignore,1.0,1900.0,1.69368382633
259,1_38_1,38,1.0,1106.92902635,1_I,test,03,3,12.0,10000,kill,1.0,2000.0,1.89719981064
260,1_38_1,38,1.0,1110.66357669,1_I,test,03,3,13.0,01000,ignore,1.0,2100.0,1.77131637252
261,1_38_1,38,1.0,1114.61689286,1_I,test,03,3,14.0,10101,ignore,1.0,2200.0,2.00347377685
262,1_38_1,38,1.0,1118.13267736,1_I,test,03,3,15.0,11100,ignore,0.0,2100.0,1.55350469478
263,1_38_1,38,1.0,1121.64850324,1_I,test,03,3,16.0,10110,kill,1.0,2200.0,1.57883270065
264,1_38_1,38,1.0,1124.72674035,1_I,test,03,3,17.0,01100,ignore,1.0,2300.0,1.11517858632
265,1_38_1,38,1.0,1128.97693824,1_I,test,03,3,18.0,01111,ignore,1.0,2400.0,2.28513739235
266,1_38_1,38,1.0,1133.32092297,1_I,test,03,3,19.0,11101,ignore,0.0,2300.0,2.42508431871
267,1_38_1,38,1.0,1137.4148349,1_I,test,03,3,20.0,11111,kill,1.0,2400.0,2.1200706109
268,1_38_1,38,1.0,1141.44626118,1_I,test,03,3,21.0,01110,ignore,1.0,2500.0,2.09596136157
269,1_38_1,38,1.0,1145.35272514,1_I,test,03,3,22.0,11000,ignore,0.0,2400.0,1.97194326239
270,1_38_1,38,1.0,1148.57163658,1_I,test,03,3,23.0,10001,kill,0.0,2300.0,1.25150965448
271,1_38_1,38,1.0,1154.29065579,1_I,test,03,3,24.0,01010,ignore,1.0,2400.0,3.81022068474
272,1_38_1,38,1.0,1157.69708993,1_I,test,03,3,25.0,00011,ignore,1.0,2500.0,1.41413250834
273,1_38_1,38,1.0,1161.63476946,1_I,test,03,3,26.0,10010,kill,1.0,2600.0,1.97976767935
274,1_38_1,38,1.0,1164.6349032,1_I,test,03,3,27.0,10111,kill,0.0,2500.0,1.05196681647
275,1_38_1,38,1.0,1168.48224304,1_I,test,03,3,28.0,00110,ignore,1.0,2600.0,1.8886887206
276,1_38_1,38,1.0,1172.02926138,1_I,test,03,3,29.0,11110,ignore,0.0,2500.0,1.64653045673
277,1_38_1,38,1.0,1175.48254933,1_I,test,03,3,30.0,00000,ignore,1.0,2600.0,1.45792307209
278,1_38_1,38,1.0,1180.92032411,1_I,test,03,3,31.0,11010,kill,1.0,2700.0,3.4872171683
279,1_38_1,38,1.0,1184.7955042,1_I,test,03,3,32.0,00111,ignore,1.0,2800.0,1.96194144067
280,1_38_1,38,1.0,1188.49878926,1_I,test,03,3,33.0,11001,kill,1.0,2900.0,1.75488496863
281,1_38_1,38,1.0,1192.88963582,1_I,test,03,3,34.0,01001,ignore,1.0,3000.0,2.47705851186
282,1_38_1,38,1.0,1196.71802721,1_I,test,03,3,35.0,00010,ignore,1.0,3100.0,1.87263288616
283,1_38_1,38,1.0,1200.93694859,1_I,test,03,3,36.0,11011,kill,1.0,3200.0,2.27680141838
284,1_38_1,38,1.0,1203.79648273,1_I,test,03,3,37.0,10011,kill,0.0,3100.0,0.954105477605
285,1_38_1,38,1.0,1207.76542593,1_I,test,03,3,38.0,00001,ignore,1.0,3200.0,2.03627276028
286,1_38_1,38,1.0,1212.56249719,1_I,test,03,3,39.0,10100,kill,1.0,3300.0,2.83363524285
287,1_38_1,38,1.0,1216.71894063,1_I,test,03,3,40.0,00101,kill,0.0,3200.0,2.19851779962
288,1_38_1,38,1.0,1220.20271642,1_I,test,03,3,41.0,10100,kill,1.0,3300.0,1.51657957903
289,1_38_1,38,1.0,1223.32783492,1_I,test,03,3,42.0,10110,kill,1.0,3400.0,1.22428102986
290,1_38_1,38,1.0,1226.54674028,1_I,test,03,3,43.0,10010,ignore,0.0,3300.0,1.2375138393
291,1_38_1,38,1.0,1231.20323888,1_I,test,03,3,44.0,11001,ignore,0.0,3200.0,2.70744422906
292,1_38_1,38,1.0,1235.37529843,1_I,test,03,3,45.0,11101,kill,1.0,3300.0,2.25511300439
293,1_38_1,38,1.0,1250.18857371,1_I,test,03,3,46.0,10011,ignore,1.0,3400.0,12.8673075616
294,1_38_1,38,1.0,1253.39180328,1_I,test,03,3,47.0,11011,kill,1.0,3500.0,1.2972531152
295,1_38_1,38,1.0,1257.4857444,1_I,test,03,3,48.0,01000,ignore,1.0,3600.0,2.10710047557
296,1_38_1,38,1.0,1261.04840227,1_I,test,03,3,49.0,10000,ignore,0.0,3500.0,1.61325744115
297,1_38_1,38,1.0,1265.22043553,1_I,test,03,3,50.0,01010,ignore,1.0,3600.0,2.25364536494
298,1_38_1,38,1.0,1269.70507888,1_I,test,03,3,51.0,11100,kill,1.0,3700.0,2.53816664379
299,1_38_1,38,1.0,1273.72090283,1_I,test,03,3,52.0,00111,ignore,1.0,3800.0,2.10848665077
300,1_38_1,38,1.0,1278.47110136,1_I,test,03,3,53.0,11000,kill,1.0,3900.0,2.84927509644
301,1_38_1,38,1.0,1283.00258697,1_I,test,03,3,54.0,01101,ignore,1.0,4000.0,2.57318632991
302,1_38_1,38,1.0,1286.58624499,1_I,test,03,3,55.0,00011,ignore,1.0,4100.0,1.71068002766
303,1_38_1,38,1.0,1291.02396268,1_I,test,03,3,56.0,10001,kill,0.0,4000.0,2.54036778223
304,1_38_1,38,1.0,1295.11791341,1_I,test,03,3,57.0,01100,ignore,1.0,4100.0,2.19938696546
305,1_38_1,38,1.0,1298.64932365,1_I,test,03,3,58.0,01001,ignore,1.0,4200.0,1.60728168542
306,1_38_1,38,1.0,1302.01199353,1_I,test,03,3,59.0,00101,ignore,1.0,4300.0,1.41368220988
307,1_38_1,38,1.0,1305.44967818,1_I,test,03,3,60.0,01011,ignore,1.0,4400.0,1.55164705324
308,1_38_1,38,1.0,1308.60605684,1_I,test,03,3,61.0,00001,ignore,1.0,4500.0,1.23432069718
309,1_38_1,38,1.0,1312.1218593,1_I,test,03,3,62.0,01111,ignore,1.0,4600.0,1.56822374574
310,1_38_1,38,1.0,1315.57517226,1_I,test,03,3,63.0,01110,ignore,1.0,4700.0,1.5460763737
311,1_38_1,38,1.0,1319.7316436,1_I,test,03,3,64.0,11110,kill,1.0,4800.0,2.2203765188
312,1_38_1,38,1.0,1323.15367237,1_I,test,03,3,65.0,00110,ignore,1.0,4900.0,1.52426095245
313,1_38_1,38,1.0,1327.37258638,1_I,test,03,3,66.0,00000,ignore,1.0,5000.0,2.23754815692
314,1_38_1,38,1.0,1330.85715532,1_I,test,03,4,0.0,00100,ignore,1.0,5100.0,1.52995639418
315,1_38_1,38,1.0,1334.76357663,1_I,test,03,4,1.0,10111,kill,0.0,5000.0,1.98987245392
316,1_38_1,38,1.0,1338.60751485,1_I,test,03,4,2.0,10101,ignore,1.0,5100.0,1.89259675965
317,1_38_1,38,1.0,1342.29519117,1_I,test,03,4,3.0,00010,ignore,0.0,5000.0,1.80277728956
318,1_38_1,38,1.0,1346.21724496,1_I,test,03,4,4.0,11111,ignore,1.0,5100.0,1.95303489621
319,1_38_1,38,1.0,1349.68614197,1_I,test,03,4,5.0,11010,ignore,0.0,5000.0,1.5303165688
320,1_38_1,38,1.0,1353.15507362,1_I,test,03,4,6.0,10000,ignore,1.0,5100.0,1.54965278268
321,1_38_1,38,1.0,1356.45213687,1_I,test,03,4,7.0,10010,kill,1.0,5200.0,1.35856843575
322,1_38_1,38,1.0,1359.78082556,1_I,test,03,4,8.0,01000,ignore,1.0,5300.0,1.44267322058
323,1_38_1,38,1.0,1363.20290244,1_I,test,03,4,9.0,11101,ignore,1.0,5400.0,1.49792779317
324,1_38_1,38,1.0,1366.59367363,1_I,test,03,4,10.0,11010,kill,1.0,5500.0,1.47756429582
325,1_38_1,38,1.0,1369.90630071,1_I,test,03,4,11.0,01111,kill,1.0,5600.0,1.42077986306
326,1_38_1,38,1.0,1373.14081802,1_I,test,03,4,12.0,00011,kill,1.0,5700.0,1.3247819388
327,1_38_1,38,1.0,1376.45345088,1_I,test,03,4,13.0,11111,kill,0.0,5600.0,1.36740762787
328,1_38_1,38,1.0,1380.59429295,1_I,test,03,4,14.0,10110,ignore,1.0,5700.0,2.22525250711
329,1_38_1,38,1.0,1384.48514175,1_I,test,03,4,15.0,11011,kill,1.0,5800.0,1.94346188435
330,1_38_1,38,1.0,1388.01653628,1_I,test,03,4,16.0,10001,ignore,1.0,5900.0,1.64277764877
331,1_38_1,38,1.0,1391.93858974,1_I,test,03,4,17.0,00010,kill,1.0,6000.0,1.95963478357
332,1_38_1,38,1.0,1395.67317504,1_I,test,03,4,18.0,01100,ignore,1.0,6100.0,1.792685344
333,1_38_1,38,1.0,1398.87641296,1_I,test,03,4,19.0,10100,ignore,1.0,6200.0,1.28161550669
334,1_38_1,38,1.0,1402.67349994,1_I,test,03,4,20.0,01010,kill,1.0,6300.0,1.870007428
335,1_38_1,38,1.0,1406.39240785,1_I,test,03,4,21.0,10101,ignore,1.0,6400.0,1.83714429949
336,1_38_1,38,1.0,1409.58006076,1_I,test,03,4,22.0,00101,ignore,1.0,6500.0,1.20111246814
337,1_38_1,38,1.0,1414.09591165,1_I,test,03,4,23.0,10111,kill,0.0,6400.0,2.54471970524
338,1_38_1,38,1.0,1417.29924867,1_I,test,03,4,24.0,01101,ignore,1.0,6500.0,1.26557378416
339,1_38_1,38,1.0,1420.79935098,1_I,test,03,4,25.0,01011,kill,1.0,6600.0,1.55023682364
340,1_38_1,38,1.0,1425.03393243,1_I,test,03,4,26.0,00100,ignore,1.0,6700.0,2.34533113615
341,1_38_1,38,1.0,1428.36219841,1_I,test,03,4,27.0,00001,ignore,1.0,6800.0,1.42772773749
342,1_38_1,38,1.0,1431.15922316,1_I,test,03,4,28.0,11100,ignore,1.0,6900.0,0.859125535771
343,1_38_1,38,1.0,1434.64377029,1_I,test,03,4,29.0,01001,ignore,1.0,7000.0,1.58668534144
344,1_38_1,38,1.0,1437.89736851,1_I,test,03,4,30.0,11000,ignore,1.0,7100.0,1.38910309782
345,1_38_1,38,1.0,1442.25693921,1_I,test,03,4,31.0,00111,ignore,0.0,7000.0,2.47985106795
346,1_38_1,38,1.0,1445.03834016,1_I,test,03,4,32.0,11001,ignore,1.0,7100.0,0.86954269689
347,1_38_1,38,1.0,1448.69476499,1_I,test,03,4,33.0,01110,kill,1.0,7200.0,1.71437446359
348,1_38_1,38,1.0,1452.38239384,1_I,test,03,4,34.0,11110,kill,0.0,7100.0,1.82418122012
349,1_38_1,38,1.0,1455.99196904,1_I,test,03,4,35.0,00110,kill,1.0,7200.0,1.70458913151
350,1_38_1,38,1.0,1459.58591528,1_I,test,03,4,36.0,10011,ignore,0.0,7100.0,1.65142472639
351,1_38_1,38,1.0,1462.63293811,1_I,test,03,4,37.0,00000,ignore,1.0,7200.0,1.12183075192
352,1_38_1,38,1.0,1465.39870145,1_I,test,03,4,38.0,00000,ignore,1.0,7300.0,0.80404543781
353,1_38_1,38,1.0,1469.68015563,1_I,test,03,4,39.0,01001,ignore,1.0,7400.0,2.3982331879
354,1_38_1,38,1.0,1472.80529017,1_I,test,03,4,40.0,10000,ignore,1.0,7500.0,1.14816936354
355,1_38_1,38,1.0,1476.96174708,1_I,test,03,4,41.0,01010,kill,1.0,7600.0,2.22239131578
356,1_38_1,38,1.0,1480.77442997,1_I,test,03,4,42.0,01110,kill,1.0,7700.0,1.9262645882
357,1_38_1,38,1.0,1484.27452844,1_I,test,03,4,43.0,00110,ignore,0.0,7600.0,1.55213327295
358,1_38_1,38,1.0,1489.36854011,1_I,test,03,4,44.0,10011,ignore,0.0,7500.0,3.20390502423
359,1_38_1,38,1.0,1493.49375227,1_I,test,03,4,45.0,10111,ignore,1.0,7600.0,2.15298216895
360,1_38_1,38,1.0,1496.8689269,1_I,test,03,4,46.0,01100,ignore,1.0,7700.0,1.44168731069
361,1_38_1,38,1.0,1500.44723875,1_I,test,03,4,47.0,10010,kill,1.0,7800.0,1.69029889042
362,1_38_1,38,1.0,1503.25986776,1_I,test,03,4,48.0,10100,ignore,1.0,7900.0,0.878003433045
363,1_38_1,38,1.0,1506.05685628,1_I,test,03,4,49.0,01101,ignore,1.0,8000.0,0.934475799986
364,1_38_1,38,1.0,1511.35397725,1_I,test,03,4,50.0,01011,kill,1.0,8100.0,3.39465966545
365,1_38_1,38,1.0,1515.63545068,1_I,test,03,4,51.0,00111,ignore,0.0,8000.0,2.34493183302
366,1_38_1,38,1.0,1519.52624271,1_I,test,03,4,52.0,11111,ignore,1.0,8100.0,2.0462595079
367,1_38_1,38,1.0,1523.3245244,1_I,test,03,4,53.0,10101,ignore,1.0,8200.0,1.89285590577
368,1_38_1,38,1.0,1527.30916999,1_I,test,03,4,54.0,11010,kill,1.0,8300.0,2.05700797837
369,1_38_1,38,1.0,1531.9812459,1_I,test,03,4,55.0,01000,ignore,1.0,8400.0,2.75903130665
370,1_38_1,38,1.0,1535.72256098,1_I,test,03,4,56.0,11011,kill,1.0,8500.0,1.81570573059
371,1_38_1,38,1.0,1538.98832912,1_I,test,03,4,57.0,00010,kill,1.0,8600.0,1.39342679699
372,1_38_1,38,1.0,1542.89473504,1_I,test,03,4,58.0,11101,ignore,1.0,8700.0,1.94467422638
373,1_38_1,38,1.0,1547.6606026,1_I,test,03,4,59.0,11110,ignore,1.0,8800.0,2.83473084083
374,1_38_1,38,1.0,1551.27013739,1_I,test,03,4,60.0,11100,ignore,1.0,8900.0,1.69751328765
375,1_38_1,38,1.0,1554.489053,1_I,test,03,4,61.0,00100,ignore,1.0,9000.0,1.25184898195
376,1_38_1,38,1.0,1557.53606269,1_I,test,03,5,0.0,00011,kill,1.0,9100.0,1.17172279575
377,1_38_1,38,1.0,1561.05188118,1_I,test,03,5,1.0,01111,ignore,0.0,9000.0,1.55583989644
378,1_38_1,38,1.0,1564.02076601,1_I,test,03,5,2.0,00001,ignore,0.0,8900.0,1.01310933016
379,1_38_1,38,1.0,1567.14588869,1_I,test,03,5,3.0,11000,ignore,1.0,9000.0,1.23856485645
380,1_38_1,38,1.0,1570.39605771,1_I,test,03,5,4.0,11001,ignore,0.0,8900.0,1.32538971344
381,1_38_1,38,1.0,1573.63056892,1_I,test,03,5,5.0,00101,kill,0.0,8800.0,1.34689114452
382,1_38_1,38,1.0,1577.44328003,1_I,test,03,5,6.0,10110,ignore,1.0,8900.0,1.90201518186
383,1_38_1,38,1.0,1581.41220302,1_I,test,03,5,7.0,10001,kill,1.0,9000.0,2.01727587388
384,1_38_1,38,1.0,1584.56862561,1_I,test,03,5,8.0,11000,kill,0.0,8900.0,1.28216587148
385,1_38_1,38,1.0,1587.69376561,1_I,test,03,5,9.0,00001,kill,1.0,9000.0,1.23230942817
386,1_38_1,38,1.0,1591.50643503,1_I,test,03,5,10.0,01101,ignore,1.0,9100.0,1.87898902221
387,1_38_1,38,1.0,1594.78780903,1_I,test,03,5,11.0,10001,kill,1.0,9200.0,1.35583553458
388,1_38_1,38,1.0,1598.89742207,1_I,test,03,5,12.0,11110,ignore,1.0,9300.0,2.1489920242
389,1_38_1,38,1.0,1602.1162992,1_I,test,03,5,13.0,10000,kill,0.0,9200.0,1.34446710191
390,1_38_1,38,1.0,1606.41337624,1_I,test,03,5,14.0,01111,kill,1.0,9300.0,2.41229860048
391,1_38_1,38,1.0,1610.27294951,1_I,test,03,5,15.0,00111,kill,1.0,9400.0,1.90680810229
392,1_38_1,38,1.0,1613.63248236,1_I,test,03,5,16.0,01011,ignore,0.0,9300.0,1.46286320548
393,1_38_1,38,1.0,1617.99207231,1_I,test,03,5,17.0,10011,kill,1.0,9400.0,2.42884418262
394,1_38_1,38,1.0,1622.75792224,1_I,test,03,5,18.0,11010,ignore,1.0,9500.0,2.90181536993
395,1_38_1,38,1.0,1628.44569221,1_I,test,03,5,19.0,10101,kill,0.0,9400.0,3.72726794555
396,1_38_1,38,1.0,1632.25835778,1_I,test,03,5,20.0,10110,ignore,1.0,9500.0,1.85602925272
397,1_38_1,38,1.0,1635.69602576,1_I,test,03,5,21.0,01001,kill,1.0,9600.0,1.55066852003
398,1_38_1,38,1.0,1639.24308644,1_I,test,03,5,22.0,00110,ignore,1.0,9700.0,1.60046017681
399,1_38_1,38,1.0,1642.52446333,1_I,test,03,5,23.0,00101,ignore,1.0,9800.0,1.40242410675
400,1_38_1,38,1.0,1645.7746439,1_I,test,03,5,24.0,11100,kill,0.0,9700.0,1.30548324979
401,1_38_1,38,1.0,1649.71231252,1_I,test,03,5,25.0,11111,ignore,0.0,9600.0,2.01351472707
402,1_38_1,38,1.0,1653.04372546,1_I,test,03,5,26.0,11011,kill,1.0,9700.0,1.44685644203
403,1_38_1,38,1.0,1656.14077311,1_I,test,03,5,27.0,11001,kill,1.0,9800.0,1.17313783623
404,1_38_1,38,1.0,1659.7659253,1_I,test,03,5,28.0,01110,ignore,1.0,9900.0,1.7697922854
405,1_38_1,38,1.0,1663.14109609,1_I,test,03,5,29.0,10100,ignore,1.0,10000.0,1.45132927851
406,1_38_1,38,1.0,1666.37560344,1_I,test,03,5,30.0,10010,ignore,1.0,10100.0,1.3050868332
407,1_38_1,38,1.0,1669.93825619,1_I,test,03,5,31.0,00100,ignore,1.0,10200.0,1.67110636152
408,1_38_1,38,1.0,1672.71968279,1_I,test,03,5,32.0,00000,ignore,1.0,10300.0,0.893525259691
409,1_38_1,38,1.0,1675.92296593,1_I,test,03,5,33.0,00011,ignore,0.0,10200.0,1.26669151219
410,1_38_1,38,1.0,1680.01691602,1_I,test,03,5,34.0,01100,kill,0.0,10100.0,2.19258662472
411,1_38_1,38,1.0,1684.01707318,1_I,test,03,5,35.0,01000,ignore,1.0,10200.0,2.07316516204
412,1_38_1,38,1.0,1688.50168349,1_I,test,03,5,36.0,11101,ignore,1.0,10300.0,2.62487796398
413,1_38_1,38,1.0,1691.87682765,1_I,test,03,5,37.0,00010,kill,0.0,10200.0,1.41345930572
414,1_38_1,38,1.0,1695.92385658,1_I,test,03,5,38.0,10111,kill,1.0,10300.0,2.10061091775
415,1_38_1,38,1.0,1699.64281293,1_I,test,03,5,39.0,01010,ignore,1.0,10400.0,1.83395211954
416,1_38_1,38,1.0,1703.36174682,1_I,test,03,5,40.0,11010,ignore,1.0,10500.0,1.79214941185
417,1_38_1,38,1.0,1707.04942411,1_I,test,03,5,41.0,00011,kill,1.0,10600.0,1.81908136547
418,1_38_1,38,1.0,1710.91173733,1_I,test,03,5,42.0,01110,ignore,1.0,10700.0,1.91275787926
419,1_38_1,38,1.0,1714.33380138,1_I,test,03,5,43.0,00110,kill,0.0,10600.0,1.48423410132
420,1_38_1,38,1.0,1718.4277117,1_I,test,03,5,44.0,00111,ignore,0.0,10500.0,2.183021631
421,1_38_1,38,1.0,1722.17790638,1_I,test,03,5,45.0,10100,kill,0.0,10400.0,1.80151106567
422,1_38_1,38,1.0,1727.41255614,1_I,test,03,5,46.0,01100,ignore,1.0,10500.0,3.37152093118
423,1_38_1,38,1.0,1731.14706639,1_I,test,03,5,47.0,10001,kill,1.0,10600.0,1.80332091912
424,1_38_1,38,1.0,1734.2565893,1_I,test,03,5,48.0,00101,kill,0.0,10500.0,1.14625880231
425,1_38_1,38,1.0,1738.14741245,1_I,test,03,5,49.0,11111,ignore,0.0,10400.0,2.03898962517
426,1_38_1,38,1.0,1742.42884867,1_I,test,03,5,50.0,10010,kill,0.0,10300.0,2.38306897008
427,1_38_1,38,1.0,1754.46074032,1_I,test,03,5,51.0,11000,kill,0.0,10200.0,10.1185365813
428,1_38_1,38,1.0,1758.27676389,1_I,test,03,5,52.0,01101,ignore,1.0,10300.0,1.90005426674
429,1_38_1,38,1.0,1762.16759153,1_I,test,03,5,53.0,01000,ignore,1.0,10400.0,1.96852240524
430,1_38_1,38,1.0,1766.0896312,1_I,test,03,5,54.0,10111,kill,1.0,10500.0,2.05168586101
431,1_38_1,38,1.0,1770.21482155,1_I,test,03,5,55.0,00010,kill,0.0,10400.0,2.235271648
432,1_38_1,38,1.0,1773.73064999,1_I,test,03,5,56.0,11110,ignore,1.0,10500.0,1.58511474913
433,1_38_1,38,1.0,1777.30895157,1_I,test,03,5,57.0,01001,ignore,0.0,10400.0,1.65832160548
434,1_38_1,38,1.0,1780.68408131,1_I,test,03,5,58.0,10000,ignore,1.0,10500.0,1.43919463285
435,1_38_1,38,1.0,1784.01550996,1_I,test,03,5,59.0,10110,kill,0.0,10400.0,1.47258952408
436,1_38_1,38,1.0,1806.62594149,1_I,test,03,5,60.0,00000,ignore,1.0,10500.0,20.6439585597
437,1_38_1,38,1.0,1810.09487539,1_I,test,03,5,61.0,00100,ignore,1.0,10600.0,1.51499519553
438,1_38_1,38,1.0,1814.68885049,1_I,test,03,5,62.0,10011,ignore,0.0,10500.0,2.70432806104
439,1_38_1,38,1.0,1817.78273291,1_I,test,03,5,63.0,01111,ignore,0.0,10400.0,1.16224183209
440,1_38_1,38,1.0,1820.87662047,1_I,test,03,5,64.0,00001,ignore,0.0,10300.0,1.21485619314
441,1_38_1,38,1.0,1825.45498715,1_I,test,03,5,65.0,11101,ignore,1.0,10400.0,2.62120982754
442,1_38_1,38,1.0,1829.75206387,1_I,test,03,5,66.0,10101,kill,0.0,10300.0,2.33880597781
443,1_38_1,38,1.0,1832.89287547,1_I,test,03,5,67.0,11001,ignore,0.0,10200.0,1.27052289787
444,1_38_1,38,1.0,1836.84613327,1_I,test,03,5,68.0,01010,kill,0.0,10100.0,2.01978747452
445,1_38_1,38,1.0,1844.08089625,1_I,test,03,5,69.0,01011,ignore,0.0,10000.0,5.38195861873
446,1_38_1,38,1.0,1847.4247575,1_I,test,03,5,70.0,11100,ignore,1.0,10100.0,1.44460559114
447,1_38_1,38,1.0,1851.12812114,1_I,test,03,5,71.0,11011,kill,1.0,10200.0,1.78775162512
448,1_38_1,38,1.0,1855.48766618,1_I,test,03,5,72.0,01111,kill,1.0,10300.0,2.49460347436
449,1_38_1,38,1.0,1858.67529183,1_I,test,03,5,73.0,11001,ignore,0.0,10200.0,1.30833417791
450,1_38_1,38,1.0,1863.17553558,1_I,test,03,5,74.0,00101,ignore,1.0,10300.0,2.55176411801
451,1_38_1,38,1.0,1866.25380669,1_I,test,03,5,75.0,11010,kill,0.0,10200.0,1.1940747906
452,1_38_1,38,1.0,1869.61332608,1_I,test,03,5,76.0,00111,kill,1.0,10300.0,1.42666004262
453,1_38_1,38,1.0,1872.84785621,1_I,test,03,5,77.0,11000,ignore,1.0,10400.0,1.38130754615
454,1_38_1,38,1.0,1875.84800663,1_I,test,03,5,78.0,10100,ignore,1.0,10500.0,1.03678463802
455,1_38_1,38,1.0,1879.94481791,1_I,test,03,5,79.0,11110,ignore,1.0,10600.0,2.16419986068
456,1_38_1,38,1.0,1882.8355535,1_I,test,03,5,80.0,11101,ignore,1.0,10700.0,0.998336076605
457,1_38_1,38,1.0,1885.92944362,1_I,test,03,5,81.0,01100,ignore,1.0,10800.0,1.15832737853
458,1_38_1,38,1.0,1888.61706349,1_I,test,03,5,82.0,11100,ignore,1.0,10900.0,0.835904695805
459,1_38_1,38,1.0,1892.68616795,1_I,test,03,5,83.0,11011,ignore,0.0,10800.0,2.13032227772
460,1_38_1,38,1.0,1895.51444547,1_I,test,03,5,84.0,01001,ignore,0.0,10700.0,0.884530195013
461,1_38_1,38,1.0,1898.53021201,1_I,test,03,5,85.0,01110,ignore,1.0,10800.0,1.15584592608
462,1_38_1,38,1.0,1901.4678213,1_I,test,03,5,86.0,01101,kill,0.0,10700.0,1.00596388889
463,1_38_1,38,1.0,1906.04619151,1_I,test,03,5,87.0,11111,ignore,0.0,10600.0,2.72167096653
464,1_38_1,38,1.0,1909.50261904,1_I,test,03,5,88.0,00001,kill,1.0,10700.0,1.57313757965
465,1_38_1,38,1.0,1912.37772344,1_I,test,03,5,89.0,10010,ignore,1.0,10800.0,0.942219073411
466,1_38_1,38,1.0,1915.36228949,1_I,test,03,5,90.0,00100,ignore,1.0,10900.0,1.12386639606
467,1_38_1,38,1.0,1918.08115411,1_I,test,03,5,91.0,10110,ignore,1.0,11000.0,0.866742122664
468,1_38_1,38,1.0,1920.9094063,1_I,test,03,5,92.0,00010,ignore,1.0,11100.0,0.955344439841
469,1_38_1,38,1.0,1923.92517733,1_I,test,03,5,93.0,10101,kill,0.0,11000.0,1.08544445485
470,1_38_1,38,1.0,1927.20655069,1_I,test,03,5,94.0,00110,ignore,1.0,11100.0,1.32970314939
471,1_38_1,38,1.0,1930.06613294,1_I,test,03,5,95.0,00000,ignore,1.0,11200.0,0.982907901776
472,1_38_1,38,1.0,1932.97256162,1_I,test,03,5,96.0,10000,ignore,1.0,11300.0,1.0174086542
473,1_38_1,38,1.0,1935.78518422,1_I,test,03,5,97.0,01000,ignore,1.0,11400.0,0.881586577258
474,1_38_1,38,1.0,1938.81659222,1_I,test,03,5,98.0,01011,kill,1.0,11500.0,1.11925981708
475,1_38_1,38,1.0,1942.28550142,1_I,test,03,5,99.0,10001,ignore,0.0,11400.0,1.51392268978
476,1_38_1,38,1.0,1945.86380492,1_I,test,03,5,100.0,10011,kill,1.0,11500.0,1.71172366812
477,1_38_1,38,1.0,1949.02149598,1_I,test,03,5,101.0,00011,kill,1.0,11600.0,1.2101793753
478,1_38_1,38,1.0,1952.56857045,1_I,test,03,5,102.0,10111,kill,1.0,11700.0,1.60239767897
479,1_38_1,38,1.0,1955.77181093,1_I,test,03,5,103.0,01010,ignore,1.0,11800.0,1.32401412218
480,1_38_1,38,1.0,1959.41263023,1_I,test,03,5,104.0,00110,ignore,1.0,11900.0,1.70268338116
481,1_38_1,38,1.0,1962.97528073,1_I,test,03,5,105.0,01011,kill,1.0,12000.0,1.70962195455
482,1_38_1,38,1.0,1966.67858311,1_I,test,03,5,106.0,10001,kill,1.0,12100.0,1.74397453184
483,1_38_1,38,1.0,1969.39745767,1_I,test,03,5,107.0,01010,ignore,1.0,12200.0,0.794255294857
484,1_38_1,38,1.0,1972.38199679,1_I,test,03,5,108.0,01100,ignore,1.0,12300.0,1.10941483009
485,1_38_1,38,1.0,1975.94466396,1_I,test,03,5,109.0,11110,ignore,1.0,12400.0,1.63350515662
486,1_38_1,38,1.0,1978.66354109,1_I,test,03,6,0.0,11100,ignore,0.0,12300.0,0.875296831362
487,1_38_1,38,1.0,1993.88301284,1_I,test,03,6,1.0,10000,ignore,0.0,12200.0,13.2894197179
488,1_38_1,38,1.0,1996.74249823,1_I,test,03,6,2.0,11111,ignore,0.0,12100.0,0.940340584722
489,1_38_1,38,1.0,1999.55510095,1_I,test,03,6,3.0,10110,kill,1.0,12200.0,0.954631467268
490,1_38_1,38,1.0,2002.47715441,1_I,test,03,6,4.0,01001,ignore,1.0,12300.0,1.03894504434
491,1_38_1,38,1.0,2005.54465203,1_I,test,03,6,5.0,10111,kill,0.0,12200.0,1.13332234314
492,1_38_1,38,1.0,2008.30737489,1_I,test,03,6,6.0,01101,kill,0.0,12100.0,0.857780413429
493,1_38_1,38,1.0,2011.54786313,1_I,test,03,6,7.0,10011,ignore,1.0,12200.0,1.27766320754
494,1_38_1,38,1.0,2014.64176352,1_I,test,03,6,8.0,11010,ignore,0.0,12100.0,1.2471593351
495,1_38_1,38,1.0,2018.43884472,1_I,test,03,6,9.0,00100,ignore,1.0,12200.0,1.81974687068
496,1_38_1,38,1.0,2022.14212337,1_I,test,03,6,10.0,00000,ignore,1.0,12300.0,1.75425057378
497,1_38_1,38,1.0,2025.53294171,1_I,test,03,6,11.0,01000,ignore,1.0,12400.0,1.52581935719
498,1_38_1,38,1.0,2029.08071664,1_I,test,03,6,12.0,11011,ignore,0.0,12300.0,1.62575129926
499,1_38_1,38,1.0,2032.11209481,1_I,test,03,6,13.0,00001,ignore,1.0,12400.0,1.1632822653
500,1_38_1,38,1.0,2035.87788958,1_I,test,03,6,14.0,01111,kill,0.0,12300.0,1.82789425812
501,1_38_1,38,1.0,2039.31556814,1_I,test,03,6,15.0,00101,kill,0.0,12200.0,1.48219428775
502,1_38_1,38,1.0,2044.25330187,1_I,test,03,6,16.0,00111,kill,0.0,12100.0,3.03236247615
503,1_38_1,38,1.0,2048.20659302,1_I,test,03,6,17.0,11000,kill,1.0,12200.0,2.01332581981
504,1_38_1,38,1.0,2051.51925539,1_I,test,03,6,18.0,10100,kill,1.0,12300.0,1.44688755239
505,1_38_1,38,1.0,2054.89443933,1_I,test,03,6,19.0,10101,ignore,1.0,12400.0,1.42797597895
506,1_38_1,38,1.0,2058.2539106,1_I,test,03,6,20.0,01110,kill,0.0,12300.0,1.42704683746
507,1_38_1,38,1.0,2061.23846928,1_I,test,03,6,21.0,11001,ignore,0.0,12200.0,1.1085944145
508,1_38_1,38,1.0,2064.08234432,1_I,test,03,6,22.0,00010,ignore,1.0,12300.0,0.911958631554
509,1_38_1,38,1.0,2066.75434262,1_I,test,03,6,23.0,11101,kill,1.0,12400.0,0.823528223193
510,1_38_1,38,1.0,2070.84829239,1_I,test,03,6,24.0,00011,ignore,1.0,12500.0,2.17588677367
511,1_38_1,38,1.0,2074.09846623,1_I,test,03,6,25.0,10010,ignore,0.0,12400.0,1.31246640401
512,1_38_1,38,1.0,2078.44241985,1_I,test,03,6,26.0,10101,kill,0.0,12300.0,2.48679958383
513,1_38_1,38,1.0,2082.14570299,1_I,test,03,6,27.0,00010,ignore,1.0,12400.0,1.84501842888
514,1_38_1,38,1.0,2086.47401964,1_I,test,03,6,28.0,00100,ignore,1.0,12500.0,2.37060878813
515,1_38_1,38,1.0,2089.83356661,1_I,test,03,6,29.0,11001,kill,1.0,12600.0,1.45192550704
516,1_38_1,38,1.0,2093.44314084,1_I,test,03,6,30.0,01111,ignore,1.0,12700.0,1.66548981825
517,1_38_1,38,1.0,2096.19324956,1_I,test,03,6,31.0,01100,kill,0.0,12600.0,0.906007571686
518,1_38_1,38,1.0,2099.44339325,1_I,test,03,6,32.0,10010,ignore,0.0,12500.0,1.30945703755
519,1_38_1,38,1.0,2102.84981552,1_I,test,03,6,33.0,00000,ignore,1.0,12600.0,1.46580489889
520,1_38_1,38,1.0,2106.33436297,1_I,test,03,6,34.0,11010,kill,1.0,12700.0,1.61751988177
521,1_38_1,38,1.0,2109.95953568,1_I,test,03,6,35.0,01000,ignore,1.0,12800.0,1.68840051675
522,1_38_1,38,1.0,2112.81904544,1_I,test,03,6,36.0,00001,ignore,1.0,12900.0,0.999832902064
523,1_38_1,38,1.0,2116.30357654,1_I,test,03,6,37.0,10111,kill,0.0,12800.0,1.52703362357
524,1_38_1,38,1.0,2121.59137403,1_I,test,03,6,38.0,11110,ignore,0.0,12700.0,3.37032077672
525,1_38_1,38,1.0,2127.63849372,1_I,test,03,6,39.0,01110,kill,0.0,12600.0,4.17260511134
526,1_38_1,38,1.0,2131.99808174,1_I,test,03,6,40.0,01011,ignore,1.0,12700.0,2.41969484902
527,1_38_1,38,1.0,2135.54514531,1_I,test,03,6,41.0,11111,kill,1.0,12800.0,1.70923259391
528,1_38_1,38,1.0,2139.23282868,1_I,test,03,6,42.0,10100,kill,1.0,12900.0,1.76962967762
529,1_38_1,38,1.0,2142.6235941,1_I,test,03,6,43.0,11011,kill,1.0,13000.0,1.45874797783
530,1_38_1,38,1.0,2145.67061373,1_I,test,03,6,44.0,00101,ignore,1.0,13100.0,1.19538944403
