,unique_id,pair_id,sbj_id,wall_time,condition,block,rule_id,rule_num,trial,stimulus,choice,correct,points,reaction_time
0,1_21_1,21,1.0,55.3386263716,1_I,training,01,1_A,1.0,00101,kill,0.0,0.0,2.61188505715
1,1_21_1,21,1.0,60.8232693978,1_I,training,01,1_A,2.0,01101,ignore,1.0,100.0,3.35366614795
2,1_21_1,21,1.0,66.4797577369,1_I,training,01,1_A,3.0,10011,kill,0.0,0.0,3.55524302647
3,1_21_1,21,1.0,70.1986938779,1_I,training,01,1_A,4.0,00011,ignore,0.0,0.0,1.62042918191
4,1_21_1,21,1.0,83.4961663692,1_I,training,01,1_A,5.0,00010,kill,1.0,100.0,11.196667214
5,1_21_1,21,1.0,87.8714144503,1_I,training,01,1_A,6.0,00001,ignore,1.0,200.0,2.27045362118
6,1_21_1,21,1.0,93.2478857781,1_I,training,01,1_A,7.0,11000,kill,0.0,100.0,3.29288259013
7,1_21_1,21,1.0,98.5919420308,1_I,training,01,1_A,8.0,01011,kill,1.0,200.0,3.24899356368
8,1_21_1,21,1.0,103.060858287,1_I,training,01,1_A,9.0,10010,kill,0.0,100.0,2.38345672709
9,1_21_1,21,1.0,111.123774348,1_I,training,01,1_A,10.0,11111,kill,1.0,200.0,5.97684426729
10,1_21_1,21,1.0,116.405288505,1_I,training,01,1_A,11.0,10101,ignore,1.0,300.0,3.19147466975
11,1_21_1,21,1.0,123.671266083,1_I,training,01,1_A,12.0,01111,ignore,0.0,200.0,5.1765853136
12,1_21_1,21,1.0,127.54643719,1_I,training,01,1_A,13.0,01010,kill,1.0,300.0,1.80866580798
13,1_21_1,21,1.0,132.359126177,1_I,training,01,1_A,14.0,11100,ignore,1.0,400.0,2.73282226809
14,1_21_1,21,1.0,137.265626383,1_I,training,01,1_A,15.0,00100,ignore,1.0,500.0,2.83087411785
15,1_21_1,21,1.0,143.547181593,1_I,training,01,1_A,16.0,10000,kill,0.0,400.0,4.22266264947
16,1_21_1,21,1.0,147.906738826,1_I,training,01,1_A,17.0,10001,kill,0.0,300.0,2.28624806442
17,1_21_1,21,1.0,151.438182423,1_I,training,01,1_A,18.0,10111,kill,1.0,400.0,1.49318747169
18,1_21_1,21,1.0,156.219653604,1_I,training,01,1_A,19.0,10100,kill,0.0,300.0,2.72423676976
19,1_21_1,21,1.0,159.922946684,1_I,training,01,1_A,20.0,01000,ignore,1.0,400.0,1.66623261829
20,1_21_1,21,1.0,163.157474249,1_I,training,01,1_A,21.0,01001,ignore,1.0,500.0,1.21988965763
21,1_21_1,21,1.0,166.517027312,1_I,training,01,1_A,22.0,01110,ignore,0.0,400.0,1.33605383312
22,1_21_1,21,1.0,170.204674124,1_I,training,01,1_A,23.0,11101,ignore,1.0,500.0,1.65446648612
23,1_21_1,21,1.0,175.39242902,1_I,training,01,1_A,24.0,11110,ignore,0.0,400.0,3.17670879288
24,1_21_1,21,1.0,178.345708309,1_I,training,01,1_A,25.0,11011,kill,0.0,300.0,0.9246789218
25,1_21_1,21,1.0,182.642780215,1_I,training,01,1_A,26.0,10110,kill,1.0,400.0,2.26791091018
26,1_21_1,21,1.0,185.767921494,1_I,training,01,1_A,27.0,00110,kill,1.0,500.0,1.09247315208
27,1_21_1,21,1.0,189.361869983,1_I,training,01,1_A,28.0,11010,kill,0.0,400.0,1.56525703575
28,1_21_1,21,1.0,193.377683349,1_I,training,01,1_A,29.0,00111,ignore,0.0,300.0,1.97810952901
29,1_21_1,21,1.0,196.674681167,1_I,training,01,1_A,30.0,11001,kill,0.0,200.0,1.26265806952
30,1_21_1,21,1.0,199.69044482,1_I,training,01,1_A,31.0,00000,ignore,1.0,300.0,0.984330639667
31,1_21_1,21,1.0,202.862505661,1_I,training,01,1_A,32.0,01100,ignore,1.0,400.0,1.11655097032
32,1_21_1,21,1.0,211.503539846,1_I,training,01,1_A,33.0,10000,ignore,1.0,500.0,6.61170224367
33,1_21_1,21,1.0,216.316264434,1_I,training,01,1_A,34.0,10110,kill,1.0,600.0,2.80391554402
34,1_21_1,21,1.0,220.332066896,1_I,training,01,1_A,35.0,00010,ignore,0.0,500.0,1.96657463986
35,1_21_1,21,1.0,223.519721726,1_I,training,01,1_A,36.0,10011,kill,0.0,400.0,1.17182478643
36,1_21_1,21,1.0,226.863605428,1_I,training,01,1_A,37.0,11010,kill,0.0,300.0,1.29671750378
37,1_21_1,21,1.0,231.738885582,1_I,training,01,1_A,38.0,11110,kill,1.0,400.0,2.8493023581
38,1_21_1,21,1.0,238.770432453,1_I,training,01,1_A,39.0,01000,ignore,1.0,500.0,5.01857224596
39,1_21_1,21,1.0,243.395645896,1_I,training,01,1_A,40.0,01100,ignore,1.0,600.0,2.58658367149
40,1_21_1,21,1.0,247.677103285,1_I,training,01,1_A,41.0,00011,ignore,0.0,500.0,2.27078493052
41,1_21_1,21,1.0,252.114796923,1_I,training,01,1_A,42.0,00101,ignore,1.0,600.0,2.40739951994
42,1_21_1,21,1.0,255.646238276,1_I,training,01,1_A,43.0,00110,ignore,0.0,500.0,1.49043372338
43,1_21_1,21,1.0,259.787082271,1_I,training,01,1_A,44.0,10111,ignore,0.0,400.0,2.14725144743
44,1_21_1,21,1.0,265.287339493,1_I,training,01,1_A,45.0,10100,kill,0.0,300.0,3.46602684087
45,1_21_1,21,1.0,268.709422463,1_I,training,01,1_A,46.0,01101,ignore,1.0,400.0,1.42606958715
46,1_21_1,21,1.0,272.209547226,1_I,training,01,1_A,47.0,01010,ignore,0.0,300.0,1.48715077814
47,1_21_1,21,1.0,278.944206609,1_I,training,01,1_A,48.0,11100,kill,0.0,200.0,4.72778912433
48,1_21_1,21,1.0,281.866204587,1_I,training,01,1_A,49.0,01011,ignore,0.0,100.0,0.917543102287
49,1_21_1,21,1.0,284.975777535,1_I,training,01,1_A,50.0,01001,ignore,1.0,200.0,1.08502622892
50,1_21_1,21,1.0,288.10091689,1_I,training,01,1_A,51.0,00111,ignore,0.0,100.0,1.1103430094
51,1_21_1,21,1.0,291.804222799,1_I,training,01,1_A,52.0,11101,kill,0.0,0.0,1.70377641334
52,1_21_1,21,1.0,295.398152365,1_I,training,01,1_A,53.0,00001,ignore,1.0,100.0,1.58421479365
53,1_21_1,21,1.0,298.663908001,1_I,training,01,1_A,54.0,01111,ignore,0.0,0.0,1.27036381807
54,1_21_1,21,1.0,305.351720948,1_I,training,01,1_A,55.0,11001,kill,0.0,0.0,4.65568299758
55,1_21_1,21,1.0,308.6643939,1_I,training,01,1_A,56.0,11011,ignore,1.0,100.0,1.31158986149
56,1_21_1,21,1.0,312.383283856,1_I,training,01,1_A,57.0,00100,ignore,1.0,200.0,1.7123558179
57,1_21_1,21,1.0,316.024116626,1_I,training,01,1_A,58.0,01110,ignore,0.0,100.0,1.63300771152
58,1_21_1,21,1.0,319.96181732,1_I,training,01,1_A,59.0,10010,ignore,1.0,200.0,1.94948414526
59,1_21_1,21,1.0,323.477574559,1_I,training,01,1_A,60.0,11000,ignore,1.0,300.0,1.52407589389
60,1_21_1,21,1.0,326.884005488,1_I,training,01,1_A,61.0,10001,ignore,1.0,400.0,1.38793180865
61,1_21_1,21,1.0,330.102895124,1_I,training,01,1_A,62.0,10101,ignore,1.0,500.0,1.20099796917
62,1_21_1,21,1.0,333.524943777,1_I,training,01,1_A,63.0,11111,ignore,0.0,400.0,1.41380472698
63,1_21_1,21,1.0,337.712641584,1_I,training,01,1_A,64.0,00000,ignore,1.0,500.0,2.19494267354
64,1_21_1,21,1.0,342.93161525,1_I,training,01,1_A,65.0,11011,kill,0.0,400.0,3.21618624139
65,1_21_1,21,1.0,345.759853647,1_I,training,01,1_A,66.0,00001,ignore,1.0,500.0,0.826484028517
66,1_21_1,21,1.0,349.291310073,1_I,training,01,1_A,67.0,11101,ignore,1.0,600.0,1.55995865208
67,1_21_1,21,1.0,352.341743502,1_I,training,01,1_A,68.0,10011,kill,0.0,500.0,1.06390838543
68,1_21_1,21,1.0,364.529791221,1_I,training,01,1_A,69.0,10100,kill,0.0,400.0,10.1786283344
69,1_21_1,21,1.0,369.530027595,1_I,training,01,1_A,70.0,01010,ignore,0.0,300.0,3.00178002599
70,1_21_1,21,1.0,373.608362209,1_I,training,01,1_A,71.0,10101,ignore,1.0,400.0,2.05319615694
71,1_21_1,21,1.0,377.499150719,1_I,training,01,1_A,72.0,00000,ignore,1.0,500.0,1.9037743607
72,1_21_1,21,1.0,383.155698713,1_I,training,01,1_A,73.0,01110,ignore,0.0,400.0,3.63974069992
73,1_21_1,21,1.0,386.749622185,1_I,training,01,1_A,74.0,00101,ignore,1.0,500.0,1.56913941677
74,1_21_1,21,1.0,390.796652717,1_I,training,01,1_A,75.0,01011,kill,1.0,600.0,2.05533347103
75,1_21_1,21,1.0,395.187506976,1_I,training,01,1_A,76.0,10001,ignore,1.0,700.0,2.37757975479
76,1_21_1,21,1.0,398.515789312,1_I,training,01,1_A,77.0,10111,kill,1.0,800.0,1.3519435318
77,1_21_1,21,1.0,403.016017989,1_I,training,01,1_A,78.0,00010,kill,1.0,900.0,2.47034027682
78,1_21_1,21,1.0,406.781811149,1_I,training,01,1_A,79.0,01001,ignore,1.0,1000.0,1.75134191509
79,1_21_1,21,1.0,411.016413123,1_I,training,01,1_A,80.0,11110,kill,1.0,1100.0,2.26296917316
80,1_21_1,21,1.0,414.219685997,1_I,training,01,1_A,81.0,01101,ignore,1.0,1200.0,1.20924863018
81,1_21_1,21,1.0,418.20422607,1_I,training,01,1_A,82.0,11001,ignore,1.0,1300.0,2.00732953766
82,1_21_1,21,1.0,421.485637596,1_I,training,01,1_A,83.0,00100,ignore,1.0,1400.0,1.26740448477
83,1_21_1,21,1.0,424.57954407,1_I,training,01,1_A,84.0,01111,kill,1.0,1500.0,1.0860612098
84,1_21_1,21,1.0,428.282853827,1_I,training,01,1_A,85.0,10000,ignore,1.0,1600.0,1.72890685236
85,1_21_1,21,1.0,431.283016435,1_I,training,01,1_A,86.0,11000,ignore,1.0,1700.0,1.01771141898
86,1_21_1,21,1.0,434.361259643,1_I,training,01,1_A,87.0,00110,kill,1.0,1800.0,1.08667187097
87,1_21_1,21,1.0,438.158354319,1_I,training,01,1_A,88.0,11010,ignore,1.0,1900.0,1.80942881371
88,1_21_1,21,1.0,443.42421836,1_I,training,01,1_A,89.0,10110,kill,1.0,2000.0,3.27036125227
89,1_21_1,21,1.0,446.924365894,1_I,training,01,1_A,90.0,01000,ignore,1.0,2100.0,1.54458051042
90,1_21_1,21,1.0,450.971443893,1_I,training,01,1_A,91.0,00011,kill,1.0,2200.0,2.0236618374
91,1_21_1,21,1.0,454.268458068,1_I,training,01,1_A,92.0,10010,kill,0.0,2100.0,1.29957901583
92,1_21_1,21,1.0,457.456135349,1_I,training,01,1_A,93.0,01100,ignore,1.0,2200.0,1.19759860061
93,1_21_1,21,1.0,460.659469802,1_I,training,01,1_A,94.0,00111,kill,1.0,2300.0,1.19410590096
94,1_21_1,21,1.0,463.612715094,1_I,training,01,1_A,95.0,11111,kill,1.0,2400.0,0.976986990094
95,1_21_1,21,1.0,466.737865034,1_I,training,01,1_A,96.0,11100,ignore,1.0,2500.0,1.12722984337
96,1_21_1,21,1.0,469.706752424,1_I,training,01,1_A,97.0,11100,ignore,1.0,2600.0,0.967949268939
97,1_21_1,21,1.0,474.519507161,1_I,training,01,1_A,98.0,00110,kill,1.0,2700.0,2.81534202799
98,1_21_1,21,1.0,479.410332554,1_I,training,01,1_A,99.0,10110,kill,1.0,2800.0,2.89066791707
99,1_21_1,21,1.0,482.75427527,1_I,training,01,1_A,100.0,11011,kill,0.0,2700.0,1.38111960107
100,1_21_1,21,1.0,485.879426812,1_I,training,01,1_A,101.0,11101,ignore,1.0,2800.0,1.11459165883
101,1_21_1,21,1.0,489.113955981,1_I,training,01,1_A,102.0,10010,kill,0.0,2700.0,1.23524566924
102,1_21_1,21,1.0,493.770387231,1_I,training,01,1_A,103.0,11110,ignore,0.0,2600.0,2.70541628233
103,1_21_1,21,1.0,496.879915598,1_I,training,01,1_A,104.0,11001,ignore,1.0,2700.0,1.13842155634
104,1_21_1,21,1.0,500.239472509,1_I,training,01,1_A,105.0,00101,ignore,1.0,2800.0,1.32955016338
105,1_21_1,21,1.0,503.130243379,1_I,training,01,1_A,106.0,10001,ignore,1.0,2900.0,0.889340113896
106,1_21_1,21,1.0,506.020984742,1_I,training,01,1_A,107.0,10101,ignore,1.0,3000.0,0.883222918268
107,1_21_1,21,1.0,509.0860038,1_I,training,01,1_A,108.0,01110,ignore,0.0,2900.0,1.09461976721
108,1_21_1,21,1.0,514.101849239,1_I,training,01,1_A,109.0,01111,ignore,0.0,2800.0,3.04138063306
109,1_21_1,21,1.0,516.805124358,1_I,training,01,1_A,110.0,01100,ignore,1.0,2900.0,0.683194822721
110,1_21_1,21,1.0,519.758377668,1_I,training,01,1_A,111.0,10100,ignore,1.0,3000.0,0.95781755343
111,1_21_1,21,1.0,525.493064313,1_I,training,01,1_A,112.0,10111,kill,1.0,3100.0,3.72458219102
112,1_21_1,21,1.0,528.524434786,1_I,training,01,1_A,113.0,01001,ignore,1.0,3200.0,1.06860925767
113,1_21_1,21,1.0,531.665206297,1_I,training,01,1_A,114.0,00001,ignore,1.0,3300.0,1.11868475643
114,1_21_1,21,1.0,537.68111139,1_I,training,01,1_A,115.0,01010,ignore,0.0,3200.0,4.03147983984
115,1_21_1,21,1.0,541.071914974,1_I,training,01,1_A,116.0,11000,ignore,1.0,3300.0,1.42723125456
116,1_21_1,21,1.0,544.353337404,1_I,training,01,1_A,117.0,01000,ignore,1.0,3400.0,1.30436231451
117,1_21_1,21,1.0,547.259699698,1_I,training,01,1_A,118.0,00000,ignore,1.0,3500.0,0.938869096568
118,1_21_1,21,1.0,551.69742156,1_I,training,01,1_A,119.0,00010,ignore,0.0,3400.0,2.426563825
119,1_21_1,21,1.0,555.010077192,1_I,training,01,1_A,120.0,00011,kill,1.0,3500.0,1.32616362384
120,1_21_1,21,1.0,558.979030652,1_I,training,01,1_A,121.0,11111,ignore,0.0,3400.0,2.00814097293
121,1_21_1,21,1.0,562.291659023,1_I,training,01,1_A,122.0,10011,ignore,1.0,3500.0,1.30072400553
122,1_21_1,21,1.0,565.229295892,1_I,training,01,1_A,123.0,10000,ignore,1.0,3600.0,0.967453427464
123,1_21_1,21,1.0,568.916970928,1_I,training,01,1_A,124.0,00100,ignore,1.0,3700.0,1.66968971742
124,1_21_1,21,1.0,571.901506191,1_I,training,01,1_A,125.0,01101,ignore,1.0,3800.0,0.991843311529
125,1_21_1,21,1.0,576.761101589,1_I,training,01,1_A,126.0,01011,ignore,0.0,3700.0,2.90336543581
126,1_21_1,21,1.0,579.917517765,1_I,training,01,1_A,127.0,00111,ignore,0.0,3600.0,1.16796421474
127,1_21_1,21,1.0,586.308473052,1_I,training,01,1_A,128.0,11010,ignore,1.0,3700.0,4.42414812125
128,1_21_1,21,1.0,589.199256751,1_I,training,01,1_A,129.0,10100,ignore,1.0,3800.0,0.899040453736
129,1_21_1,21,1.0,593.5119111,1_I,training,01,1_A,130.0,11110,ignore,0.0,3700.0,2.34119441989
130,1_21_1,21,1.0,596.090170023,1_I,training,01,1_A,131.0,01011,ignore,0.0,3600.0,0.622179701162
131,1_21_1,21,1.0,599.387192216,1_I,training,01,1_A,132.0,11000,ignore,1.0,3700.0,1.30743935403
132,1_21_1,21,1.0,603.153050804,1_I,training,01,1_A,133.0,11111,ignore,0.0,3600.0,1.7814628414
133,1_21_1,21,1.0,606.575045575,1_I,training,01,1_A,134.0,00100,ignore,1.0,3700.0,1.44357638332
134,1_21_1,21,1.0,609.809589818,1_I,training,01,1_A,135.0,10001,ignore,1.0,3800.0,1.23126514626
135,1_21_1,21,1.0,613.137865418,1_I,training,01,1_A,136.0,00011,ignore,0.0,3700.0,1.35665627089
136,1_21_1,21,1.0,616.90366788,1_I,training,01,1_A,137.0,10101,ignore,1.0,3800.0,1.74647907652
137,1_21_1,21,1.0,620.35694332,1_I,training,01,1_A,138.0,10000,ignore,1.0,3900.0,1.43325351547
138,1_21_1,21,1.0,624.279024366,1_I,training,01,1_A,139.0,01111,kill,1.0,4000.0,1.95075518004
139,1_21_1,21,1.0,628.060427873,1_I,training,01,1_A,140.0,10111,ignore,0.0,3900.0,1.78926127959
140,1_21_1,21,1.0,632.748183411,1_I,training,01,1_A,141.0,11100,ignore,1.0,4000.0,2.73310482717
141,1_21_1,21,1.0,636.62332886,1_I,training,01,1_A,142.0,10010,kill,0.0,3900.0,1.89223177414
142,1_21_1,21,1.0,639.592242871,1_I,training,01,1_A,143.0,01100,ignore,1.0,4000.0,0.973970888397
143,1_21_1,21,1.0,647.561365354,1_I,training,01,1_A,144.0,01010,kill,1.0,4100.0,6.02274071404
144,1_21_1,21,1.0,650.874050172,1_I,training,01,1_A,145.0,00101,ignore,1.0,4200.0,1.35265041059
145,1_21_1,21,1.0,654.67106595,1_I,training,01,1_A,146.0,00010,kill,1.0,4300.0,1.80858594735
146,1_21_1,21,1.0,659.577573533,1_I,training,01,1_A,147.0,10011,ignore,1.0,4400.0,2.94237622886
147,1_21_1,21,1.0,662.765214251,1_I,training,01,1_A,148.0,11011,ignore,1.0,4500.0,1.22270498523
148,1_21_1,21,1.0,666.296625135,1_I,training,01,1_A,149.0,01001,ignore,1.0,4600.0,1.57286271798
149,1_21_1,21,1.0,673.359449468,1_I,training,01,1_A,150.0,00110,ignore,0.0,4500.0,5.05039365836
150,1_21_1,21,1.0,676.312709193,1_I,training,01,1_A,151.0,11001,ignore,1.0,4600.0,0.954721911832
151,1_21_1,21,1.0,679.437877414,1_I,training,01,1_A,152.0,00000,ignore,1.0,4700.0,1.14760905626
152,1_21_1,21,1.0,683.297432721,1_I,training,01,1_A,153.0,10110,kill,1.0,4800.0,1.88368957373
153,1_21_1,21,1.0,688.828945596,1_I,training,01,1_A,154.0,00111,kill,1.0,4900.0,3.57501446472
154,1_21_1,21,1.0,697.016835197,1_I,training,01,1_A,155.0,11101,ignore,1.0,5000.0,6.19576212695
155,1_21_1,21,1.0,709.132238612,1_I,training,01,1_A,156.0,01110,kill,1.0,5100.0,10.1669266681
156,1_21_1,21,1.0,712.429272672,1_I,training,01,1_A,157.0,01000,ignore,1.0,5200.0,1.33697752228
157,1_21_1,21,1.0,715.632541056,1_I,training,01,1_A,158.0,01101,ignore,1.0,5300.0,1.2177443254
158,1_21_1,21,1.0,719.617148802,1_I,training,01,1_A,159.0,11010,kill,0.0,5200.0,2.05721709133
159,1_21_1,21,1.0,722.914178372,1_I,training,01,1_A,160.0,00001,ignore,1.0,5300.0,1.34094810278
160,1_21_1,21,1.0,725.948289764,1_I,training,01,1_A,161.0,00100,ignore,1.0,5400.0,1.0296776838
161,1_21_1,21,1.0,729.729726306,1_I,training,01,1_A,162.0,00011,ignore,0.0,5300.0,1.83585690772
162,1_21_1,21,1.0,732.511137831,1_I,training,01,1_A,163.0,11101,ignore,1.0,5400.0,0.841396156171
163,1_21_1,21,1.0,740.980281161,1_I,training,01,1_A,164.0,01110,ignore,0.0,5300.0,6.54443425963
164,1_21_1,21,1.0,744.792949942,1_I,training,01,1_A,165.0,01101,ignore,1.0,5400.0,1.83742782075
165,1_21_1,21,1.0,748.480649674,1_I,training,01,1_A,166.0,00001,ignore,1.0,5500.0,1.68074383919
166,1_21_1,21,1.0,752.230805226,1_I,training,01,1_A,167.0,11100,ignore,1.0,5600.0,1.80465321245
167,1_21_1,21,1.0,755.434088684,1_I,training,01,1_A,168.0,00000,ignore,1.0,5700.0,1.24272466494
168,1_21_1,21,1.0,759.668721768,1_I,training,01,1_A,169.0,00010,kill,1.0,5800.0,2.2552393702
169,1_21_1,21,1.0,762.66886866,1_I,training,01,1_A,170.0,00101,ignore,1.0,5900.0,1.02657562769
170,1_21_1,21,1.0,765.543984282,1_I,training,01,1_A,171.0,11000,ignore,1.0,6000.0,0.904843979919
171,1_21_1,21,1.0,770.481747197,1_I,training,01,1_A,172.0,10011,kill,0.0,5900.0,2.99638253817
172,1_21_1,21,1.0,773.778763616,1_I,training,01,1_A,173.0,10110,ignore,0.0,5800.0,1.3049277534
173,1_21_1,21,1.0,777.216443463,1_I,training,01,1_A,174.0,11111,kill,1.0,5900.0,1.45909019183
174,1_21_1,21,1.0,780.279082417,1_I,training,01,1_A,175.0,10010,kill,0.0,5800.0,1.11986951608
175,1_21_1,21,1.0,784.076092744,1_I,training,01,1_A,176.0,11010,kill,0.0,5700.0,1.82616907617
176,1_21_1,21,1.0,786.826242202,1_I,training,01,1_A,177.0,01010,ignore,0.0,5600.0,0.825051989588
177,1_21_1,21,1.0,789.857675536,1_I,training,01,1_A,178.0,11011,ignore,1.0,5700.0,1.06265370765
178,1_21_1,21,1.0,793.732817457,1_I,training,01,1_A,179.0,00111,kill,1.0,5800.0,1.89088472744
179,1_21_1,21,1.0,796.795473731,1_I,training,01,1_A,180.0,10100,ignore,1.0,5900.0,1.08507305483
180,1_21_1,21,1.0,799.936269617,1_I,training,01,1_A,181.0,01100,ignore,1.0,6000.0,1.16837410181
181,1_21_1,21,1.0,803.295773609,1_I,training,01,1_A,182.0,11001,ignore,1.0,6100.0,1.43390811602
182,1_21_1,21,1.0,805.983397008,1_I,training,01,1_A,183.0,10000,ignore,1.0,6200.0,0.743632317832
183,1_21_1,21,1.0,808.624169161,1_I,training,01,1_A,184.0,10001,ignore,1.0,6300.0,0.648881053212
184,1_21_1,21,1.0,811.18680587,1_I,training,01,1_A,185.0,01000,ignore,1.0,6400.0,0.63143711922
185,1_21_1,21,1.0,813.811878194,1_I,training,01,1_A,186.0,01001,ignore,1.0,6500.0,0.66979619825
186,1_21_1,21,1.0,818.18712403,1_I,training,01,1_A,187.0,01011,ignore,0.0,6400.0,2.40259120468
187,1_21_1,21,1.0,821.077012905,1_I,training,01,1_A,188.0,00110,kill,1.0,6500.0,0.944081205107
188,1_21_1,21,1.0,826.43662915,1_I,training,01,1_A,189.0,01111,kill,1.0,6600.0,3.38578936295
189,1_21_1,21,1.0,830.514950935,1_I,training,01,1_A,190.0,11110,kill,1.0,6700.0,2.13671690082
190,1_21_1,21,1.0,833.561977939,1_I,training,01,1_A,191.0,10101,ignore,1.0,6800.0,1.03901207595
191,1_21_1,21,1.0,842.421781809,1_I,training,01,1_A,192.0,10111,kill,1.0,6900.0,6.88399362141
192,1_21_1,21,1.0,926.332004354,1_I,test,01,2,0.0,11101,ignore,0.0,0.0,2.63585799819
193,1_21_1,21,1.0,929.425924299,1_I,test,01,2,1.0,01101,ignore,1.0,100.0,1.11568020085
194,1_21_1,21,1.0,934.738631247,1_I,test,01,2,2.0,01111,ignore,1.0,200.0,3.38318378977
195,1_21_1,21,1.0,937.973154001,1_I,test,01,2,3.0,01100,ignore,1.0,300.0,1.25209337471
196,1_21_1,21,1.0,942.567147071,1_I,test,01,2,4.0,10011,kill,1.0,400.0,2.62467558625
197,1_21_1,21,1.0,945.707991387,1_I,test,01,2,5.0,00100,ignore,1.0,500.0,1.19013916917
198,1_21_1,21,1.0,949.973747343,1_I,test,01,2,6.0,00110,kill,0.0,400.0,2.2849423913
199,1_21_1,21,1.0,952.739535051,1_I,test,01,2,7.0,11100,ignore,1.0,500.0,0.840621925045
200,1_21_1,21,1.0,956.474072879,1_I,test,01,2,8.0,11110,kill,0.0,400.0,1.79128441544
201,1_21_1,21,1.0,959.161679921,1_I,test,01,2,9.0,10001,ignore,0.0,300.0,0.71785433422
202,1_21_1,21,1.0,961.34933411,1_I,test,01,2,10.0,01011,kill,0.0,200.0,0.257773421614
203,1_21_1,21,1.0,963.943214605,1_I,test,01,2,11.0,10000,ignore,0.0,100.0,0.648018943326
204,1_21_1,21,1.0,968.177756282,1_I,test,01,2,12.0,00000,ignore,1.0,200.0,2.25314727839
205,1_21_1,21,1.0,971.724830112,1_I,test,01,2,13.0,01001,ignore,1.0,300.0,1.60150894888
206,1_21_1,21,1.0,975.990650213,1_I,test,01,2,14.0,10010,kill,1.0,400.0,2.29549746435
207,1_21_1,21,1.0,980.037727571,1_I,test,01,2,15.0,10111,kill,1.0,500.0,2.09908362338
208,1_21_1,21,1.0,983.116010227,1_I,test,01,2,16.0,10101,ignore,0.0,400.0,1.13389900742
209,1_21_1,21,1.0,985.930542424,1_I,test,01,2,17.0,00001,ignore,1.0,500.0,0.838453821314
210,1_21_1,21,1.0,989.336963731,1_I,test,01,2,18.0,00010,ignore,1.0,600.0,1.47761657406
211,1_21_1,21,1.0,992.74339466,1_I,test,01,2,19.0,00101,ignore,1.0,700.0,1.42462536066
212,1_21_1,21,1.0,996.259152541,1_I,test,01,2,20.0,01010,ignore,1.0,800.0,1.60869512228
213,1_21_1,21,1.0,1001.02500792,1_I,test,01,2,21.0,00011,kill,0.0,700.0,2.76580246138
214,1_21_1,21,1.0,1004.38453565,1_I,test,01,2,22.0,11011,ignore,0.0,600.0,1.40520575818
215,1_21_1,21,1.0,1007.29093066,1_I,test,01,2,23.0,01110,ignore,1.0,700.0,0.972830388861
216,1_21_1,21,1.0,1011.02551788,1_I,test,01,2,24.0,11111,kill,1.0,800.0,1.76521136446
217,1_21_1,21,1.0,1014.54126325,1_I,test,01,2,25.0,11001,ignore,0.0,700.0,1.59021428306
218,1_21_1,21,1.0,1017.56336379,1_I,test,01,2,26.0,11010,kill,0.0,600.0,1.06053371273
219,1_21_1,21,1.0,1020.62857593,1_I,test,01,2,27.0,10110,kill,1.0,700.0,1.09803709638
220,1_21_1,21,1.0,1023.83185297,1_I,test,01,2,28.0,11000,ignore,1.0,800.0,1.28677822352
221,1_21_1,21,1.0,1027.31636226,1_I,test,01,2,29.0,01000,ignore,1.0,900.0,1.53877858786
222,1_21_1,21,1.0,1032.36351723,1_I,test,01,2,30.0,00111,ignore,1.0,1000.0,3.12591935937
223,1_21_1,21,1.0,1036.34803806,1_I,test,01,2,31.0,10100,ignore,0.0,900.0,2.03111132635
224,1_21_1,21,1.0,1039.64509457,1_I,test,01,2,32.0,11011,ignore,0.0,800.0,1.3400103017
225,1_21_1,21,1.0,1042.27586618,1_I,test,01,2,33.0,10101,kill,1.0,900.0,0.71911863376
226,1_21_1,21,1.0,1046.40104787,1_I,test,01,2,34.0,00001,ignore,1.0,1000.0,2.18699060788
227,1_21_1,21,1.0,1051.44978787,1_I,test,01,2,35.0,10100,kill,1.0,1100.0,3.09729942795
228,1_21_1,21,1.0,1070.04441181,1_I,test,01,2,36.0,00100,ignore,1.0,1200.0,16.6358204733
229,1_21_1,21,1.0,1079.48273663,1_I,test,01,2,37.0,01110,ignore,1.0,1300.0,7.47696229424
230,1_21_1,21,1.0,1082.34224127,1_I,test,01,2,38.0,00101,ignore,1.0,1400.0,0.941403789435
231,1_21_1,21,1.0,1085.42050468,1_I,test,01,2,39.0,10110,kill,1.0,1500.0,1.09432758636
232,1_21_1,21,1.0,1088.53000065,1_I,test,01,2,40.0,11110,kill,0.0,1400.0,1.17868349919
233,1_21_1,21,1.0,1092.3739655,1_I,test,01,2,41.0,11000,kill,0.0,1300.0,1.92450412645
234,1_21_1,21,1.0,1094.92329948,1_I,test,01,2,42.0,00000,ignore,1.0,1400.0,0.589985605844
235,1_21_1,21,1.0,1097.81406073,1_I,test,01,2,43.0,11101,ignore,0.0,1300.0,0.951120165546
236,1_21_1,21,1.0,1102.31430737,1_I,test,01,2,44.0,11001,ignore,0.0,1200.0,2.52746018836
237,1_21_1,21,1.0,1105.29876501,1_I,test,01,2,45.0,01000,ignore,1.0,1300.0,1.03297474095
238,1_21_1,21,1.0,1107.7832589,1_I,test,01,2,46.0,01101,ignore,1.0,1400.0,0.543261687555
239,1_21_1,21,1.0,1112.18975173,1_I,test,01,2,47.0,11111,kill,1.0,1500.0,2.45807734101
240,1_21_1,21,1.0,1116.00243591,1_I,test,01,2,48.0,11010,ignore,1.0,1600.0,1.92829542145
241,1_21_1,21,1.0,1120.47138135,1_I,test,01,2,49.0,01111,ignore,1.0,1700.0,2.54709179033
242,1_21_1,21,1.0,1123.3933819,1_I,test,01,2,50.0,01100,ignore,1.0,1800.0,0.972042366544
243,1_21_1,21,1.0,1130.84685522,1_I,test,01,2,51.0,00011,ignore,1.0,1900.0,5.55109027394
244,1_21_1,21,1.0,1133.72198913,1_I,test,01,2,52.0,01001,ignore,1.0,2000.0,0.950115653581
245,1_21_1,21,1.0,1136.78463289,1_I,test,01,2,53.0,10010,kill,1.0,2100.0,1.12791812009
246,1_21_1,21,1.0,1139.97229959,1_I,test,01,2,54.0,01010,ignore,1.0,2200.0,1.27586201367
247,1_21_1,21,1.0,1142.98808986,1_I,test,01,3,0.0,10111,kill,0.0,2100.0,1.04853890335
248,1_21_1,21,1.0,1145.84757974,1_I,test,01,3,1.0,10000,ignore,1.0,2200.0,0.976198326325
249,1_21_1,21,1.0,1148.56645847,1_I,test,01,3,2.0,10001,ignore,1.0,2300.0,0.735511229879
250,1_21_1,21,1.0,1152.01974354,1_I,test,01,3,3.0,00111,ignore,1.0,2400.0,1.49794415016
251,1_21_1,21,1.0,1156.06677824,1_I,test,01,3,4.0,10011,kill,1.0,2500.0,2.13472102663
252,1_21_1,21,1.0,1158.73883876,1_I,test,01,3,5.0,11100,ignore,1.0,2600.0,0.719753349334
253,1_21_1,21,1.0,1162.97340128,1_I,test,01,3,6.0,00010,ignore,0.0,2500.0,2.33301752572
254,1_21_1,21,1.0,1166.08291842,1_I,test,01,3,7.0,00110,ignore,1.0,2600.0,1.12479585828
255,1_21_1,21,1.0,1169.53619899,1_I,test,01,3,8.0,01011,kill,1.0,2700.0,1.52826937855
256,1_21_1,21,1.0,1172.47380283,1_I,test,01,3,9.0,00100,ignore,1.0,2800.0,1.00342085716
257,1_21_1,21,1.0,1175.28650785,1_I,test,01,3,10.0,01101,ignore,1.0,2900.0,0.866963102468
258,1_21_1,21,1.0,1179.91169467,1_I,test,01,3,11.0,00111,ignore,1.0,3000.0,2.72201061473
259,1_21_1,21,1.0,1183.22436923,1_I,test,01,3,12.0,10010,kill,1.0,3100.0,1.34595173981
260,1_21_1,21,1.0,1185.97449527,1_I,test,01,3,13.0,10000,ignore,1.0,3200.0,0.804037740401
261,1_21_1,21,1.0,1188.81835749,1_I,test,01,3,14.0,11101,ignore,1.0,3300.0,0.933850706173
262,1_21_1,21,1.0,1191.47477046,1_I,test,01,3,15.0,11001,ignore,1.0,3400.0,0.7121008412
263,1_21_1,21,1.0,1194.31861888,1_I,test,01,3,16.0,00110,ignore,1.0,3500.0,0.95787977416
264,1_21_1,21,1.0,1197.49068036,1_I,test,01,4,0.0,11111,ignore,1.0,3600.0,1.20694069018
265,1_21_1,21,1.0,1200.14703752,1_I,test,01,4,1.0,00001,ignore,0.0,3500.0,0.702356561978
266,1_21_1,21,1.0,1205.19417838,1_I,test,01,4,2.0,00010,kill,0.0,3400.0,3.16389549227
267,1_21_1,21,1.0,1207.744251,1_I,test,01,4,3.0,01011,ignore,1.0,3500.0,0.661703013408
268,1_21_1,21,1.0,1211.11940478,1_I,test,01,4,4.0,01000,ignore,1.0,3600.0,1.43638732339
269,1_21_1,21,1.0,1215.35399842,1_I,test,01,4,5.0,10111,kill,1.0,3700.0,2.32362219574
270,1_21_1,21,1.0,1219.72921058,1_I,test,01,4,6.0,00101,ignore,0.0,3600.0,2.41264177667
271,1_21_1,21,1.0,1222.94810406,1_I,test,01,4,7.0,01110,kill,0.0,3500.0,1.33394121488
272,1_21_1,21,1.0,1227.21397612,1_I,test,01,4,8.0,11110,ignore,1.0,3600.0,2.3031477274
273,1_21_1,21,1.0,1230.9797231,1_I,test,01,4,9.0,10001,ignore,0.0,3500.0,1.82550709894
274,1_21_1,21,1.0,1234.15173166,1_I,test,01,4,10.0,10100,ignore,0.0,3400.0,1.26564947536
275,1_21_1,21,1.0,1237.71440974,1_I,test,01,4,11.0,11000,ignore,1.0,3500.0,1.62315149913
276,1_21_1,21,1.0,1241.93335551,1_I,test,01,4,12.0,01001,ignore,1.0,3600.0,2.31960414788
277,1_21_1,21,1.0,1245.23038732,1_I,test,01,4,13.0,00011,kill,1.0,3700.0,1.31985110644
278,1_21_1,21,1.0,1248.37117359,1_I,test,01,4,14.0,11100,ignore,1.0,3800.0,1.21130736655
279,1_21_1,21,1.0,1251.80885568,1_I,test,01,4,15.0,01111,ignore,1.0,3900.0,1.53274413939
280,1_21_1,21,1.0,1254.85588653,1_I,test,01,4,16.0,11011,kill,0.0,3800.0,1.11048958091
281,1_21_1,21,1.0,1257.57471683,1_I,test,01,4,17.0,10101,ignore,0.0,3700.0,0.827839093348
282,1_21_1,21,1.0,1260.51237711,1_I,test,01,4,18.0,01010,kill,0.0,3600.0,1.02037985434
283,1_21_1,21,1.0,1263.8094208,1_I,test,01,4,19.0,11010,kill,0.0,3500.0,1.37180509389
284,1_21_1,21,1.0,1266.71579656,1_I,test,01,4,20.0,10110,ignore,0.0,3400.0,1.02347389231
285,1_21_1,21,1.0,1269.68468588,1_I,test,01,4,21.0,01100,ignore,1.0,3500.0,1.07205288634
286,1_21_1,21,1.0,1276.84128519,1_I,test,01,4,22.0,10011,ignore,0.0,3400.0,5.20508529371
287,1_21_1,21,1.0,1279.82581467,1_I,test,01,4,23.0,00000,ignore,1.0,3500.0,1.06630741145
288,1_21_1,21,1.0,1283.43532829,1_I,test,01,4,24.0,00011,ignore,0.0,3400.0,1.65522403952
289,1_21_1,21,1.0,1286.51357823,1_I,test,01,4,25.0,01010,ignore,1.0,3500.0,1.19903865767
290,1_21_1,21,1.0,1291.32945555,1_I,test,01,4,26.0,01000,ignore,1.0,3600.0,2.85374729147
291,1_21_1,21,1.0,1306.92399738,1_I,test,01,4,27.0,00110,ignore,0.0,3500.0,13.6581230764
292,1_21_1,21,1.0,1311.18979503,1_I,test,01,4,28.0,10111,kill,1.0,3600.0,2.3515647551
293,1_21_1,21,1.0,1314.79935387,1_I,test,01,4,29.0,01110,kill,0.0,3500.0,1.68847460432
294,1_21_1,21,1.0,1317.67448071,1_I,test,01,4,30.0,00000,ignore,1.0,3600.0,0.982826116797
295,1_21_1,21,1.0,1320.50272681,1_I,test,01,4,31.0,10101,ignore,0.0,3500.0,0.853862431894
296,1_21_1,21,1.0,1323.6747668,1_I,test,01,4,32.0,11111,kill,0.0,3400.0,1.2440422049
297,1_21_1,21,1.0,1326.92492171,1_I,test,01,4,33.0,10000,kill,0.0,3300.0,1.34818046064
298,1_21_1,21,1.0,1330.4094666,1_I,test,01,4,34.0,11000,ignore,1.0,3400.0,1.55825046858
299,1_21_1,21,1.0,1333.90959713,1_I,test,01,4,35.0,10011,ignore,0.0,3300.0,1.61872163986
300,1_21_1,21,1.0,1337.45666551,1_I,test,01,4,36.0,11100,ignore,1.0,3400.0,1.65899063867
301,1_21_1,21,1.0,1340.70683068,1_I,test,01,4,37.0,11001,ignore,1.0,3500.0,1.32892763537
302,1_21_1,21,1.0,1343.70696346,1_I,test,01,4,38.0,11011,kill,0.0,3400.0,1.1181844248
303,1_21_1,21,1.0,1346.28523714,1_I,test,01,4,39.0,01101,ignore,1.0,3500.0,0.641627527477
304,1_21_1,21,1.0,1350.3010117,1_I,test,01,4,40.0,01011,kill,0.0,3400.0,2.13075942644
305,1_21_1,21,1.0,1353.34802395,1_I,test,01,4,41.0,11101,ignore,1.0,3500.0,1.13355069963
306,1_21_1,21,1.0,1358.42641244,1_I,test,01,4,42.0,11010,kill,0.0,3400.0,3.15284746428
307,1_21_1,21,1.0,1361.44218893,1_I,test,01,4,43.0,10001,ignore,0.0,3300.0,1.13146021145
308,1_21_1,21,1.0,1364.3641869,1_I,test,01,4,44.0,00101,ignore,0.0,3200.0,0.998879064713
309,1_21_1,21,1.0,1367.37993965,1_I,test,01,4,45.0,00100,ignore,0.0,3100.0,1.07849658043
310,1_21_1,21,1.0,1370.44262223,1_I,test,01,4,46.0,10010,kill,0.0,3000.0,1.156593537
311,1_21_1,21,1.0,1373.56775966,1_I,test,01,4,47.0,01100,ignore,1.0,3100.0,1.19067670494
312,1_21_1,21,1.0,1376.27100623,1_I,test,01,4,48.0,00010,ignore,1.0,3200.0,0.817649967992
313,1_21_1,21,1.0,1378.97427269,1_I,test,01,4,49.0,11110,ignore,1.0,3300.0,0.752813403242
314,1_21_1,21,1.0,1381.72436506,1_I,test,01,4,50.0,10100,ignore,0.0,3200.0,0.810283546916
315,1_21_1,21,1.0,1385.72456423,1_I,test,01,4,51.0,00001,ignore,0.0,3100.0,2.10810819479
316,1_21_1,21,1.0,1388.72473165,1_I,test,01,4,52.0,01001,ignore,1.0,3200.0,1.07160002207
317,1_21_1,21,1.0,1398.28766535,1_I,test,01,4,53.0,01111,kill,0.0,3100.0,7.68753199236
318,1_21_1,21,1.0,1401.27218041,1_I,test,01,4,54.0,10110,kill,1.0,3200.0,1.02167333989
319,1_21_1,21,1.0,1404.49109795,1_I,test,01,4,55.0,00111,ignore,0.0,3100.0,1.27641205774
320,1_21_1,21,1.0,1407.83501115,1_I,test,01,4,56.0,00111,kill,1.0,3200.0,1.44323673512
321,1_21_1,21,1.0,1411.17889486,1_I,test,01,4,57.0,11110,kill,0.0,3100.0,1.41769063597
322,1_21_1,21,1.0,1414.31969652,1_I,test,01,4,58.0,01101,ignore,1.0,3200.0,1.26765304696
323,1_21_1,21,1.0,1424.64827552,1_I,test,01,4,59.0,11001,kill,0.0,3100.0,8.40952657082
324,1_21_1,21,1.0,1439.0396067,1_I,test,01,4,60.0,01001,ignore,1.0,3200.0,12.4510691702
325,1_21_1,21,1.0,1443.10235149,1_I,test,01,4,61.0,00000,ignore,1.0,3300.0,2.18656725034
326,1_21_1,21,1.0,1447.60253719,1_I,test,01,4,62.0,10101,kill,1.0,3400.0,2.59595655069
327,1_21_1,21,1.0,1451.47769451,1_I,test,01,4,63.0,00010,ignore,1.0,3500.0,1.92234372013
328,1_21_1,21,1.0,1454.43101678,1_I,test,01,4,64.0,00101,ignore,0.0,3400.0,1.04551093481
329,1_21_1,21,1.0,1457.77491427,1_I,test,01,4,65.0,10010,kill,0.0,3300.0,1.40447225918
330,1_21_1,21,1.0,1460.71254665,1_I,test,01,4,66.0,01110,ignore,1.0,3400.0,1.06310176104
331,1_21_1,21,1.0,1463.54080782,1_I,test,01,4,67.0,10011,ignore,0.0,3300.0,0.867288638752
332,1_21_1,21,1.0,1466.40028936,1_I,test,01,4,68.0,01100,ignore,1.0,3400.0,0.92879863961
333,1_21_1,21,1.0,1469.2910583,1_I,test,01,4,69.0,10100,ignore,0.0,3300.0,1.00607742568
334,1_21_1,21,1.0,1473.07246245,1_I,test,01,4,70.0,11111,ignore,1.0,3400.0,1.85489709205
335,1_21_1,21,1.0,1476.29141559,1_I,test,01,4,71.0,11101,ignore,1.0,3500.0,1.34245294638
336,1_21_1,21,1.0,1479.79155799,1_I,test,01,4,72.0,11100,kill,0.0,3400.0,1.54370749587
337,1_21_1,21,1.0,1482.45105762,1_I,test,01,4,73.0,00011,ignore,0.0,3300.0,0.721446138017
338,1_21_1,21,1.0,1485.13870604,1_I,test,01,4,74.0,00110,ignore,0.0,3200.0,0.807685350419
339,1_21_1,21,1.0,1487.73257403,1_I,test,01,4,75.0,11000,ignore,1.0,3300.0,0.67250087558
340,1_21_1,21,1.0,1490.8889809,1_I,test,01,4,76.0,00100,ignore,0.0,3200.0,1.27214865494
341,1_21_1,21,1.0,1493.87349371,1_I,test,01,4,77.0,01000,ignore,1.0,3300.0,1.10364754587
342,1_21_1,21,1.0,1503.13957168,1_I,test,01,4,78.0,10111,ignore,0.0,3200.0,7.32314463561
343,1_21_1,21,1.0,1506.04594103,1_I,test,01,4,79.0,01111,ignore,1.0,3300.0,1.04403944666
344,1_21_1,21,1.0,1509.74921839,1_I,test,01,4,80.0,11011,kill,0.0,3200.0,1.83783193476
345,1_21_1,21,1.0,1512.20247715,1_I,test,01,4,81.0,10110,ignore,0.0,3100.0,0.582852672862
346,1_21_1,21,1.0,1514.82760208,1_I,test,01,4,82.0,01011,ignore,1.0,3200.0,0.720555483571
347,1_21_1,21,1.0,1517.60896774,1_I,test,01,4,83.0,10000,ignore,1.0,3300.0,0.844252857343
348,1_21_1,21,1.0,1521.59364925,1_I,test,01,4,84.0,01010,kill,0.0,3200.0,2.10148489447
349,1_21_1,21,1.0,1524.31250297,1_I,test,01,4,85.0,10001,ignore,0.0,3100.0,0.842848721524
350,1_21_1,21,1.0,1526.92196238,1_I,test,01,4,86.0,00001,ignore,0.0,3000.0,0.673053164726
351,1_21_1,21,1.0,1529.34551619,1_I,test,01,4,87.0,11010,kill,0.0,2900.0,0.528420119488
352,1_21_1,21,1.0,1531.98626365,1_I,test,01,4,88.0,01000,ignore,1.0,3000.0,0.700408796602
353,1_21_1,21,1.0,1534.70514591,1_I,test,01,4,89.0,00000,ignore,1.0,3100.0,0.834920068815
354,1_21_1,21,1.0,1538.78345455,1_I,test,01,4,90.0,11000,ignore,1.0,3200.0,2.12861313204
355,1_21_1,21,1.0,1541.90860481,1_I,test,01,4,91.0,10101,ignore,0.0,3100.0,1.18730844675
356,1_21_1,21,1.0,1545.81819039,1_I,test,01,4,92.0,10100,kill,1.0,3200.0,2.02923604492
357,1_21_1,21,1.0,1549.59964906,1_I,test,01,4,93.0,10111,ignore,0.0,3100.0,1.84408479723
358,1_21_1,21,1.0,1552.92793621,1_I,test,01,4,94.0,00011,kill,1.0,3200.0,1.47706107766
359,1_21_1,21,1.0,1557.14684413,1_I,test,01,4,95.0,11111,ignore,1.0,3300.0,2.28234291191
360,1_21_1,21,1.0,1561.38420787,1_I,test,01,4,96.0,10011,kill,1.0,3400.0,2.30208869212
361,1_21_1,21,1.0,1565.04061667,1_I,test,01,4,97.0,01001,ignore,1.0,3500.0,1.7711659523
362,1_21_1,21,1.0,1575.04109358,1_I,test,01,4,98.0,11101,ignore,1.0,3600.0,8.06022774069
363,1_21_1,21,1.0,1578.55690214,1_I,test,01,4,99.0,00010,kill,0.0,3500.0,1.64711545986
364,1_21_1,21,1.0,1581.63515625,1_I,test,01,4,100.0,11100,ignore,1.0,3600.0,1.17363463988
365,1_21_1,21,1.0,1585.36972038,1_I,test,01,4,101.0,10010,kill,0.0,3500.0,1.79924257489
366,1_21_1,21,1.0,1588.16674385,1_I,test,01,4,102.0,10000,ignore,1.0,3600.0,0.92137384651
367,1_21_1,21,1.0,1592.38567166,1_I,test,01,4,103.0,10001,ignore,0.0,3500.0,2.32634226789
368,1_21_1,21,1.0,1596.44834268,1_I,test,01,4,104.0,01111,ignore,1.0,3600.0,2.14478987996
369,1_21_1,21,1.0,1600.12044265,1_I,test,01,4,105.0,01010,kill,0.0,3500.0,1.76403334005
370,1_21_1,21,1.0,1603.93309155,1_I,test,01,4,106.0,01100,ignore,1.0,3600.0,1.89292999334
371,1_21_1,21,1.0,1607.48013908,1_I,test,01,4,107.0,11011,kill,0.0,3500.0,1.68459895854
372,1_21_1,21,1.0,1610.4021656,1_I,test,01,4,108.0,00100,ignore,0.0,3400.0,0.943100426821
373,1_21_1,21,1.0,1613.91796389,1_I,test,01,4,109.0,11010,ignore,1.0,3500.0,1.5936437998
374,1_21_1,21,1.0,1617.51187999,1_I,test,01,4,110.0,10110,ignore,0.0,3400.0,1.70747822595
375,1_21_1,21,1.0,1620.46512111,1_I,test,01,5,0.0,00111,ignore,1.0,3500.0,1.02331673686
376,1_21_1,21,1.0,1623.68402133,1_I,test,01,5,1.0,00001,ignore,1.0,3600.0,1.3617519561
377,1_21_1,21,1.0,1629.07492562,1_I,test,01,5,2.0,01011,kill,0.0,3500.0,3.44281658484
378,1_21_1,21,1.0,1637.43468684,1_I,test,01,5,3.0,00101,ignore,1.0,3600.0,6.41510045761
379,1_21_1,21,1.0,1643.0756046,1_I,test,01,5,4.0,00110,ignore,1.0,3700.0,3.72344554018
380,1_21_1,21,1.0,1646.66949472,1_I,test,01,5,5.0,01101,ignore,1.0,3800.0,1.66893825779
381,1_21_1,21,1.0,1651.20095146,1_I,test,01,5,6.0,11110,ignore,1.0,3900.0,2.6859379871
382,1_21_1,21,1.0,1654.96676066,1_I,test,01,5,7.0,11001,ignore,0.0,3800.0,1.89153163058
383,1_21_1,21,1.0,1658.24819111,1_I,test,01,5,8.0,01110,ignore,1.0,3900.0,1.35146180225
384,1_21_1,21,1.0,1663.58267756,1_I,test,01,5,9.0,01011,ignore,1.0,4000.0,3.4849900511
385,1_21_1,21,1.0,1666.8797113,1_I,test,01,5,10.0,00010,kill,0.0,3900.0,1.43527184044
386,1_21_1,21,1.0,1669.84863782,1_I,test,01,5,11.0,01100,ignore,1.0,4000.0,1.10041623743
387,1_21_1,21,1.0,1673.44252088,1_I,test,01,5,12.0,11100,kill,0.0,3900.0,1.68924338311
388,1_21_1,21,1.0,1676.06764901,1_I,test,01,5,13.0,11000,ignore,1.0,4000.0,0.702107358338
389,1_21_1,21,1.0,1679.88032228,1_I,test,01,5,14.0,00011,ignore,1.0,4100.0,1.95756610471
390,1_21_1,21,1.0,1683.31800116,1_I,test,01,5,15.0,10001,ignore,0.0,4000.0,1.55317659269
391,1_21_1,21,1.0,1686.52127179,1_I,test,01,5,16.0,01110,ignore,1.0,4100.0,1.28352414357
392,1_21_1,21,1.0,1690.22456744,1_I,test,01,5,17.0,00000,ignore,1.0,4200.0,1.79282838753
393,1_21_1,21,1.0,1693.94352507,1_I,test,01,5,18.0,11110,ignore,1.0,4300.0,1.8097719899
394,1_21_1,21,1.0,1697.03742096,1_I,test,01,5,19.0,00001,ignore,1.0,4400.0,1.22791965957
395,1_21_1,21,1.0,1700.60007146,1_I,test,01,5,20.0,10011,kill,1.0,4500.0,1.60994980006
396,1_21_1,21,1.0,1704.11585147,1_I,test,01,5,21.0,10010,kill,1.0,4600.0,1.61042639801
397,1_21_1,21,1.0,1707.31916475,1_I,test,01,5,22.0,00110,ignore,1.0,4700.0,1.32410424602
398,1_21_1,21,1.0,1710.27238054,1_I,test,01,5,23.0,01000,ignore,1.0,4800.0,1.01549937587
399,1_21_1,21,1.0,1713.61633769,1_I,test,01,5,24.0,01010,ignore,1.0,4900.0,1.4825698572
400,1_21_1,21,1.0,1717.36651858,1_I,test,01,5,25.0,11011,kill,1.0,5000.0,1.80624240683
401,1_21_1,21,1.0,1720.33539987,1_I,test,01,6,0.0,11101,ignore,1.0,5100.0,1.04583454674
402,1_21_1,21,1.0,1723.38241854,1_I,test,01,6,1.0,10111,ignore,1.0,5200.0,1.16696258931
403,1_21_1,21,1.0,1726.35133768,1_I,test,01,6,2.0,10110,ignore,1.0,5300.0,1.04026194285
404,1_21_1,21,1.0,1729.82022668,1_I,test,01,6,3.0,01111,ignore,1.0,5400.0,1.62657363919
405,1_21_1,21,1.0,1732.92052104,1_I,test,01,6,4.0,10101,ignore,1.0,5500.0,1.18612657364
406,1_21_1,21,1.0,1735.79568509,1_I,test,01,6,5.0,01101,ignore,1.0,5600.0,0.930879826758
407,1_21_1,21,1.0,1738.5457874,1_I,test,01,6,6.0,01001,ignore,0.0,5500.0,0.897398018944
408,1_21_1,21,1.0,1743.67103933,1_I,test,01,6,7.0,00111,ignore,1.0,5600.0,3.23147457995
409,1_21_1,21,1.0,1747.45248197,1_I,test,01,6,8.0,10000,ignore,1.0,5700.0,1.8526946707
410,1_21_1,21,1.0,1750.81200167,1_I,test,01,6,9.0,10100,ignore,1.0,5800.0,1.43503642799
411,1_21_1,21,1.0,1753.79651737,1_I,test,01,6,10.0,00100,ignore,1.0,5900.0,1.04073180557
412,1_21_1,21,1.0,1757.9061102,1_I,test,01,6,11.0,11010,kill,1.0,6000.0,2.25096987362
413,1_21_1,21,1.0,1761.17189182,1_I,test,01,6,12.0,11111,ignore,1.0,6100.0,1.31098721845
414,1_21_1,21,1.0,1763.906429,1_I,test,01,6,13.0,00101,ignore,1.0,6200.0,0.78596775042
415,1_21_1,21,1.0,1766.81280252,1_I,test,01,6,14.0,11001,ignore,1.0,6300.0,1.03797645362
416,1_21_1,21,1.0,1770.35982151,1_I,test,01,6,15.0,01010,ignore,0.0,6200.0,1.62880620873
417,1_21_1,21,1.0,1773.31313864,1_I,test,01,6,16.0,11110,ignore,1.0,6300.0,1.12779720661
418,1_21_1,21,1.0,1776.04759854,1_I,test,01,6,17.0,01000,ignore,0.0,6200.0,0.78661593646
419,1_21_1,21,1.0,1779.06335834,1_I,test,01,6,18.0,10001,ignore,1.0,6300.0,1.09170982562
420,1_21_1,21,1.0,1781.76663186,1_I,test,01,6,19.0,11001,ignore,1.0,6400.0,0.818557941611
421,1_21_1,21,1.0,1785.15741556,1_I,test,01,6,20.0,10111,ignore,1.0,6500.0,1.45037640333
422,1_21_1,21,1.0,1788.14192997,1_I,test,01,6,21.0,11101,ignore,1.0,6600.0,1.1317183954
423,1_21_1,21,1.0,1791.01708857,1_I,test,01,6,22.0,01101,ignore,1.0,6700.0,0.951145823579
424,1_21_1,21,1.0,1793.51720403,1_I,test,01,6,23.0,00100,ignore,1.0,6800.0,0.552867734126
425,1_21_1,21,1.0,1796.03292022,1_I,test,01,6,24.0,01001,ignore,0.0,6700.0,0.662797649211
426,1_21_1,21,1.0,1799.56437697,1_I,test,01,6,25.0,10010,kill,1.0,6800.0,1.65444435607
427,1_21_1,21,1.0,1802.23635345,1_I,test,01,6,26.0,00101,ignore,1.0,6900.0,0.740338467935
428,1_21_1,21,1.0,1805.36492425,1_I,test,01,6,27.0,00010,ignore,0.0,6800.0,1.2329043738
429,1_21_1,21,1.0,1807.91193618,1_I,test,01,6,28.0,10101,ignore,1.0,6900.0,0.599520451377
430,1_21_1,21,1.0,1810.11517794,1_I,test,01,6,29.0,10011,ignore,0.0,6800.0,0.330841724579
431,1_21_1,21,1.0,1812.63092717,1_I,test,01,6,30.0,00110,ignore,1.0,6900.0,0.640516213951
432,1_21_1,21,1.0,1815.63105738,1_I,test,01,6,31.0,11000,ignore,1.0,7000.0,1.06362871288
433,1_21_1,21,1.0,1818.92805488,1_I,test,01,6,32.0,00011,ignore,0.0,6900.0,1.38968938386
434,1_21_1,21,1.0,1821.41256705,1_I,test,01,6,33.0,11111,ignore,1.0,7000.0,0.574954489064
435,1_21_1,21,1.0,1823.8658303,1_I,test,01,6,34.0,01100,ignore,1.0,7100.0,0.612208669079
436,1_21_1,21,1.0,1826.67846027,1_I,test,01,6,35.0,10110,ignore,1.0,7200.0,0.860389835314
437,1_21_1,21,1.0,1829.78798672,1_I,test,01,6,36.0,01110,ignore,1.0,7300.0,1.18660317159
438,1_21_1,21,1.0,1832.41309817,1_I,test,01,6,37.0,11100,ignore,1.0,7400.0,0.757936350119
439,1_21_1,21,1.0,1835.4601287,1_I,test,01,6,38.0,00000,ignore,0.0,7300.0,1.12850600975
440,1_21_1,21,1.0,1838.0383857,1_I,test,01,6,39.0,00001,ignore,0.0,7200.0,0.727367691148
441,1_21_1,21,1.0,1840.89787654,1_I,test,01,6,40.0,10100,ignore,1.0,7300.0,0.905693902241
442,1_21_1,21,1.0,1844.06990082,1_I,test,01,6,41.0,11011,kill,1.0,7400.0,1.25472268157
443,1_21_1,21,1.0,1846.74189206,1_I,test,01,6,42.0,11010,kill,1.0,7500.0,0.81615250108
444,1_21_1,21,1.0,1849.74205114,1_I,test,01,6,43.0,00111,ignore,1.0,7600.0,1.06386316315
445,1_21_1,21,1.0,1855.86734509,1_I,test,01,6,44.0,10000,ignore,1.0,7700.0,4.2726871529
446,1_21_1,21,1.0,1859.39874571,1_I,test,01,6,45.0,01011,kill,1.0,7800.0,1.62841813099
447,1_21_1,21,1.0,1862.32076742,1_I,test,01,6,46.0,01111,ignore,1.0,7900.0,0.996111845929
448,1_21_1,21,1.0,1865.80530749,1_I,test,01,6,47.0,11010,kill,1.0,8000.0,1.64837911795
449,1_21_1,21,1.0,1868.94607323,1_I,test,01,6,48.0,11001,ignore,1.0,8100.0,1.26460391054
450,1_21_1,21,1.0,1871.57120521,1_I,test,01,6,49.0,00100,ignore,1.0,8200.0,0.685599621802
451,1_21_1,21,1.0,1874.72759444,1_I,test,01,7,0.0,00010,kill,0.0,8100.0,1.24314577739
452,1_21_1,21,1.0,1877.39963732,1_I,test,01,7,1.0,10111,ignore,0.0,8000.0,0.737980815489
453,1_21_1,21,1.0,1879.86846602,1_I,test,01,7,2.0,01110,ignore,1.0,8100.0,0.616520501409
454,1_21_1,21,1.0,1882.75923657,1_I,test,01,7,3.0,10000,ignore,1.0,8200.0,0.935579736824
455,1_21_1,21,1.0,1885.3218566,1_I,test,01,7,4.0,00101,ignore,0.0,8100.0,0.617938749145
456,1_21_1,21,1.0,1887.88448978,1_I,test,01,7,5.0,10100,ignore,0.0,8000.0,0.683962318613
457,1_21_1,21,1.0,1890.74514839,1_I,test,01,7,6.0,00110,ignore,0.0,7900.0,0.921070440279
458,1_21_1,21,1.0,1894.96410826,1_I,test,01,7,7.0,00111,ignore,0.0,7800.0,2.35146019862
459,1_21_1,21,1.0,1898.38615595,1_I,test,01,7,8.0,01011,kill,0.0,7700.0,1.46369869516
460,1_21_1,21,1.0,1901.37069474,1_I,test,01,7,9.0,11110,ignore,1.0,7800.0,1.06106387182
461,1_21_1,21,1.0,1904.62081598,1_I,test,01,7,10.0,10001,ignore,0.0,7700.0,1.37318036442
462,1_21_1,21,1.0,1907.80846888,1_I,test,01,7,11.0,01101,ignore,1.0,7800.0,1.24648356667
463,1_21_1,21,1.0,1910.65247638,1_I,test,01,7,12.0,00011,kill,1.0,7900.0,1.00796842266
464,1_21_1,21,1.0,1917.84031724,1_I,test,01,7,13.0,00001,ignore,0.0,7800.0,5.31419543467
465,1_21_1,21,1.0,1921.15294913,1_I,test,01,7,14.0,00000,kill,0.0,7700.0,1.37081148659
466,1_21_1,21,1.0,1924.37183364,1_I,test,01,7,15.0,11000,ignore,1.0,7800.0,1.3756217262
467,1_21_1,21,1.0,1927.98140145,1_I,test,01,7,16.0,11111,ignore,1.0,7900.0,1.78909835109
468,1_21_1,21,1.0,1930.79402822,1_I,test,01,7,17.0,11011,kill,0.0,7800.0,0.977282057465
469,1_21_1,21,1.0,1933.87229516,1_I,test,01,7,18.0,01111,ignore,1.0,7900.0,1.16337880364
470,1_21_1,21,1.0,1937.16934975,1_I,test,01,7,19.0,11100,ignore,1.0,8000.0,1.37357164941
471,1_21_1,21,1.0,1939.98199512,1_I,test,01,7,20.0,10110,ignore,0.0,7900.0,0.970335786669
472,1_21_1,21,1.0,1943.26342108,1_I,test,01,7,21.0,10011,kill,1.0,8000.0,1.40588248878
473,1_21_1,21,1.0,1948.45116827,1_I,test,01,7,22.0,11101,kill,0.0,7900.0,3.2618322016
474,1_21_1,21,1.0,1951.59194845,1_I,test,01,7,23.0,01001,ignore,1.0,8000.0,1.24345848466
475,1_21_1,21,1.0,1954.38899116,1_I,test,01,7,24.0,01100,ignore,1.0,8100.0,0.866243073935
476,1_21_1,21,1.0,1956.85787086,1_I,test,01,7,25.0,01000,ignore,1.0,8200.0,0.636069997678
477,1_21_1,21,1.0,1961.43619264,1_I,test,01,7,26.0,10101,kill,1.0,8300.0,2.643253926
478,1_21_1,21,1.0,1965.24888516,1_I,test,01,7,27.0,10010,kill,0.0,8200.0,1.88082870313
479,1_21_1,21,1.0,1968.43655025,1_I,test,01,7,28.0,01010,kill,0.0,8100.0,1.34430866356
480,1_21_1,21,1.0,1971.26483002,1_I,test,01,7,29.0,11010,ignore,1.0,8200.0,0.899609420603
481,1_21_1,21,1.0,1974.07745326,1_I,test,01,7,30.0,10011,ignore,0.0,8100.0,0.963801006565
482,1_21_1,21,1.0,1977.2494445,1_I,test,01,7,31.0,10111,ignore,0.0,8000.0,1.22011576904
483,1_21_1,21,1.0,1980.32775538,1_I,test,01,7,32.0,01001,ignore,1.0,8100.0,1.14753945885
484,1_21_1,21,1.0,1982.90597646,1_I,test,01,7,33.0,00000,ignore,1.0,8200.0,0.679713669189
485,1_21_1,21,1.0,1986.20302046,1_I,test,01,7,34.0,00111,ignore,0.0,8100.0,1.37301262503
486,1_21_1,21,1.0,1988.98443327,1_I,test,01,7,35.0,10000,ignore,1.0,8200.0,0.929637336541
487,1_21_1,21,1.0,1991.70327993,1_I,test,01,7,36.0,11011,kill,0.0,8100.0,0.821964366125
488,1_21_1,21,1.0,1994.46902466,1_I,test,01,7,37.0,00011,kill,1.0,8200.0,0.829533806384
489,1_21_1,21,1.0,1999.57867073,1_I,test,01,7,38.0,10101,ignore,0.0,8100.0,3.15586998049
490,1_21_1,21,1.0,2003.23507665,1_I,test,01,7,39.0,10010,ignore,1.0,8200.0,1.78307031712
491,1_21_1,21,1.0,2007.04776146,1_I,test,01,7,40.0,10001,kill,1.0,8300.0,1.8954406318
492,1_21_1,21,1.0,2009.76662288,1_I,test,01,7,41.0,11001,kill,0.0,8200.0,0.820969796647
493,1_21_1,21,1.0,2013.59493793,1_I,test,01,7,42.0,00100,ignore,0.0,8100.0,1.87585008268
494,1_21_1,21,1.0,2016.03255812,1_I,test,01,7,43.0,01101,kill,0.0,8000.0,0.588130530108
495,1_21_1,21,1.0,2018.51706548,1_I,test,01,7,44.0,11100,ignore,1.0,8100.0,0.557648787721
496,1_21_1,21,1.0,2021.97029954,1_I,test,01,7,45.0,11110,ignore,1.0,8200.0,1.50347056959
497,1_21_1,21,1.0,2025.00171588,1_I,test,01,7,46.0,00001,ignore,0.0,8100.0,1.07376427709
498,1_21_1,21,1.0,2027.93936141,1_I,test,01,7,47.0,11101,ignore,1.0,8200.0,1.00733948014
499,1_21_1,21,1.0,2032.2302013,1_I,test,01,7,48.0,01100,kill,0.0,8100.0,2.45110509145
500,1_21_1,21,1.0,2035.71476607,1_I,test,01,7,49.0,01110,ignore,1.0,8200.0,1.53594722399
501,1_21_1,21,1.0,2040.18370702,1_I,test,01,7,50.0,01011,kill,0.0,8100.0,2.53866601324
502,1_21_1,21,1.0,2043.1056973,1_I,test,01,7,51.0,00101,ignore,0.0,8000.0,1.04617291205
503,1_21_1,21,1.0,2046.18401909,1_I,test,01,7,52.0,00110,ignore,0.0,7900.0,1.15701785671
504,1_21_1,21,1.0,2048.80909173,1_I,test,01,7,53.0,10100,kill,1.0,8000.0,0.770597306164
505,1_21_1,21,1.0,2051.57489836,1_I,test,01,7,54.0,01111,kill,0.0,7900.0,0.88638174277
506,1_21_1,21,1.0,2057.95019968,1_I,test,01,7,55.0,01010,kill,0.0,7800.0,4.42675690169
507,1_21_1,21,1.0,2060.51095021,1_I,test,01,7,56.0,11111,ignore,1.0,7900.0,0.698086744676
508,1_21_1,21,1.0,2063.18293824,1_I,test,01,7,57.0,01000,ignore,1.0,8000.0,0.759423874542
509,1_21_1,21,1.0,2067.13625409,1_I,test,01,7,58.0,10110,ignore,0.0,7900.0,2.1176805652
510,1_21_1,21,1.0,2069.90203475,1_I,test,01,7,59.0,11000,ignore,1.0,8000.0,0.865834149045
511,1_21_1,21,1.0,2073.83969439,1_I,test,01,7,60.0,00010,ignore,1.0,8100.0,2.02432798406
512,1_21_1,21,1.0,2077.63677688,1_I,test,01,7,61.0,11000,ignore,1.0,8200.0,1.97126428671
513,1_21_1,21,1.0,2081.73071061,1_I,test,01,7,62.0,00111,ignore,0.0,8100.0,2.21478819936
514,1_21_1,21,1.0,2084.71525774,1_I,test,01,7,63.0,10010,kill,0.0,8000.0,1.06108600188
515,1_21_1,21,1.0,2087.30912188,1_I,test,01,7,64.0,11101,ignore,1.0,8100.0,0.684636804139
516,1_21_1,21,1.0,2089.91862074,1_I,test,01,7,65.0,01011,ignore,1.0,8200.0,0.681788121101
517,1_21_1,21,1.0,2093.20002425,1_I,test,01,7,66.0,01111,ignore,1.0,8300.0,1.45107205674
518,1_21_1,21,1.0,2096.15329391,1_I,test,01,7,67.0,10110,kill,1.0,8400.0,1.02487000999
519,1_21_1,21,1.0,2100.02847464,1_I,test,01,7,68.0,10000,kill,0.0,8300.0,1.96100428104
520,1_21_1,21,1.0,2102.79420205,1_I,test,01,7,69.0,11011,ignore,1.0,8400.0,0.926062851917
521,1_21_1,21,1.0,2105.51309329,1_I,test,01,7,70.0,00001,ignore,0.0,8300.0,0.810225495617
522,1_21_1,21,1.0,2108.70075807,1_I,test,01,7,71.0,11110,ignore,1.0,8400.0,1.36726939523
523,1_21_1,21,1.0,2112.79467673,1_I,test,01,7,72.0,11100,ignore,1.0,8500.0,2.16936065315
524,1_21_1,21,1.0,2115.93553195,1_I,test,01,7,73.0,11111,ignore,1.0,8600.0,1.24262780586
525,1_21_1,21,1.0,2119.9669547,1_I,test,01,7,74.0,01100,ignore,1.0,8700.0,2.1726727844
526,1_21_1,21,1.0,2123.90465636,1_I,test,01,7,75.0,01010,ignore,1.0,8800.0,1.9974396491
527,1_21_1,21,1.0,2126.79541792,1_I,test,01,7,76.0,00000,ignore,1.0,8900.0,1.05609808039
528,1_21_1,21,1.0,2129.24863275,1_I,test,01,7,77.0,10101,ignore,0.0,8800.0,0.534900055549
529,1_21_1,21,1.0,2132.17067499,1_I,test,01,7,78.0,10001,ignore,0.0,8700.0,1.00299044367
530,1_21_1,21,1.0,2135.59272236,1_I,test,01,7,79.0,10011,kill,1.0,8800.0,1.56658131095
531,1_21_1,21,1.0,2138.24912634,1_I,test,01,7,80.0,10111,kill,1.0,8900.0,0.786470327128
532,1_21_1,21,1.0,2141.70239345,1_I,test,01,7,81.0,00100,ignore,0.0,8800.0,1.4986882331
533,1_21_1,21,1.0,2145.43694218,1_I,test,01,7,82.0,10100,kill,1.0,8900.0,1.81550206996
534,1_21_1,21,1.0,2148.76524536,1_I,test,01,7,83.0,00101,ignore,0.0,8800.0,1.3813838788
