,unique_id,pair_id,sbj_id,wall_time,condition,block,rule_id,rule_num,trial,stimulus,choice,correct,points,reaction_time
0,1_37_2,37,2.0,32.4171358007,1_I,training,02,1_A,1.0,01011,ignore,0.0,0.0,7.26333249996
1,1_37_2,37,2.0,36.6514959126,1_I,training,02,1_A,2.0,10000,ignore,0.0,0.0,2.07050783888
2,1_37_2,37,2.0,45.5293018391,1_I,training,02,1_A,3.0,10110,ignore,1.0,100.0,6.74317851807
3,1_37_2,37,2.0,50.0447917808,1_I,training,02,1_A,4.0,01111,ignore,1.0,200.0,2.36807080506
4,1_37_2,37,2.0,54.7478425582,1_I,training,02,1_A,5.0,00100,ignore,1.0,300.0,2.55935310203
5,1_37_2,37,2.0,59.9664169408,1_I,training,02,1_A,6.0,01010,kill,0.0,200.0,3.08860649846
6,1_37_2,37,2.0,65.2474983281,1_I,training,02,1_A,7.0,10001,kill,1.0,300.0,3.15660312061
7,1_37_2,37,2.0,69.0442757437,1_I,training,02,1_A,8.0,10010,ignore,1.0,400.0,1.67656702674
8,1_37_2,37,2.0,74.5128391446,1_I,training,02,1_A,9.0,00011,ignore,0.0,300.0,3.34467917225
9,1_37_2,37,2.0,86.543750059,1_I,training,02,1_A,10.0,01000,ignore,0.0,200.0,9.9223702733
10,1_37_2,37,2.0,89.9186603067,1_I,training,02,1_A,11.0,11110,ignore,1.0,300.0,1.25534931858
11,1_37_2,37,2.0,94.9810072044,1_I,training,02,1_A,12.0,11011,ignore,0.0,200.0,2.9474040292
12,1_37_2,37,2.0,99.9652432333,1_I,training,02,1_A,13.0,11000,kill,1.0,300.0,2.87295591597
13,1_37_2,37,2.0,105.230694072,1_I,training,02,1_A,14.0,01100,ignore,1.0,400.0,3.1384186601
14,1_37_2,37,2.0,114.683539071,1_I,training,02,1_A,15.0,00001,kill,1.0,500.0,7.32479059852
15,1_37_2,37,2.0,121.027115557,1_I,training,02,1_A,16.0,00110,ignore,1.0,600.0,4.24720972498
16,1_37_2,37,2.0,126.964472667,1_I,training,02,1_A,17.0,10011,kill,1.0,700.0,3.80825175061
17,1_37_2,37,2.0,132.198654609,1_I,training,02,1_A,18.0,00111,ignore,1.0,800.0,3.11839994811
18,1_37_2,37,2.0,142.104644704,1_I,training,02,1_A,19.0,00000,ignore,0.0,700.0,7.75860503286
19,1_37_2,37,2.0,147.213866826,1_I,training,02,1_A,20.0,01101,ignore,1.0,800.0,3.00298866401
20,1_37_2,37,2.0,161.447816818,1_I,training,02,1_A,21.0,10111,kill,0.0,700.0,12.131667071
21,1_37_2,37,2.0,165.869545226,1_I,training,02,1_A,22.0,10100,ignore,1.0,800.0,2.3085578013
22,1_37_2,37,2.0,169.760099775,1_I,training,02,1_A,23.0,00101,ignore,1.0,900.0,1.77871529322
23,1_37_2,37,2.0,176.119266989,1_I,training,02,1_A,24.0,11001,kill,1.0,1000.0,4.27163959011
24,1_37_2,37,2.0,183.603436307,1_I,training,02,1_A,25.0,01110,kill,0.0,900.0,5.4075392334
25,1_37_2,37,2.0,188.072051024,1_I,training,02,1_A,26.0,00010,ignore,1.0,1000.0,2.36563102069
26,1_37_2,37,2.0,196.103051434,1_I,training,02,1_A,27.0,11111,kill,0.0,900.0,5.94804692038
27,1_37_2,37,2.0,210.680749925,1_I,training,02,1_A,28.0,01001,kill,1.0,1000.0,12.4481887588
28,1_37_2,37,2.0,220.133619966,1_I,training,02,1_A,29.0,10101,kill,0.0,900.0,7.34121962945
29,1_37_2,37,2.0,224.66470433,1_I,training,02,1_A,30.0,11010,kill,0.0,800.0,2.4314924723
30,1_37_2,37,2.0,229.602060618,1_I,training,02,1_A,31.0,11100,kill,0.0,700.0,2.71009261164
31,1_37_2,37,2.0,233.133209846,1_I,training,02,1_A,32.0,11101,ignore,1.0,800.0,1.43298228847
32,1_37_2,37,2.0,236.805016358,1_I,training,02,1_A,33.0,00000,ignore,0.0,700.0,1.56383445593
33,1_37_2,37,2.0,240.773604596,1_I,training,02,1_A,34.0,01110,ignore,1.0,800.0,1.8787891477
34,1_37_2,37,2.0,247.72655859,1_I,training,02,1_A,35.0,01011,ignore,0.0,700.0,4.84586129561
35,1_37_2,37,2.0,255.460702558,1_I,training,02,1_A,36.0,01001,ignore,0.0,600.0,5.63016103891
36,1_37_2,37,2.0,264.944779095,1_I,training,02,1_A,37.0,11011,ignore,0.0,500.0,7.3843331605
37,1_37_2,37,2.0,269.11655256,1_I,training,02,1_A,38.0,10100,kill,0.0,400.0,2.04817044909
38,1_37_2,37,2.0,274.319503783,1_I,training,02,1_A,39.0,10000,ignore,0.0,300.0,3.10040884759
39,1_37_2,37,2.0,279.913127994,1_I,training,02,1_A,40.0,00110,ignore,1.0,400.0,3.47842517112
40,1_37_2,37,2.0,283.850502346,1_I,training,02,1_A,41.0,00111,ignore,1.0,500.0,1.85014313155
41,1_37_2,37,2.0,287.428525566,1_I,training,02,1_A,42.0,00100,ignore,1.0,600.0,1.45658739728
42,1_37_2,37,2.0,291.647151676,1_I,training,02,1_A,43.0,10110,ignore,1.0,700.0,2.10840229224
43,1_37_2,37,2.0,296.006407564,1_I,training,02,1_A,44.0,10101,ignore,1.0,800.0,2.24482330961
44,1_37_2,37,2.0,300.225010274,1_I,training,02,1_A,45.0,00010,ignore,1.0,900.0,2.11566417105
45,1_37_2,37,2.0,303.584299004,1_I,training,02,1_A,46.0,10011,ignore,0.0,800.0,1.24591573199
46,1_37_2,37,2.0,307.459209457,1_I,training,02,1_A,47.0,11100,ignore,1.0,900.0,1.76851442461
47,1_37_2,37,2.0,315.146482306,1_I,training,02,1_A,48.0,11101,ignore,1.0,1000.0,5.58258134359
48,1_37_2,37,2.0,319.240093174,1_I,training,02,1_A,49.0,11111,ignore,1.0,1100.0,1.99795719888
49,1_37_2,37,2.0,324.239930193,1_I,training,02,1_A,50.0,01010,kill,0.0,1000.0,2.90931498425
50,1_37_2,37,2.0,331.94287998,1_I,training,02,1_A,51.0,01000,kill,1.0,1100.0,5.59223333255
51,1_37_2,37,2.0,337.161439173,1_I,training,02,1_A,52.0,11001,kill,1.0,1200.0,3.12989398864
52,1_37_2,37,2.0,341.958180872,1_I,training,02,1_A,53.0,01101,ignore,1.0,1300.0,2.69850825434
53,1_37_2,37,2.0,347.723627401,1_I,training,02,1_A,54.0,00011,ignore,0.0,1200.0,3.66976412133
54,1_37_2,37,2.0,352.067224414,1_I,training,02,1_A,55.0,00101,ignore,1.0,1300.0,2.21678775272
55,1_37_2,37,2.0,356.879650441,1_I,training,02,1_A,56.0,00001,ignore,0.0,1200.0,2.54349922471
56,1_37_2,37,2.0,363.473185977,1_I,training,02,1_A,57.0,11000,kill,1.0,1300.0,4.48989375874
57,1_37_2,37,2.0,371.644808366,1_I,training,02,1_A,58.0,10001,ignore,0.0,1200.0,6.04886999353
58,1_37_2,37,2.0,376.847795717,1_I,training,02,1_A,59.0,01111,ignore,1.0,1300.0,3.10709926757
59,1_37_2,37,2.0,381.238275344,1_I,training,02,1_A,60.0,11110,ignore,1.0,1400.0,2.27429859791
60,1_37_2,37,2.0,384.972553555,1_I,training,02,1_A,61.0,01100,ignore,1.0,1500.0,1.62956535876
61,1_37_2,37,2.0,392.050496106,1_I,training,02,1_A,62.0,10010,ignore,1.0,1600.0,4.98414283843
62,1_37_2,37,2.0,396.769070694,1_I,training,02,1_A,63.0,10111,ignore,1.0,1700.0,2.61902128643
63,1_37_2,37,2.0,400.784600252,1_I,training,02,1_A,64.0,11010,kill,0.0,1600.0,1.93680289309
64,1_37_2,37,2.0,404.628240576,1_I,training,02,1_A,65.0,10010,kill,0.0,1500.0,1.7702419381
65,1_37_2,37,2.0,407.721869918,1_I,training,02,1_A,66.0,11110,ignore,1.0,1600.0,0.991513507899
66,1_37_2,37,2.0,410.83114582,1_I,training,02,1_A,67.0,00100,ignore,1.0,1700.0,1.00725654191
67,1_37_2,37,2.0,416.205999415,1_I,training,02,1_A,68.0,01011,kill,1.0,1800.0,3.28085600592
68,1_37_2,37,2.0,419.815285374,1_I,training,02,1_A,69.0,11000,ignore,0.0,1700.0,1.51515289603
69,1_37_2,37,2.0,423.065176686,1_I,training,02,1_A,70.0,01110,ignore,1.0,1800.0,1.17781401396
70,1_37_2,37,2.0,427.861946712,1_I,training,02,1_A,71.0,00010,kill,0.0,1700.0,2.69526382965
71,1_37_2,37,2.0,430.986867121,1_I,training,02,1_A,72.0,00101,ignore,1.0,1800.0,1.01135117582
72,1_37_2,37,2.0,435.127324066,1_I,training,02,1_A,73.0,10001,ignore,0.0,1700.0,2.03635167872
73,1_37_2,37,2.0,438.595983121,1_I,training,02,1_A,74.0,10011,ignore,0.0,1600.0,1.40103765758
74,1_37_2,37,2.0,442.970858473,1_I,training,02,1_A,75.0,00011,ignore,0.0,1500.0,2.27012473156
75,1_37_2,37,2.0,446.705116568,1_I,training,02,1_A,76.0,10000,ignore,0.0,1400.0,1.64873878789
76,1_37_2,37,2.0,452.033116286,1_I,training,02,1_A,77.0,11011,kill,1.0,1500.0,3.26074861928
77,1_37_2,37,2.0,455.79862973,1_I,training,02,1_A,78.0,01000,ignore,0.0,1400.0,1.67204749348
78,1_37_2,37,2.0,458.985995564,1_I,training,02,1_A,79.0,01010,kill,0.0,1300.0,1.1188067841
79,1_37_2,37,2.0,463.079643791,1_I,training,02,1_A,80.0,11001,kill,1.0,1400.0,1.98627636685
80,1_37_2,37,2.0,466.532709655,1_I,training,02,1_A,81.0,11100,ignore,1.0,1500.0,1.35255479457
81,1_37_2,37,2.0,470.345067945,1_I,training,02,1_A,82.0,00000,kill,1.0,1600.0,1.71027201358
82,1_37_2,37,2.0,473.704331633,1_I,training,02,1_A,83.0,00111,ignore,1.0,1700.0,1.24160885367
83,1_37_2,37,2.0,478.235475113,1_I,training,02,1_A,84.0,11010,kill,0.0,1600.0,2.37443567414
84,1_37_2,37,2.0,481.297874559,1_I,training,02,1_A,85.0,10100,ignore,1.0,1700.0,0.90494940003
85,1_37_2,37,2.0,484.719687947,1_I,training,02,1_A,86.0,11101,ignore,1.0,1800.0,1.37257022231
86,1_37_2,37,2.0,487.503958543,1_I,training,02,1_A,87.0,01100,ignore,1.0,1900.0,0.686599167197
87,1_37_2,37,2.0,491.517549985,1_I,training,02,1_A,88.0,11111,ignore,1.0,2000.0,1.93406834763
88,1_37_2,37,2.0,494.758098848,1_I,training,02,1_A,89.0,10110,ignore,1.0,2100.0,1.15745784567
89,1_37_2,37,2.0,498.058145115,1_I,training,02,1_A,90.0,00001,ignore,0.0,2000.0,1.21719746243
90,1_37_2,37,2.0,501.030307434,1_I,training,02,1_A,91.0,00110,ignore,1.0,2100.0,0.920355798808
91,1_37_2,37,2.0,503.811504386,1_I,training,02,1_A,92.0,10111,ignore,1.0,2200.0,0.675547678838
92,1_37_2,37,2.0,507.367684085,1_I,training,02,1_A,93.0,01111,ignore,1.0,2300.0,1.43922769309
93,1_37_2,37,2.0,511.055076808,1_I,training,02,1_A,94.0,01001,kill,1.0,2400.0,1.60087089998
94,1_37_2,37,2.0,514.026927124,1_I,training,02,1_A,95.0,01101,ignore,1.0,2500.0,0.882959729805
95,1_37_2,37,2.0,516.94872717,1_I,training,02,1_A,96.0,10101,ignore,1.0,2600.0,0.728342757067
96,1_37_2,37,2.0,520.685739105,1_I,training,02,1_A,97.0,00001,kill,1.0,2700.0,1.61730526781
97,1_37_2,37,2.0,524.335509146,1_I,training,02,1_A,98.0,01110,ignore,1.0,2800.0,1.55294225351
98,1_37_2,37,2.0,527.210477074,1_I,training,02,1_A,99.0,00110,ignore,1.0,2900.0,0.788462525315
99,1_37_2,37,2.0,530.122951503,1_I,training,02,1_A,100.0,01100,ignore,1.0,3000.0,0.79883581684
100,1_37_2,37,2.0,534.482182349,1_I,training,02,1_A,101.0,10011,kill,1.0,3100.0,2.2524251079
101,1_37_2,37,2.0,537.484512932,1_I,training,02,1_A,102.0,11001,kill,1.0,3200.0,0.907542722911
102,1_37_2,37,2.0,540.734396033,1_I,training,02,1_A,103.0,11101,ignore,1.0,3300.0,1.19244122534
103,1_37_2,37,2.0,543.624920614,1_I,training,02,1_A,104.0,10110,ignore,1.0,3400.0,0.801453771567
104,1_37_2,37,2.0,546.406143429,1_I,training,02,1_A,105.0,11111,ignore,1.0,3500.0,0.712448647732
105,1_37_2,37,2.0,550.640344255,1_I,training,02,1_A,106.0,01011,kill,1.0,3600.0,2.15414363076
106,1_37_2,37,2.0,553.905913326,1_I,training,02,1_A,107.0,01010,kill,0.0,3500.0,1.16476816712
107,1_37_2,37,2.0,557.655808538,1_I,training,02,1_A,108.0,10001,ignore,0.0,3400.0,1.66789620633
108,1_37_2,37,2.0,560.530816698,1_I,training,02,1_A,109.0,01111,ignore,1.0,3500.0,0.778167645167
109,1_37_2,37,2.0,563.924522276,1_I,training,02,1_A,110.0,00101,ignore,1.0,3600.0,1.29354428046
110,1_37_2,37,2.0,569.02127822,1_I,training,02,1_A,111.0,00010,kill,0.0,3500.0,3.03643173222
111,1_37_2,37,2.0,574.989887806,1_I,training,02,1_A,112.0,11010,kill,0.0,3400.0,3.89702944039
112,1_37_2,37,2.0,578.802274833,1_I,training,02,1_A,113.0,11000,ignore,0.0,3300.0,1.74692994826
113,1_37_2,37,2.0,581.645943894,1_I,training,02,1_A,114.0,00100,ignore,1.0,3400.0,0.715377374253
114,1_37_2,37,2.0,585.739571595,1_I,training,02,1_A,115.0,10010,ignore,1.0,3500.0,1.99029464204
115,1_37_2,37,2.0,588.598834667,1_I,training,02,1_A,116.0,01101,ignore,1.0,3600.0,0.764301968372
116,1_37_2,37,2.0,591.692460315,1_I,training,02,1_A,117.0,10000,ignore,0.0,3500.0,0.985395367818
117,1_37_2,37,2.0,594.223703554,1_I,training,02,1_A,118.0,11110,ignore,1.0,3600.0,0.471534001596
118,1_37_2,37,2.0,596.942325353,1_I,training,02,1_A,119.0,11100,ignore,1.0,3700.0,0.630347419876
119,1_37_2,37,2.0,599.707897914,1_I,training,02,1_A,120.0,10101,ignore,1.0,3800.0,0.564976552535
120,1_37_2,37,2.0,608.348287738,1_I,training,02,1_A,121.0,01000,kill,1.0,3900.0,6.57702768332
121,1_37_2,37,2.0,611.395013529,1_I,training,02,1_A,122.0,00111,ignore,1.0,4000.0,0.955313725563
122,1_37_2,37,2.0,615.160916157,1_I,training,02,1_A,123.0,00011,ignore,0.0,3900.0,1.65927957597
123,1_37_2,37,2.0,618.067100023,1_I,training,02,1_A,124.0,10111,ignore,1.0,4000.0,0.819330744526
124,1_37_2,37,2.0,621.660766108,1_I,training,02,1_A,125.0,00000,kill,1.0,4100.0,1.48145242503
125,1_37_2,37,2.0,626.566897837,1_I,training,02,1_A,126.0,11011,kill,1.0,4200.0,2.85251682047
126,1_37_2,37,2.0,629.848074467,1_I,training,02,1_A,127.0,10100,ignore,1.0,4300.0,1.19821575116
127,1_37_2,37,2.0,634.701153715,1_I,training,02,1_A,128.0,01001,kill,1.0,4400.0,2.76987861837
128,1_37_2,37,2.0,638.844806232,1_I,training,02,1_A,129.0,01000,ignore,0.0,4300.0,2.05329879948
129,1_37_2,37,2.0,641.735380076,1_I,training,02,1_A,130.0,00001,ignore,0.0,4200.0,0.80471954385
130,1_37_2,37,2.0,645.016490611,1_I,training,02,1_A,131.0,01101,ignore,1.0,4300.0,1.19608797018
131,1_37_2,37,2.0,652.535065691,1_I,training,02,1_A,132.0,10001,ignore,0.0,4200.0,5.41123277875
132,1_37_2,37,2.0,655.378735984,1_I,training,02,1_A,133.0,00101,ignore,1.0,4300.0,0.751299637789
133,1_37_2,37,2.0,660.769167579,1_I,training,02,1_A,134.0,01011,kill,1.0,4400.0,3.29056259547
134,1_37_2,37,2.0,664.097207529,1_I,training,02,1_A,135.0,11100,ignore,1.0,4500.0,1.20842934622
135,1_37_2,37,2.0,666.800260769,1_I,training,02,1_A,136.0,01110,ignore,1.0,4600.0,0.642417024547
136,1_37_2,37,2.0,669.64395241,1_I,training,02,1_A,137.0,01100,ignore,1.0,4700.0,0.720621904855
137,1_37_2,37,2.0,676.018762077,1_I,training,02,1_A,138.0,11011,kill,1.0,4800.0,4.27705654363
138,1_37_2,37,2.0,679.29991695,1_I,training,02,1_A,139.0,00011,ignore,0.0,4700.0,1.19338585664
139,1_37_2,37,2.0,682.243684908,1_I,training,02,1_A,140.0,10110,ignore,1.0,4800.0,0.867387887125
140,1_37_2,37,2.0,686.540412033,1_I,training,02,1_A,141.0,01001,kill,1.0,4900.0,2.20217901523
141,1_37_2,37,2.0,690.680886632,1_I,training,02,1_A,142.0,00100,ignore,1.0,5000.0,2.05259350762
142,1_37_2,37,2.0,694.258965274,1_I,training,02,1_A,143.0,11101,ignore,1.0,5100.0,1.46130644849
143,1_37_2,37,2.0,700.02441016,1_I,training,02,1_A,144.0,11001,kill,1.0,5200.0,3.68396314912
144,1_37_2,37,2.0,704.383649627,1_I,training,02,1_A,145.0,10000,kill,1.0,5300.0,2.26094321087
145,1_37_2,37,2.0,712.82087393,1_I,training,02,1_A,146.0,01010,ignore,1.0,5400.0,6.34320002989
146,1_37_2,37,2.0,718.070767294,1_I,training,02,1_A,147.0,11010,kill,0.0,5300.0,3.17171845307
147,1_37_2,37,2.0,721.117509507,1_I,training,02,1_A,148.0,11111,ignore,1.0,5400.0,0.910269878824
148,1_37_2,37,2.0,723.836199864,1_I,training,02,1_A,149.0,11110,ignore,1.0,5500.0,0.62195411826
149,1_37_2,37,2.0,726.617399279,1_I,training,02,1_A,150.0,00110,ignore,1.0,5600.0,0.701143040826
150,1_37_2,37,2.0,738.382663942,1_I,training,02,1_A,151.0,00000,kill,1.0,5700.0,9.66797708089
151,1_37_2,37,2.0,741.80443833,1_I,training,02,1_A,152.0,01111,ignore,1.0,5800.0,1.3155848565
152,1_37_2,37,2.0,746.42926288,1_I,training,02,1_A,153.0,00010,kill,0.0,5700.0,2.53047636759
153,1_37_2,37,2.0,749.46042586,1_I,training,02,1_A,154.0,10101,ignore,1.0,5800.0,0.940847852781
154,1_37_2,37,2.0,753.507202968,1_I,training,02,1_A,155.0,10011,ignore,0.0,5700.0,1.94961309527
155,1_37_2,37,2.0,757.553988696,1_I,training,02,1_A,156.0,10100,ignore,1.0,5800.0,1.94310002459
156,1_37_2,37,2.0,761.647575754,1_I,training,02,1_A,157.0,11000,ignore,0.0,5700.0,2.0023346885
157,1_37_2,37,2.0,765.256886756,1_I,training,02,1_A,158.0,10010,ignore,1.0,5800.0,1.5212829415
158,1_37_2,37,2.0,767.959906333,1_I,training,02,1_A,159.0,00111,ignore,1.0,5900.0,0.607545719786
159,1_37_2,37,2.0,770.61607737,1_I,training,02,1_A,160.0,10111,ignore,1.0,6000.0,0.556442438865
160,1_37_2,37,2.0,773.584730883,1_I,training,02,1_A,161.0,10111,ignore,1.0,6100.0,0.870280486939
161,1_37_2,37,2.0,776.069053328,1_I,training,02,1_A,162.0,10110,ignore,1.0,6200.0,0.403614148697
162,1_37_2,37,2.0,778.475219336,1_I,training,02,1_A,163.0,11111,ignore,1.0,6300.0,0.314936628418
163,1_37_2,37,2.0,784.178164197,1_I,training,02,1_A,164.0,00001,ignore,0.0,6200.0,3.6362767158
164,1_37_2,37,2.0,791.599866742,1_I,training,02,1_A,165.0,00011,ignore,0.0,6100.0,5.32778706262
165,1_37_2,37,2.0,794.42790977,1_I,training,02,1_A,166.0,01110,ignore,1.0,6200.0,0.730640497794
166,1_37_2,37,2.0,796.912170636,1_I,training,02,1_A,167.0,01101,ignore,1.0,6300.0,0.397359301868
167,1_37_2,37,2.0,800.771475994,1_I,training,02,1_A,168.0,01010,ignore,1.0,6400.0,1.76701762942
168,1_37_2,37,2.0,805.365076394,1_I,training,02,1_A,169.0,10010,kill,0.0,6300.0,2.49123619436
169,1_37_2,37,2.0,810.224324277,1_I,training,02,1_A,170.0,11011,ignore,0.0,6200.0,2.79126973473
170,1_37_2,37,2.0,816.208512684,1_I,training,02,1_A,171.0,11001,kill,1.0,6300.0,3.90603689604
171,1_37_2,37,2.0,821.552089992,1_I,training,02,1_A,172.0,00000,ignore,0.0,6200.0,3.26406078154
172,1_37_2,37,2.0,825.770729649,1_I,training,02,1_A,173.0,10000,kill,1.0,6300.0,2.02818211638
173,1_37_2,37,2.0,828.926905817,1_I,training,02,1_A,174.0,11110,ignore,1.0,6400.0,1.03749049108
174,1_37_2,37,2.0,837.251566688,1_I,training,02,1_A,175.0,11010,ignore,1.0,6500.0,6.2689699085
175,1_37_2,37,2.0,840.070337879,1_I,training,02,1_A,176.0,11100,ignore,1.0,6600.0,0.723076057804
176,1_37_2,37,2.0,931.961351812,1_I,test,02,2,0.0,11000,kill,0.0,0.0,3.03322097106
177,1_37_2,37,2.0,935.398748127,1_I,test,02,2,1.0,01100,ignore,1.0,100.0,1.33317158421
178,1_37_2,37,2.0,939.0392685,1_I,test,02,2,2.0,10011,ignore,0.0,0.0,1.5312703341
179,1_37_2,37,2.0,941.88291334,1_I,test,02,2,3.0,00111,ignore,0.0,0.0,0.730380221285
180,1_37_2,37,2.0,945.007817327,1_I,test,02,2,4.0,01001,kill,0.0,0.0,1.02652357206
181,1_37_2,37,2.0,949.617075781,1_I,test,02,2,5.0,01011,ignore,1.0,100.0,2.53998179707
182,1_37_2,37,2.0,956.976236016,1_I,test,02,2,6.0,01000,ignore,1.0,200.0,5.27330511345
183,1_37_2,37,2.0,963.163609649,1_I,test,02,2,7.0,10001,ignore,1.0,300.0,4.08269608694
184,1_37_2,37,2.0,967.83528397,1_I,test,02,2,8.0,00101,kill,0.0,200.0,2.52963683216
185,1_37_2,37,2.0,972.663254335,1_I,test,02,2,9.0,01111,ignore,1.0,300.0,2.72633033523
186,1_37_2,37,2.0,976.741318403,1_I,test,02,2,10.0,10101,ignore,1.0,400.0,1.96019042059
187,1_37_2,37,2.0,980.928706405,1_I,test,02,2,11.0,00100,ignore,1.0,500.0,2.07680866516
188,1_37_2,37,2.0,985.397287459,1_I,test,02,2,12.0,11101,kill,0.0,400.0,2.36997197306
189,1_37_2,37,2.0,989.350299339,1_I,test,02,2,13.0,10100,ignore,1.0,500.0,1.86164579323
190,1_37_2,37,2.0,993.475151599,1_I,test,02,2,14.0,00110,ignore,0.0,400.0,2.02690126037
191,1_37_2,37,2.0,996.740700554,1_I,test,02,2,15.0,00010,kill,1.0,500.0,1.16619229836
192,1_37_2,37,2.0,1001.0686818,1_I,test,02,2,16.0,11001,ignore,1.0,600.0,2.23810620513
193,1_37_2,37,2.0,1004.38112733,1_I,test,02,2,17.0,11011,ignore,0.0,500.0,1.21699137598
194,1_37_2,37,2.0,1008.02163251,1_I,test,02,2,18.0,11000,ignore,1.0,600.0,1.59176655907
195,1_37_2,37,2.0,1012.69339756,1_I,test,02,2,19.0,00010,kill,1.0,700.0,2.5603946186
196,1_37_2,37,2.0,1016.00574825,1_I,test,02,2,20.0,11110,ignore,0.0,600.0,1.24168521239
197,1_37_2,37,2.0,1021.66186838,1_I,test,02,2,21.0,01010,ignore,1.0,700.0,3.57406775646
198,1_37_2,37,2.0,1027.3336244,1_I,test,02,2,22.0,00011,ignore,0.0,600.0,3.5409321758
199,1_37_2,37,2.0,1037.53641552,1_I,test,02,2,23.0,01110,kill,0.0,500.0,8.14152391485
200,1_37_2,37,2.0,1040.9581821,1_I,test,02,2,24.0,01011,ignore,1.0,600.0,1.31599046091
201,1_37_2,37,2.0,1045.55179113,1_I,test,02,2,25.0,00101,kill,0.0,500.0,2.47988501854
202,1_37_2,37,2.0,1048.6766791,1_I,test,02,2,26.0,01111,kill,0.0,400.0,1.03194380983
203,1_37_2,37,2.0,1051.56723078,1_I,test,02,2,27.0,00001,ignore,1.0,500.0,0.773602132461
204,1_37_2,37,2.0,1054.08279461,1_I,test,02,2,28.0,10101,ignore,1.0,600.0,0.42878666399
205,1_37_2,37,2.0,1057.81703752,1_I,test,02,2,29.0,01000,kill,0.0,500.0,1.66101406848
206,1_37_2,37,2.0,1061.30132014,1_I,test,02,2,30.0,00100,ignore,1.0,600.0,1.34387822672
207,1_37_2,37,2.0,1066.44181486,1_I,test,02,2,31.0,10000,ignore,1.0,700.0,3.02861153156
208,1_37_2,37,2.0,1069.20740548,1_I,test,02,2,32.0,11111,ignore,0.0,600.0,0.67451560448
209,1_37_2,37,2.0,1073.3478378,1_I,test,02,2,33.0,11101,ignore,1.0,700.0,2.01716388101
210,1_37_2,37,2.0,1076.2384141,1_I,test,02,2,34.0,01001,ignore,1.0,800.0,0.771658679791
211,1_37_2,37,2.0,1079.09766527,1_I,test,02,2,35.0,10011,kill,1.0,900.0,0.780772052379
212,1_37_2,37,2.0,1082.75382522,1_I,test,02,2,36.0,01100,ignore,1.0,1000.0,1.51797611614
213,1_37_2,37,2.0,1085.78498779,1_I,test,02,2,37.0,00110,kill,1.0,1100.0,0.855850330334
214,1_37_2,37,2.0,1089.08174653,1_I,test,02,2,38.0,01101,ignore,1.0,1200.0,1.0268696495
215,1_37_2,37,2.0,1092.25355694,1_I,test,02,2,39.0,10110,kill,1.0,1300.0,1.06775112475
216,1_37_2,37,2.0,1096.76903087,1_I,test,02,2,40.0,10100,ignore,1.0,1400.0,2.4192463394
217,1_37_2,37,2.0,1099.83149067,1_I,test,02,2,41.0,00111,kill,1.0,1500.0,0.967897314759
218,1_37_2,37,2.0,1102.73763553,1_I,test,02,2,42.0,00000,ignore,1.0,1600.0,0.792555106572
219,1_37_2,37,2.0,1105.3156452,1_I,test,02,3,0.0,11100,ignore,0.0,1500.0,0.46911433323
220,1_37_2,37,2.0,1109.08120381,1_I,test,02,3,1.0,10111,kill,0.0,1400.0,1.63023493444
221,1_37_2,37,2.0,1114.36229258,1_I,test,02,3,2.0,10001,kill,0.0,1300.0,3.17719000719
222,1_37_2,37,2.0,1117.83093317,1_I,test,02,3,3.0,10010,ignore,0.0,1200.0,1.41675482815
223,1_37_2,37,2.0,1120.23708029,1_I,test,02,3,4.0,11010,ignore,0.0,1100.0,0.321014947015
224,1_37_2,37,2.0,1122.89959608,1_I,test,02,3,5.0,00011,ignore,1.0,1200.0,0.502567254177
225,1_37_2,37,2.0,1125.30894822,1_I,test,02,3,6.0,01100,ignore,0.0,1100.0,0.33882048762
226,1_37_2,37,2.0,1127.99951311,1_I,test,02,3,7.0,00000,ignore,0.0,1000.0,0.596754097405
227,1_37_2,37,2.0,1132.92127457,1_I,test,02,3,8.0,01111,ignore,1.0,1100.0,2.83463204743
228,1_37_2,37,2.0,1136.1242611,1_I,test,02,3,9.0,10110,ignore,1.0,1200.0,1.10246314357
229,1_37_2,37,2.0,1138.65743096,1_I,test,02,3,10.0,11101,ignore,1.0,1300.0,0.472811573355
230,1_37_2,37,2.0,1141.98626651,1_I,test,02,3,11.0,01011,kill,0.0,1200.0,1.22966446089
231,1_37_2,37,2.0,1145.12834341,1_I,test,02,3,12.0,00111,ignore,1.0,1300.0,1.00059609068
232,1_37_2,37,2.0,1147.68146179,1_I,test,02,3,13.0,01010,ignore,0.0,1200.0,0.459166351584
233,1_37_2,37,2.0,1151.15021896,1_I,test,02,3,14.0,10011,ignore,1.0,1300.0,1.34159074926
234,1_37_2,37,2.0,1154.45021185,1_I,test,02,3,15.0,11010,kill,1.0,1400.0,1.21679883705
235,1_37_2,37,2.0,1157.4813424,1_I,test,02,3,16.0,11001,kill,0.0,1300.0,0.988326968053
236,1_37_2,37,2.0,1160.63876946,1_I,test,02,3,17.0,01001,ignore,1.0,1400.0,1.06885463147
237,1_37_2,37,2.0,1163.82936781,1_I,test,02,3,18.0,10010,kill,1.0,1500.0,1.11706449151
238,1_37_2,37,2.0,1166.71990922,1_I,test,02,3,19.0,01000,ignore,0.0,1400.0,0.811647661145
239,1_37_2,37,2.0,1171.92604658,1_I,test,02,3,20.0,01110,ignore,1.0,1500.0,3.12644429857
240,1_37_2,37,2.0,1175.62912979,1_I,test,02,3,21.0,00100,ignore,0.0,1400.0,1.60994937745
241,1_37_2,37,2.0,1179.39778666,1_I,test,02,3,22.0,10101,kill,0.0,1300.0,1.69225053379
242,1_37_2,37,2.0,1183.27268685,1_I,test,02,3,23.0,00101,ignore,1.0,1400.0,1.77337551948
243,1_37_2,37,2.0,1188.42875834,1_I,test,02,3,24.0,10001,ignore,1.0,1500.0,3.08810975622
244,1_37_2,37,2.0,1192.52243243,1_I,test,02,3,25.0,11110,kill,0.0,1400.0,2.01567529643
245,1_37_2,37,2.0,1195.61605438,1_I,test,02,3,26.0,00010,ignore,0.0,1300.0,0.99207306134
246,1_37_2,37,2.0,1199.13177709,1_I,test,02,3,27.0,10111,ignore,1.0,1400.0,1.42684731663
247,1_37_2,37,2.0,1202.80669338,1_I,test,02,3,28.0,11011,kill,0.0,1300.0,1.59713630155
248,1_37_2,37,2.0,1205.85347746,1_I,test,02,3,29.0,10100,ignore,0.0,1200.0,0.957365968888
249,1_37_2,37,2.0,1208.97837775,1_I,test,02,3,30.0,11000,kill,1.0,1300.0,1.0373492685
250,1_37_2,37,2.0,1212.80028335,1_I,test,02,3,31.0,11111,ignore,1.0,1400.0,1.59760020132
251,1_37_2,37,2.0,1215.69397271,1_I,test,02,3,32.0,01101,kill,0.0,1300.0,0.841771998599
252,1_37_2,37,2.0,1219.46263205,1_I,test,02,3,33.0,00001,kill,0.0,1200.0,1.70668192199
253,1_37_2,37,2.0,1221.93769251,1_I,test,02,3,34.0,00110,ignore,1.0,1300.0,0.425191646027
254,1_37_2,37,2.0,1224.70639619,1_I,test,02,3,35.0,10000,kill,1.0,1400.0,0.680857073301
255,1_37_2,37,2.0,1227.45626554,1_I,test,02,3,36.0,11100,ignore,0.0,1300.0,0.668383506351
256,1_37_2,37,2.0,1231.52363528,1_I,test,02,3,37.0,11101,ignore,1.0,1400.0,1.98277207619
257,1_37_2,37,2.0,1234.35482503,1_I,test,02,3,38.0,11001,ignore,1.0,1500.0,0.768952460948
258,1_37_2,37,2.0,1237.11109004,1_I,test,02,3,39.0,01011,ignore,1.0,1600.0,0.702749858264
259,1_37_2,37,2.0,1239.79843227,1_I,test,02,3,40.0,10010,ignore,0.0,1500.0,0.602196914369
260,1_37_2,37,2.0,1243.09522179,1_I,test,02,3,41.0,11100,kill,1.0,1600.0,1.20749744137
261,1_37_2,37,2.0,1245.84513014,1_I,test,02,3,42.0,01111,kill,0.0,1500.0,0.655834401739
262,1_37_2,37,2.0,1248.81383538,1_I,test,02,3,43.0,01101,ignore,1.0,1600.0,0.860826373811
263,1_37_2,37,2.0,1251.75126638,1_I,test,02,3,44.0,10000,ignore,0.0,1500.0,0.852082478916
264,1_37_2,37,2.0,1254.73930475,1_I,test,02,3,45.0,00100,ignore,0.0,1400.0,0.880371333293
265,1_37_2,37,2.0,1257.80489895,1_I,test,02,3,46.0,10100,ignore,0.0,1300.0,0.897678489542
266,1_37_2,37,2.0,1260.33608717,1_I,test,02,3,47.0,11111,kill,0.0,1200.0,0.471705603458
267,1_37_2,37,2.0,1262.97045615,1_I,test,02,3,48.0,00110,ignore,1.0,1300.0,0.552635176494
268,1_37_2,37,2.0,1266.03919953,1_I,test,02,3,49.0,00001,ignore,1.0,1400.0,0.974415311813
269,1_37_2,37,2.0,1268.64847482,1_I,test,02,3,50.0,10101,ignore,1.0,1500.0,0.499217323085
270,1_37_2,37,2.0,1271.35154243,1_I,test,02,3,51.0,11010,ignore,0.0,1400.0,0.607379865354
271,1_37_2,37,2.0,1274.72642845,1_I,test,02,3,52.0,00111,ignore,1.0,1500.0,1.24922830478
272,1_37_2,37,2.0,1277.75759349,1_I,test,02,3,53.0,11000,ignore,0.0,1400.0,0.935238360324
273,1_37_2,37,2.0,1280.98257051,1_I,test,02,3,54.0,00010,kill,1.0,1500.0,1.13966995789
274,1_37_2,37,2.0,1283.89193147,1_I,test,02,3,55.0,00000,ignore,0.0,1400.0,0.831347801259
275,1_37_2,37,2.0,1287.03559712,1_I,test,02,3,56.0,11011,ignore,1.0,1500.0,1.09096130296
276,1_37_2,37,2.0,1289.89493368,1_I,test,02,3,57.0,10111,ignore,1.0,1600.0,0.785333870307
277,1_37_2,37,2.0,1292.48859648,1_I,test,02,3,58.0,10001,ignore,1.0,1700.0,0.466053415801
278,1_37_2,37,2.0,1295.46434397,1_I,test,02,3,59.0,01010,kill,1.0,1800.0,0.933578584416
279,1_37_2,37,2.0,1298.0893044,1_I,test,02,3,60.0,01000,kill,1.0,1900.0,0.557306195607
280,1_37_2,37,2.0,1300.79238802,1_I,test,02,3,61.0,01110,kill,0.0,1800.0,0.645056737406
281,1_37_2,37,2.0,1303.86038916,1_I,test,02,3,62.0,00011,ignore,1.0,1900.0,1.00228829852
282,1_37_2,37,2.0,1306.7821502,1_I,test,02,3,63.0,01001,ignore,1.0,2000.0,0.869064084264
283,1_37_2,37,2.0,1309.44065593,1_I,test,02,3,64.0,00101,ignore,1.0,2100.0,0.55540749079
284,1_37_2,37,2.0,1312.17496247,1_I,test,02,3,65.0,01100,ignore,0.0,2000.0,0.672027377476
285,1_37_2,37,2.0,1315.75622272,1_I,test,02,3,66.0,10011,ignore,1.0,2100.0,1.49333113289
286,1_37_2,37,2.0,1318.17799752,1_I,test,02,3,67.0,10110,ignore,1.0,2200.0,0.364082088091
287,1_37_2,37,2.0,1320.78731879,1_I,test,02,3,68.0,11110,ignore,1.0,2300.0,0.545259580659
288,1_37_2,37,2.0,1323.47528379,1_I,test,02,3,69.0,10001,ignore,1.0,2400.0,0.584622502588
289,1_37_2,37,2.0,1326.83453434,1_I,test,02,3,70.0,01001,kill,0.0,2300.0,1.3081776498
290,1_37_2,37,2.0,1331.47506826,1_I,test,02,3,71.0,01110,ignore,1.0,2400.0,2.57335220133
291,1_37_2,37,2.0,1335.08429593,1_I,test,02,3,72.0,00011,ignore,1.0,2500.0,1.49722583831
292,1_37_2,37,2.0,1337.94434065,1_I,test,02,3,73.0,00001,ignore,1.0,2600.0,0.747884021773
293,1_37_2,37,2.0,1340.61612499,1_I,test,02,3,74.0,01100,ignore,0.0,2500.0,0.598377336074
294,1_37_2,37,2.0,1344.03791293,1_I,test,02,3,75.0,00100,ignore,0.0,2400.0,1.32018444327
295,1_37_2,37,2.0,1347.00660092,1_I,test,02,3,76.0,00010,kill,1.0,2500.0,0.846144972374
296,1_37_2,37,2.0,1350.70958889,1_I,test,02,3,77.0,11100,ignore,0.0,2400.0,1.61928731037
297,1_37_2,37,2.0,1353.89701918,1_I,test,02,3,78.0,00110,ignore,1.0,2500.0,1.10473830511
298,1_37_2,37,2.0,1356.85003968,1_I,test,02,3,79.0,11111,ignore,1.0,2600.0,0.866176000289
299,1_37_2,37,2.0,1359.55309046,1_I,test,02,3,80.0,01010,ignore,0.0,2500.0,0.64368597516
300,1_37_2,37,2.0,1362.56861796,1_I,test,02,3,81.0,11101,kill,0.0,2400.0,0.915680263856
301,1_37_2,37,2.0,1365.4123133,1_I,test,02,3,82.0,00111,ignore,1.0,2500.0,0.736417897336
302,1_37_2,37,2.0,1368.30286087,1_I,test,02,3,83.0,10000,ignore,0.0,2400.0,0.835828744625
303,1_37_2,37,2.0,1372.63082897,1_I,test,02,3,84.0,01101,ignore,1.0,2500.0,2.24171764433
304,1_37_2,37,2.0,1375.95888165,1_I,test,02,3,85.0,10101,kill,0.0,2400.0,1.29332382544
305,1_37_2,37,2.0,1378.896295,1_I,test,02,3,86.0,10010,ignore,0.0,2300.0,0.839595774982
306,1_37_2,37,2.0,1381.72430683,1_I,test,02,3,87.0,10011,ignore,1.0,2400.0,0.734930954883
307,1_37_2,37,2.0,1384.36486045,1_I,test,02,3,88.0,10111,ignore,1.0,2500.0,0.605039018897
308,1_37_2,37,2.0,1387.67726698,1_I,test,02,3,89.0,11001,kill,0.0,2400.0,1.25638262453
309,1_37_2,37,2.0,1390.45841139,1_I,test,02,3,90.0,01011,ignore,1.0,2500.0,0.691879824506
310,1_37_2,37,2.0,1393.25840161,1_I,test,02,3,91.0,01000,ignore,0.0,2400.0,0.719427670841
311,1_37_2,37,2.0,1396.12085246,1_I,test,02,3,92.0,11000,ignore,0.0,2300.0,0.807060390309
312,1_37_2,37,2.0,1399.34583482,1_I,test,02,3,93.0,10100,ignore,0.0,2200.0,1.1852310734
313,1_37_2,37,2.0,1403.75192898,1_I,test,02,3,94.0,10110,ignore,1.0,2300.0,2.31132313657
314,1_37_2,37,2.0,1406.84561005,1_I,test,02,3,95.0,00000,kill,1.0,2400.0,0.997558984035
315,1_37_2,37,2.0,1409.73616132,1_I,test,02,3,96.0,01111,ignore,1.0,2500.0,0.830084598076
316,1_37_2,37,2.0,1412.75163463,1_I,test,02,3,97.0,11010,ignore,0.0,2400.0,0.934941136045
317,1_37_2,37,2.0,1415.90782681,1_I,test,02,3,98.0,11110,kill,0.0,2300.0,1.13996266633
318,1_37_2,37,2.0,1418.87649223,1_I,test,02,3,99.0,00101,ignore,1.0,2400.0,0.845748399648
319,1_37_2,37,2.0,1421.93892821,1_I,test,02,3,100.0,11011,kill,0.0,2300.0,1.00369765066
320,1_37_2,37,2.0,1424.9732572,1_I,test,02,3,101.0,10010,ignore,0.0,2200.0,0.971296509544
321,1_37_2,37,2.0,1429.93573428,1_I,test,02,3,102.0,11000,ignore,0.0,2100.0,2.90425970833
322,1_37_2,37,2.0,1433.60747921,1_I,test,02,3,103.0,01111,ignore,1.0,2200.0,1.61331655084
323,1_37_2,37,2.0,1436.49805265,1_I,test,02,3,104.0,01001,ignore,1.0,2300.0,0.831382285844
324,1_37_2,37,2.0,1439.326046,1_I,test,02,3,105.0,00101,ignore,1.0,2400.0,0.712080812162
325,1_37_2,37,2.0,1442.63843775,1_I,test,02,3,106.0,00100,ignore,0.0,2300.0,1.21396165889
326,1_37_2,37,2.0,1446.12274706,1_I,test,02,3,107.0,10000,ignore,0.0,2200.0,1.40912265058
327,1_37_2,37,2.0,1449.5132817,1_I,test,02,3,108.0,10110,kill,0.0,2100.0,1.3017204113
328,1_37_2,37,2.0,1457.15368835,1_I,test,02,3,109.0,00001,ignore,1.0,2200.0,5.55423788862
329,1_37_2,37,2.0,1463.01285741,1_I,test,02,3,110.0,00010,kill,1.0,2300.0,3.76256870746
330,1_37_2,37,2.0,1467.98152653,1_I,test,02,3,111.0,10011,ignore,1.0,2400.0,2.92140470493
331,1_37_2,37,2.0,1471.46573936,1_I,test,02,3,112.0,11100,kill,1.0,2500.0,1.43757448568
332,1_37_2,37,2.0,1475.84062292,1_I,test,02,3,113.0,11110,kill,0.0,2400.0,2.29176955594
333,1_37_2,37,2.0,1478.84054533,1_I,test,02,3,114.0,10100,ignore,0.0,2300.0,0.908804694502
334,1_37_2,37,2.0,1481.84048211,1_I,test,02,3,115.0,11101,ignore,1.0,2400.0,0.90803166506
335,1_37_2,37,2.0,1485.51221103,1_I,test,02,3,116.0,11010,kill,1.0,2500.0,1.6564543032
336,1_37_2,37,2.0,1488.44967242,1_I,test,02,3,117.0,00111,ignore,1.0,2600.0,0.839189760049
337,1_37_2,37,2.0,1491.66827636,1_I,test,02,3,118.0,01110,kill,0.0,2500.0,1.16615452953
338,1_37_2,37,2.0,1495.29318301,1_I,test,02,3,119.0,01010,ignore,0.0,2400.0,1.58605443392
339,1_37_2,37,2.0,1498.12127736,1_I,test,02,3,120.0,10111,ignore,1.0,2500.0,0.738343697183
340,1_37_2,37,2.0,1500.73056455,1_I,test,02,3,121.0,11111,ignore,1.0,2600.0,0.566664655066
341,1_37_2,37,2.0,1503.33981767,1_I,test,02,3,122.0,01101,ignore,1.0,2700.0,0.489018917669
342,1_37_2,37,2.0,1505.8241163,1_I,test,02,3,123.0,10101,ignore,1.0,2800.0,0.38780953507
343,1_37_2,37,2.0,1508.27714358,1_I,test,02,3,124.0,00011,ignore,1.0,2900.0,0.409277010153
344,1_37_2,37,2.0,1511.51143677,1_I,test,02,3,125.0,00110,kill,0.0,2800.0,1.14848159036
345,1_37_2,37,2.0,1515.15196535,1_I,test,02,3,126.0,00000,kill,1.0,2900.0,1.59420141707
346,1_37_2,37,2.0,1518.40187227,1_I,test,02,3,127.0,11011,ignore,1.0,3000.0,1.18686047003
347,1_37_2,37,2.0,1520.96432118,1_I,test,02,3,128.0,01011,ignore,1.0,3100.0,0.498318260696
348,1_37_2,37,2.0,1523.30799496,1_I,test,02,3,129.0,10001,ignore,1.0,3200.0,0.295061191664
349,1_37_2,37,2.0,1526.44853689,1_I,test,02,4,0.0,01000,kill,0.0,3100.0,1.10131571007
350,1_37_2,37,2.0,1529.27655159,1_I,test,02,4,1.0,11001,ignore,0.0,3000.0,0.723028846765
351,1_37_2,37,2.0,1537.49507876,1_I,test,02,4,2.0,01100,kill,0.0,2900.0,6.16404604349
352,1_37_2,37,2.0,1541.05747554,1_I,test,02,4,3.0,11100,ignore,1.0,3000.0,1.46071364206
353,1_37_2,37,2.0,1544.19803758,1_I,test,02,4,4.0,01001,ignore,1.0,3100.0,1.09411294769
354,1_37_2,37,2.0,1548.41667765,1_I,test,02,4,5.0,10010,ignore,0.0,3000.0,2.12217929439
355,1_37_2,37,2.0,1552.61961573,1_I,test,02,4,6.0,00111,ignore,1.0,3100.0,2.09245152966
356,1_37_2,37,2.0,1558.33826873,1_I,test,02,4,7.0,11010,ignore,1.0,3200.0,3.69379002418
357,1_37_2,37,2.0,1561.83816097,1_I,test,02,4,8.0,01110,ignore,1.0,3300.0,1.43320356456
358,1_37_2,37,2.0,1564.61926596,1_I,test,02,4,9.0,10101,ignore,0.0,3200.0,0.735736826787
359,1_37_2,37,2.0,1568.41609346,1_I,test,02,4,10.0,11111,ignore,0.0,3100.0,1.67905484322
360,1_37_2,37,2.0,1571.40036316,1_I,test,02,4,11.0,11101,ignore,0.0,3000.0,0.901275970689
361,1_37_2,37,2.0,1573.79092366,1_I,test,02,4,12.0,00010,ignore,1.0,3100.0,0.354086895406
362,1_37_2,37,2.0,1576.35333234,1_I,test,02,4,13.0,11000,ignore,1.0,3200.0,0.503972501007
363,1_37_2,37,2.0,1579.66576063,1_I,test,02,4,14.0,00011,kill,0.0,3100.0,1.2768106357
364,1_37_2,37,2.0,1582.79067816,1_I,test,02,4,15.0,10000,ignore,0.0,3000.0,1.02298397575
365,1_37_2,37,2.0,1586.66550733,1_I,test,02,4,16.0,00100,ignore,1.0,3100.0,1.76503681845
366,1_37_2,37,2.0,1589.58729177,1_I,test,02,4,17.0,00001,ignore,1.0,3200.0,0.904527374397
367,1_37_2,37,2.0,1592.38413241,1_I,test,02,4,18.0,01111,ignore,1.0,3300.0,0.754872487089
368,1_37_2,37,2.0,1595.1340034,1_I,test,02,4,19.0,10110,ignore,0.0,3200.0,0.69634311505
369,1_37_2,37,2.0,1597.86832143,1_I,test,02,4,20.0,01011,ignore,1.0,3300.0,0.707852345218
370,1_37_2,37,2.0,1600.69634927,1_I,test,02,4,21.0,10001,ignore,0.0,3200.0,0.733703467877
371,1_37_2,37,2.0,1603.80562641,1_I,test,02,4,22.0,01000,ignore,1.0,3300.0,1.08256841187
372,1_37_2,37,2.0,1606.60248141,1_I,test,02,4,23.0,10111,ignore,0.0,3200.0,0.732014544285
373,1_37_2,37,2.0,1609.28986962,1_I,test,02,4,24.0,11011,ignore,0.0,3100.0,0.627953204418
374,1_37_2,37,2.0,1612.24289669,1_I,test,02,4,25.0,01010,kill,0.0,3000.0,0.912769190159
375,1_37_2,37,2.0,1614.72721133,1_I,test,02,4,26.0,01100,kill,0.0,2900.0,0.40515938652
376,1_37_2,37,2.0,1618.2427645,1_I,test,02,4,27.0,00110,ignore,1.0,3000.0,1.47979264912
377,1_37_2,37,2.0,1621.33636428,1_I,test,02,4,28.0,11001,ignore,0.0,2900.0,1.02494836549
378,1_37_2,37,2.0,1623.9925423,1_I,test,02,4,29.0,10011,ignore,0.0,2800.0,0.579182559339
379,1_37_2,37,2.0,1626.92994292,1_I,test,02,4,30.0,00101,ignore,1.0,2900.0,0.885700022703
380,1_37_2,37,2.0,1629.85177048,1_I,test,02,4,31.0,11110,kill,0.0,2800.0,0.870480415424
381,1_37_2,37,2.0,1633.16415648,1_I,test,02,4,32.0,00000,ignore,1.0,2900.0,1.26447254391
382,1_37_2,37,2.0,1635.88286654,1_I,test,02,4,33.0,10100,ignore,0.0,2800.0,0.612093169138
383,1_37_2,37,2.0,1639.1171154,1_I,test,02,4,34.0,01101,kill,0.0,2700.0,1.18259300267
384,1_37_2,37,2.0,1642.1482636,1_I,test,02,4,35.0,10000,ignore,0.0,2600.0,0.979433229428
385,1_37_2,37,2.0,1645.42945583,1_I,test,02,4,36.0,10001,kill,1.0,2700.0,1.19673250349
386,1_37_2,37,2.0,1648.22623817,1_I,test,02,4,37.0,00011,ignore,1.0,2800.0,0.768624857392
387,1_37_2,37,2.0,1650.9449273,1_I,test,02,4,38.0,01011,ignore,1.0,2900.0,0.686869296444
388,1_37_2,37,2.0,1654.25731412,1_I,test,02,4,39.0,00101,kill,0.0,2800.0,1.20847532566
389,1_37_2,37,2.0,1658.94463171,1_I,test,02,4,40.0,00000,kill,0.0,2700.0,2.66369442388
390,1_37_2,37,2.0,1661.72583441,1_I,test,02,4,41.0,00001,ignore,1.0,2800.0,0.706835871029
391,1_37_2,37,2.0,1664.44450712,1_I,test,02,4,42.0,11001,ignore,0.0,2700.0,0.669701720658
392,1_37_2,37,2.0,1668.27253537,1_I,test,02,4,43.0,10100,ignore,0.0,2600.0,1.73862491076
393,1_37_2,37,2.0,1672.10053652,1_I,test,02,4,44.0,01100,kill,0.0,2500.0,1.79005045834
394,1_37_2,37,2.0,1676.60044477,1_I,test,02,4,45.0,10111,ignore,0.0,2400.0,2.47622965256
395,1_37_2,37,2.0,1681.28775292,1_I,test,02,4,46.0,11110,ignore,1.0,2500.0,2.59336434483
396,1_37_2,37,2.0,1686.16262479,1_I,test,02,4,47.0,01000,kill,0.0,2400.0,2.81327746831
397,1_37_2,37,2.0,1690.52189504,1_I,test,02,4,48.0,11101,kill,1.0,2500.0,2.34053240094
398,1_37_2,37,2.0,1694.72490374,1_I,test,02,4,49.0,00100,ignore,1.0,2600.0,2.10153698615
399,1_37_2,37,2.0,1700.49034575,1_I,test,02,4,50.0,11011,ignore,0.0,2500.0,3.74735402655
400,1_37_2,37,2.0,1705.41216386,1_I,test,02,4,51.0,11010,ignore,1.0,2600.0,2.8046107532
401,1_37_2,37,2.0,1709.1307676,1_I,test,02,4,52.0,01110,ignore,1.0,2700.0,1.62447559826
402,1_37_2,37,2.0,1713.41183462,1_I,test,02,4,53.0,11100,kill,0.0,2600.0,2.20888626697
403,1_37_2,37,2.0,1717.22427214,1_I,test,02,4,54.0,11000,ignore,1.0,2700.0,1.7077813234
404,1_37_2,37,2.0,1722.11471913,1_I,test,02,4,55.0,10110,ignore,0.0,2600.0,2.7770780965
405,1_37_2,37,2.0,1726.70832528,1_I,test,02,4,56.0,00010,kill,0.0,2500.0,2.4133667177
406,1_37_2,37,2.0,1730.14576757,1_I,test,02,4,57.0,10011,ignore,0.0,2400.0,1.33891532023
407,1_37_2,37,2.0,1733.59929775,1_I,test,02,4,58.0,00111,ignore,1.0,2500.0,1.42459145004
408,1_37_2,37,2.0,1737.63365301,1_I,test,02,4,59.0,01101,ignore,1.0,2600.0,1.9931905261
409,1_37_2,37,2.0,1740.12429476,1_I,test,02,4,60.0,11111,ignore,0.0,2500.0,0.437526453577
410,1_37_2,37,2.0,1743.93798276,1_I,test,02,4,61.0,01111,ignore,1.0,2600.0,1.75921959743
411,1_37_2,37,2.0,1747.76596585,1_I,test,02,4,62.0,00110,ignore,1.0,2700.0,1.52988725593
412,1_37_2,37,2.0,1751.07844217,1_I,test,02,4,63.0,01010,ignore,1.0,2800.0,1.1500403757
413,1_37_2,37,2.0,1754.76760469,1_I,test,02,4,64.0,10101,kill,1.0,2900.0,1.6372759477
414,1_37_2,37,2.0,1758.48623223,1_I,test,02,4,65.0,01001,kill,0.0,2800.0,1.65240688033
415,1_37_2,37,2.0,1761.7175109,1_I,test,02,4,66.0,10010,ignore,0.0,2700.0,1.21630825278
416,1_37_2,37,2.0,1764.84886104,1_I,test,02,4,67.0,00100,ignore,1.0,2800.0,1.03593129521
417,1_37_2,37,2.0,1767.66126613,1_I,test,02,4,68.0,10001,ignore,0.0,2700.0,0.791584201298
418,1_37_2,37,2.0,1771.09861647,1_I,test,02,4,69.0,11100,kill,0.0,2600.0,1.35377119724
419,1_37_2,37,2.0,1774.27041826,1_I,test,02,4,70.0,00011,ignore,1.0,2700.0,1.08352289592
420,1_37_2,37,2.0,1777.37987439,1_I,test,02,4,71.0,00111,ignore,1.0,2800.0,1.0505732857
421,1_37_2,37,2.0,1780.56710105,1_I,test,02,4,72.0,01010,ignore,1.0,2900.0,1.13889323367
422,1_37_2,37,2.0,1783.95767017,1_I,test,02,4,73.0,00000,kill,0.0,2800.0,1.36795421432
423,1_37_2,37,2.0,1787.19199744,1_I,test,02,4,74.0,10111,ignore,0.0,2700.0,1.10597318167
424,1_37_2,37,2.0,1789.97307288,1_I,test,02,4,75.0,11101,ignore,0.0,2600.0,0.696423989612
425,1_37_2,37,2.0,1793.80109292,1_I,test,02,4,76.0,01110,ignore,1.0,2700.0,1.78992565698
426,1_37_2,37,2.0,1796.36351063,1_I,test,02,4,77.0,00110,ignore,1.0,2800.0,0.438386515542
427,1_37_2,37,2.0,1798.72281332,1_I,test,02,4,78.0,10000,ignore,0.0,2700.0,0.376209988131
428,1_37_2,37,2.0,1801.56652343,1_I,test,02,4,79.0,10110,ignore,0.0,2600.0,0.778328162698
429,1_37_2,37,2.0,1805.05077321,1_I,test,02,4,80.0,01111,ignore,1.0,2700.0,1.43316045883
430,1_37_2,37,2.0,1807.69137857,1_I,test,02,4,81.0,10010,ignore,0.0,2600.0,0.620268889445
431,1_37_2,37,2.0,1811.25675539,1_I,test,02,4,82.0,11001,ignore,0.0,2500.0,1.52814906865
432,1_37_2,37,2.0,1814.1169594,1_I,test,02,4,83.0,01011,ignore,1.0,2600.0,0.79493413239
433,1_37_2,37,2.0,1817.30435889,1_I,test,02,4,84.0,00001,ignore,1.0,2700.0,1.13945976614
434,1_37_2,37,2.0,1820.86669737,1_I,test,02,4,85.0,10101,ignore,0.0,2600.0,1.46260085202
435,1_37_2,37,2.0,1824.02286985,1_I,test,02,4,86.0,11110,kill,0.0,2500.0,0.995764554034
436,1_37_2,37,2.0,1826.74160085,1_I,test,02,4,87.0,10100,ignore,0.0,2400.0,0.493711694913
437,1_37_2,37,2.0,1830.49147102,1_I,test,02,4,88.0,00010,ignore,1.0,2500.0,1.64476895534
438,1_37_2,37,2.0,1833.35076447,1_I,test,02,4,89.0,11010,ignore,1.0,2600.0,0.832952566043
439,1_37_2,37,2.0,1836.30380427,1_I,test,02,4,90.0,11000,ignore,1.0,2700.0,0.893395832538
440,1_37_2,37,2.0,1839.20999798,1_I,test,02,4,91.0,01100,ignore,1.0,2800.0,0.902559289881
441,1_37_2,37,2.0,1842.0067639,1_I,test,02,4,92.0,01001,ignore,1.0,2900.0,0.706200369395
442,1_37_2,37,2.0,1845.39733836,1_I,test,02,4,93.0,11111,kill,1.0,3000.0,1.33175648464
443,1_37_2,37,2.0,1848.33471313,1_I,test,02,4,94.0,01000,ignore,1.0,3100.0,0.900678648418
444,1_37_2,37,2.0,1851.03775775,1_I,test,02,4,95.0,00101,ignore,1.0,3200.0,0.602949417272
445,1_37_2,37,2.0,1853.72516771,1_I,test,02,4,96.0,01101,ignore,1.0,3300.0,0.675882261417
446,1_37_2,37,2.0,1856.72512666,1_I,test,02,4,97.0,10011,kill,1.0,3400.0,0.95499843793
447,1_37_2,37,2.0,1859.9593476,1_I,test,02,5,0.0,11011,kill,1.0,3500.0,1.177914594
448,1_37_2,37,2.0,1862.99054301,1_I,test,02,5,1.0,10100,ignore,1.0,3600.0,1.00036742504
449,1_37_2,37,2.0,1865.99044079,1_I,test,02,5,2.0,01110,kill,0.0,3500.0,0.961252874229
450,1_37_2,37,2.0,1869.41224761,1_I,test,02,5,3.0,00011,kill,1.0,3600.0,1.33471230619
451,1_37_2,37,2.0,1872.55271482,1_I,test,02,5,4.0,00100,ignore,1.0,3700.0,1.02700225094
452,1_37_2,37,2.0,1875.92767228,1_I,test,02,5,5.0,01010,kill,0.0,3600.0,1.28797994639
453,1_37_2,37,2.0,1879.6775445,1_I,test,02,5,6.0,00000,ignore,1.0,3700.0,1.71512407677
454,1_37_2,37,2.0,1883.03680737,1_I,test,02,5,7.0,10011,kill,1.0,3800.0,1.31811988402
455,1_37_2,37,2.0,1886.13050322,1_I,test,02,5,8.0,11000,ignore,1.0,3900.0,1.03292990474
456,1_37_2,37,2.0,1889.48976649,1_I,test,02,5,9.0,01111,kill,0.0,3800.0,1.30285799207
457,1_37_2,37,2.0,1892.31784195,1_I,test,02,5,10.0,11001,ignore,1.0,3900.0,0.727437126186
458,1_37_2,37,2.0,1894.70838357,1_I,test,02,5,11.0,11101,ignore,1.0,4000.0,0.383013714601
459,1_37_2,37,2.0,1897.19262966,1_I,test,02,5,12.0,11100,ignore,1.0,4100.0,0.372448294675
460,1_37_2,37,2.0,1899.52067453,1_I,test,02,5,13.0,00110,ignore,0.0,4000.0,0.228033832662
461,1_37_2,37,2.0,1902.6143515,1_I,test,02,5,14.0,01011,kill,0.0,3900.0,1.06162107928
462,1_37_2,37,2.0,1905.47366178,1_I,test,02,5,15.0,00101,ignore,1.0,4000.0,0.768849007193
463,1_37_2,37,2.0,1909.11419447,1_I,test,02,5,16.0,10110,kill,1.0,4100.0,1.62160680923
464,1_37_2,37,2.0,1912.67657688,1_I,test,02,5,17.0,00111,kill,1.0,4200.0,1.44146508579
465,1_37_2,37,2.0,1916.03588573,1_I,test,02,5,18.0,10001,ignore,1.0,4300.0,1.11245546254
466,1_37_2,37,2.0,1919.33261901,1_I,test,02,5,19.0,11110,kill,1.0,4400.0,1.27375874995
467,1_37_2,37,2.0,1922.42632143,1_I,test,02,5,20.0,11011,kill,1.0,4500.0,0.992502065997
468,1_37_2,37,2.0,1925.33239732,1_I,test,02,5,21.0,10111,kill,1.0,4600.0,0.880645157317
469,1_37_2,37,2.0,1928.12928476,1_I,test,02,5,22.0,00010,kill,1.0,4700.0,0.729931100621
470,1_37_2,37,2.0,1931.34790061,1_I,test,02,5,23.0,01001,ignore,1.0,4800.0,1.17130545911
471,1_37_2,37,2.0,1934.17593501,1_I,test,02,5,24.0,01101,ignore,1.0,4900.0,0.7952371041
472,1_37_2,37,2.0,1936.64463923,1_I,test,02,6,0.0,10101,ignore,1.0,5000.0,0.442123987682
473,1_37_2,37,2.0,1939.11331676,1_I,test,02,6,1.0,01100,ignore,0.0,4900.0,0.419162180592
474,1_37_2,37,2.0,1941.92574566,1_I,test,02,6,2.0,10000,ignore,0.0,4800.0,0.712124738954
475,1_37_2,37,2.0,1945.01939183,1_I,test,02,6,3.0,11111,kill,0.0,4700.0,1.00431262575
476,1_37_2,37,2.0,1948.8630104,1_I,test,02,6,4.0,01000,kill,1.0,4800.0,1.84315507677
477,1_37_2,37,2.0,1951.7535555,1_I,test,02,6,5.0,11010,kill,1.0,4900.0,0.825198460838
478,1_37_2,37,2.0,1955.06596737,1_I,test,02,6,6.0,00001,ignore,1.0,5000.0,1.23539670204
479,1_37_2,37,2.0,1957.95652767,1_I,test,02,6,7.0,10010,ignore,0.0,4900.0,0.85415524878
480,1_37_2,37,2.0,1960.80016799,1_I,test,02,6,8.0,00111,kill,0.0,4800.0,0.747675882672
481,1_37_2,37,2.0,1963.6282492,1_I,test,02,6,9.0,11101,ignore,1.0,4900.0,0.816953771362
482,1_37_2,37,2.0,1966.17502446,1_I,test,02,6,10.0,10001,ignore,1.0,5000.0,0.441818142258
483,1_37_2,37,2.0,1969.94053215,1_I,test,02,6,11.0,10011,kill,0.0,4900.0,1.70005513428
484,1_37_2,37,2.0,1972.6904598,1_I,test,02,6,12.0,11110,ignore,1.0,5000.0,0.723885213954
485,1_37_2,37,2.0,1975.33097196,1_I,test,02,6,13.0,01101,ignore,1.0,5100.0,0.604146525
486,1_37_2,37,2.0,1977.73714577,1_I,test,02,6,14.0,00100,ignore,0.0,5000.0,0.3927129146
487,1_37_2,37,2.0,1981.03398045,1_I,test,02,6,15.0,10110,kill,0.0,4900.0,1.22805230655
488,1_37_2,37,2.0,1984.51822326,1_I,test,02,6,16.0,10101,ignore,1.0,5000.0,1.40413634384
489,1_37_2,37,2.0,1987.47125484,1_I,test,02,6,17.0,01000,ignore,0.0,4900.0,0.916799370739
490,1_37_2,37,2.0,1990.97115406,1_I,test,02,6,18.0,01010,kill,1.0,5000.0,1.44411013555
491,1_37_2,37,2.0,1993.78358542,1_I,test,02,6,19.0,01110,kill,0.0,4900.0,0.825644297256
492,1_37_2,37,2.0,1997.15857654,1_I,test,02,6,20.0,11111,kill,0.0,4800.0,1.3139304175
493,1_37_2,37,2.0,2000.18962827,1_I,test,02,6,21.0,00011,ignore,1.0,4900.0,0.943797105841
494,1_37_2,37,2.0,2004.26762049,1_I,test,02,6,22.0,10000,ignore,0.0,4800.0,2.07040643778
495,1_37_2,37,2.0,2007.86130916,1_I,test,02,6,23.0,01011,ignore,1.0,4900.0,1.57058932924
496,1_37_2,37,2.0,2011.73618841,1_I,test,02,6,24.0,11010,kill,1.0,5000.0,1.84348924881
497,1_37_2,37,2.0,2014.76735385,1_I,test,02,6,25.0,01111,ignore,1.0,5100.0,0.959335284997
498,1_37_2,37,2.0,2020.98592044,1_I,test,02,6,26.0,11100,kill,1.0,5200.0,4.16356941726
499,1_37_2,37,2.0,2024.00147504,1_I,test,02,6,27.0,10010,ignore,0.0,5100.0,0.996397181952
500,1_37_2,37,2.0,2027.37633972,1_I,test,02,6,28.0,10111,kill,0.0,5000.0,1.2417373498
501,1_37_2,37,2.0,2030.15752271,1_I,test,02,6,29.0,00110,ignore,1.0,5100.0,0.704189179148
502,1_37_2,37,2.0,2032.89180585,1_I,test,02,6,30.0,00001,ignore,1.0,5200.0,0.70123582078
503,1_37_2,37,2.0,2035.73551021,1_I,test,02,6,31.0,00000,ignore,0.0,5100.0,0.748977675747
504,1_37_2,37,2.0,2041.64156928,1_I,test,02,6,32.0,11011,kill,0.0,5000.0,3.92505883932
505,1_37_2,37,2.0,2045.17276284,1_I,test,02,6,33.0,00010,ignore,0.0,4900.0,1.43501236313
506,1_37_2,37,2.0,2048.0475994,1_I,test,02,6,34.0,11000,ignore,0.0,4800.0,0.806113295819
507,1_37_2,37,2.0,2051.2506549,1_I,test,02,6,35.0,01001,ignore,1.0,4900.0,1.18216892438
508,1_37_2,37,2.0,2054.09432601,1_I,test,02,6,36.0,00101,ignore,1.0,5000.0,0.623972287531
509,1_37_2,37,2.0,2056.6880118,1_I,test,02,6,37.0,11001,ignore,1.0,5100.0,0.590776769378
510,1_37_2,37,2.0,2059.50040335,1_I,test,02,6,38.0,10100,ignore,0.0,5000.0,0.755063383898
511,1_37_2,37,2.0,2062.85969782,1_I,test,02,6,39.0,01100,kill,1.0,5100.0,1.29450492247
512,1_37_2,37,2.0,2066.28143526,1_I,test,02,6,40.0,10111,kill,0.0,5000.0,1.39838521827
513,1_37_2,37,2.0,2069.68758814,1_I,test,02,6,41.0,11000,ignore,0.0,4900.0,1.2083143976
514,1_37_2,37,2.0,2073.06252014,1_I,test,02,6,42.0,01111,ignore,1.0,5000.0,1.16756265007
515,1_37_2,37,2.0,2076.46870873,1_I,test,02,6,43.0,11110,kill,0.0,4900.0,1.32153344738
516,1_37_2,37,2.0,2082.53100062,1_I,test,02,6,44.0,00010,ignore,0.0,4800.0,3.93292666155
517,1_37_2,37,2.0,2086.10904683,1_I,test,02,6,45.0,00111,ignore,1.0,4900.0,1.52825457506
518,1_37_2,37,2.0,2089.42569865,1_I,test,02,6,46.0,01000,ignore,0.0,4800.0,1.07358353542
519,1_37_2,37,2.0,2092.61305463,1_I,test,02,6,47.0,10000,kill,1.0,4900.0,0.984513137189
520,1_37_2,37,2.0,2096.67544299,1_I,test,02,6,48.0,01100,ignore,0.0,4800.0,2.00575194663
521,1_37_2,37,2.0,2099.58164041,1_I,test,02,6,49.0,10010,ignore,0.0,4700.0,0.593006772526
522,1_37_2,37,2.0,2102.17531552,1_I,test,02,6,50.0,01001,ignore,1.0,4800.0,0.585250204137
523,1_37_2,37,2.0,2105.23773837,1_I,test,02,6,51.0,11010,kill,1.0,4900.0,0.961773016716
524,1_37_2,37,2.0,2108.28447771,1_I,test,02,6,52.0,00100,kill,1.0,5000.0,0.847632735889
525,1_37_2,37,2.0,2111.19066075,1_I,test,02,6,53.0,10011,ignore,1.0,5100.0,0.854186449118
526,1_37_2,37,2.0,2113.94055514,1_I,test,02,6,54.0,11101,ignore,1.0,5200.0,0.669709520742
527,1_37_2,37,2.0,2117.09669724,1_I,test,02,6,55.0,10100,kill,1.0,5300.0,1.1546231307
528,1_37_2,37,2.0,2120.00287987,1_I,test,02,6,56.0,11111,ignore,1.0,5400.0,0.859529096573
529,1_37_2,37,2.0,2123.00281788,1_I,test,02,6,57.0,00001,ignore,1.0,5500.0,0.798286526668
530,1_37_2,37,2.0,2125.64346634,1_I,test,02,6,58.0,01011,ignore,1.0,5600.0,0.626839434437
531,1_37_2,37,2.0,2128.37771787,1_I,test,02,6,59.0,00000,ignore,0.0,5500.0,0.655687021193
532,1_37_2,37,2.0,2131.28523309,1_I,test,02,6,60.0,10110,kill,0.0,5400.0,0.885080942299
533,1_37_2,37,2.0,2134.34358798,1_I,test,02,6,61.0,01110,ignore,1.0,5500.0,0.994327285805
534,1_37_2,37,2.0,2137.09628137,1_I,test,02,6,62.0,00110,ignore,1.0,5600.0,0.623049414357
535,1_37_2,37,2.0,2139.56497655,1_I,test,02,6,63.0,01010,ignore,0.0,5500.0,0.455004801157
536,1_37_2,37,2.0,2142.9242271,1_I,test,02,6,64.0,11011,ignore,1.0,5600.0,1.30698546844
537,1_37_2,37,2.0,2145.53353277,1_I,test,02,6,65.0,00101,ignore,1.0,5700.0,0.521017738624
538,1_37_2,37,2.0,2148.24293856,1_I,test,02,6,66.0,10101,ignore,1.0,5800.0,0.634264293963
539,1_37_2,37,2.0,2150.90230928,1_I,test,02,6,67.0,11001,ignore,1.0,5900.0,0.610212938205
540,1_37_2,37,2.0,2153.21477287,1_I,test,02,6,68.0,00011,ignore,1.0,6000.0,0.292010948035
541,1_37_2,37,2.0,2155.9959222,1_I,test,02,6,69.0,01101,ignore,1.0,6100.0,0.704123083693
542,1_37_2,37,2.0,2158.76146931,1_I,test,02,6,70.0,10001,ignore,1.0,6200.0,0.680795904216
543,1_37_2,37,2.0,2161.9488532,1_I,test,02,6,71.0,11100,kill,1.0,6300.0,1.1645464805
544,1_37_2,37,2.0,2165.10501213,1_I,test,02,6,72.0,10110,kill,0.0,6200.0,1.06719608715
545,1_37_2,37,2.0,2168.24555159,1_I,test,02,6,73.0,00100,ignore,0.0,6100.0,1.09866819713
546,1_37_2,37,2.0,2171.0891952,1_I,test,02,6,74.0,01110,ignore,1.0,6200.0,0.740645543216
547,1_37_2,37,2.0,2174.02663893,1_I,test,02,6,75.0,00001,ignore,1.0,6300.0,0.850079499283
548,1_37_2,37,2.0,2176.57346222,1_I,test,02,6,76.0,00101,ignore,1.0,6400.0,0.49842130392
