,unique_id,pair_id,sbj_id,wall_time,condition,block,rule_id,rule_num,trial,stimulus,choice,correct,points,reaction_time
0,1_16_2,16,2.0,44.3854925683,1_I,training,01,1_B,1.0,00011,ignore,1.0,100.0,5.10019875347
1,1_16_2,16,2.0,48.8075580842,1_I,training,01,1_B,2.0,00100,ignore,1.0,200.0,2.25866816253
2,1_16_2,16,2.0,52.1983522417,1_I,training,01,1_B,3.0,11111,kill,0.0,100.0,1.26304445926
3,1_16_2,16,2.0,57.4798374436,1_I,training,01,1_B,4.0,00000,kill,0.0,0.0,3.11594059269
4,1_16_2,16,2.0,62.2769594472,1_I,training,01,1_B,5.0,00110,ignore,1.0,100.0,2.64442340486
5,1_16_2,16,2.0,66.1365029332,1_I,training,01,1_B,6.0,01011,ignore,1.0,200.0,1.71321256743
6,1_16_2,16,2.0,69.6678847814,1_I,training,01,1_B,7.0,11001,kill,1.0,300.0,1.38798107592
7,1_16_2,16,2.0,75.1056613468,1_I,training,01,1_B,8.0,01101,kill,1.0,400.0,3.28374503236
8,1_16_2,16,2.0,78.8714917864,1_I,training,01,1_B,9.0,01010,ignore,0.0,300.0,1.63854515155
9,1_16_2,16,2.0,82.3247651569,1_I,training,01,1_B,10.0,11010,kill,1.0,400.0,1.31668993529
10,1_16_2,16,2.0,85.1373765889,1_I,training,01,1_B,11.0,11110,kill,1.0,500.0,0.688562582967
11,1_16_2,16,2.0,88.1531832146,1_I,training,01,1_B,12.0,10110,kill,0.0,400.0,0.860199048537
12,1_16_2,16,2.0,91.9345941686,1_I,training,01,1_B,13.0,10100,kill,0.0,300.0,1.64173604757
13,1_16_2,16,2.0,94.7628653342,1_I,training,01,1_B,14.0,00010,ignore,1.0,400.0,0.695715719357
14,1_16_2,16,2.0,98.0910952865,1_I,training,01,1_B,15.0,01100,ignore,0.0,300.0,1.22164876539
15,1_16_2,16,2.0,100.825619729,1_I,training,01,1_B,16.0,11000,kill,1.0,400.0,0.630132206174
16,1_16_2,16,2.0,103.49761204,1_I,training,01,1_B,17.0,01001,kill,1.0,500.0,0.57447931049
17,1_16_2,16,2.0,106.450911229,1_I,training,01,1_B,18.0,10001,kill,0.0,400.0,0.874182350937
18,1_16_2,16,2.0,109.216661487,1_I,training,01,1_B,19.0,11101,ignore,0.0,300.0,0.673419537881
19,1_16_2,16,2.0,112.482452317,1_I,training,01,1_B,20.0,10011,ignore,1.0,400.0,1.16829065923
20,1_16_2,16,2.0,115.060706885,1_I,training,01,1_B,21.0,10101,kill,0.0,300.0,0.483764083448
21,1_16_2,16,2.0,118.545207995,1_I,training,01,1_B,22.0,10111,kill,0.0,200.0,1.36934565303
22,1_16_2,16,2.0,121.701602953,1_I,training,01,1_B,23.0,01110,ignore,0.0,100.0,1.08506661304
23,1_16_2,16,2.0,125.046743147,1_I,training,01,1_B,24.0,01111,ignore,1.0,200.0,1.26799036413
24,1_16_2,16,2.0,131.625118308,1_I,training,01,1_B,25.0,10000,kill,0.0,100.0,4.48297991009
25,1_16_2,16,2.0,135.937872302,1_I,training,01,1_B,26.0,11100,ignore,0.0,0.0,2.25587849386
26,1_16_2,16,2.0,139.578633024,1_I,training,01,1_B,27.0,00111,ignore,1.0,100.0,1.56744548392
27,1_16_2,16,2.0,143.391348371,1_I,training,01,1_B,28.0,10010,ignore,1.0,200.0,1.74647562985
28,1_16_2,16,2.0,147.266504765,1_I,training,01,1_B,29.0,01000,ignore,0.0,100.0,1.79081333691
29,1_16_2,16,2.0,150.047897758,1_I,training,01,1_B,30.0,00001,ignore,1.0,200.0,0.704971851545
30,1_16_2,16,2.0,153.923076923,1_I,training,01,1_B,31.0,11011,kill,0.0,100.0,1.81646398431
31,1_16_2,16,2.0,156.470062378,1_I,training,01,1_B,32.0,00101,ignore,1.0,200.0,0.448505468205
32,1_16_2,16,2.0,163.304908412,1_I,training,01,1_B,33.0,00110,ignore,1.0,300.0,4.77767193843
33,1_16_2,16,2.0,167.852003555,1_I,training,01,1_B,34.0,10001,ignore,1.0,400.0,2.49150959947
34,1_16_2,16,2.0,174.649187138,1_I,training,01,1_B,35.0,10110,kill,0.0,300.0,4.73766081567
35,1_16_2,16,2.0,177.711863276,1_I,training,01,1_B,36.0,01001,ignore,0.0,200.0,0.996661570342
36,1_16_2,16,2.0,180.2775932,1_I,training,01,1_B,37.0,11001,kill,1.0,300.0,0.510762097838
37,1_16_2,16,2.0,184.30909516,1_I,training,01,1_B,38.0,01000,kill,1.0,400.0,1.97467553023
38,1_16_2,16,2.0,189.856187416,1_I,training,01,1_B,39.0,00001,ignore,1.0,500.0,3.45739308702
39,1_16_2,16,2.0,196.403356968,1_I,training,01,1_B,40.0,00111,ignore,1.0,600.0,4.47144438319
40,1_16_2,16,2.0,202.700570218,1_I,training,01,1_B,41.0,00100,ignore,1.0,700.0,4.20398802668
41,1_16_2,16,2.0,207.49763,1_I,training,01,1_B,42.0,11010,ignore,0.0,600.0,2.73232619174
42,1_16_2,16,2.0,210.747821714,1_I,training,01,1_B,43.0,11101,kill,1.0,700.0,1.19247398838
43,1_16_2,16,2.0,215.38865075,1_I,training,01,1_B,44.0,01101,ignore,0.0,600.0,2.58812200262
44,1_16_2,16,2.0,219.123183853,1_I,training,01,1_B,45.0,10111,ignore,1.0,700.0,1.67842958781
45,1_16_2,16,2.0,223.607787916,1_I,training,01,1_B,46.0,00011,ignore,1.0,800.0,2.40505296297
46,1_16_2,16,2.0,228.158250033,1_I,training,01,1_B,47.0,11100,kill,1.0,900.0,2.50357528529
47,1_16_2,16,2.0,231.970915988,1_I,training,01,1_B,48.0,10100,kill,0.0,800.0,1.74113106343
48,1_16_2,16,2.0,235.658623197,1_I,training,01,1_B,49.0,01100,kill,1.0,900.0,1.63464384899
49,1_16_2,16,2.0,243.03396064,1_I,training,01,1_B,50.0,11011,ignore,1.0,1000.0,5.30750917355
50,1_16_2,16,2.0,247.784204471,1_I,training,01,1_B,51.0,10101,ignore,1.0,1100.0,2.67030337085
51,1_16_2,16,2.0,252.59692944,1_I,training,01,1_B,52.0,11111,kill,0.0,1000.0,2.7733995567
52,1_16_2,16,2.0,257.206482307,1_I,training,01,1_B,53.0,00010,ignore,1.0,1100.0,2.54421887834
53,1_16_2,16,2.0,261.066058507,1_I,training,01,1_B,54.0,00101,kill,0.0,1000.0,1.79690711763
54,1_16_2,16,2.0,265.441273754,1_I,training,01,1_B,55.0,01110,ignore,0.0,900.0,2.32714654228
55,1_16_2,16,2.0,268.675773341,1_I,training,01,1_B,56.0,01111,kill,0.0,800.0,1.18107509046
56,1_16_2,16,2.0,271.832184656,1_I,training,01,1_B,57.0,11110,kill,1.0,900.0,1.14625971757
57,1_16_2,16,2.0,274.972960612,1_I,training,01,1_B,58.0,01011,ignore,1.0,1000.0,1.08013578226
58,1_16_2,16,2.0,277.598102333,1_I,training,01,1_B,59.0,10010,kill,0.0,900.0,0.609068892758
59,1_16_2,16,2.0,282.863992267,1_I,training,01,1_B,60.0,11000,kill,1.0,1000.0,3.22146146181
60,1_16_2,16,2.0,289.098630407,1_I,training,01,1_B,61.0,10000,ignore,1.0,1100.0,4.19046688945
61,1_16_2,16,2.0,291.676905501,1_I,training,01,1_B,62.0,01010,kill,1.0,1200.0,0.577341142354
62,1_16_2,16,2.0,296.442747487,1_I,training,01,1_B,63.0,00000,kill,0.0,1100.0,2.71910172541
63,1_16_2,16,2.0,299.28889556,1_I,training,01,1_B,64.0,10011,kill,0.0,1000.0,0.796418332277
64,1_16_2,16,2.0,302.242171015,1_I,training,01,1_B,65.0,10011,ignore,1.0,1100.0,0.896075059984
65,1_16_2,16,2.0,307.383031322,1_I,training,01,1_B,66.0,10101,kill,0.0,1000.0,3.09560660861
66,1_16_2,16,2.0,310.820683126,1_I,training,01,1_B,67.0,11011,ignore,1.0,1100.0,1.40683234694
67,1_16_2,16,2.0,319.322607638,1_I,training,01,1_B,68.0,11010,ignore,0.0,1000.0,6.49115295293
68,1_16_2,16,2.0,322.775865614,1_I,training,01,1_B,69.0,01100,ignore,0.0,900.0,1.39886553046
69,1_16_2,16,2.0,326.58858962,1_I,training,01,1_B,70.0,01101,kill,1.0,1000.0,1.79473099646
70,1_16_2,16,2.0,331.213803825,1_I,training,01,1_B,71.0,11001,ignore,0.0,900.0,2.59075996822
71,1_16_2,16,2.0,334.620191325,1_I,training,01,1_B,72.0,11111,ignore,1.0,1000.0,1.3950998947
72,1_16_2,16,2.0,338.964161834,1_I,training,01,1_B,73.0,10010,ignore,1.0,1100.0,2.30292216029
73,1_16_2,16,2.0,342.511189304,1_I,training,01,1_B,74.0,10001,ignore,1.0,1200.0,1.5018513868
74,1_16_2,16,2.0,345.573863518,1_I,training,01,1_B,75.0,00001,ignore,1.0,1300.0,1.02971936857
75,1_16_2,16,2.0,349.433413098,1_I,training,01,1_B,76.0,00101,ignore,1.0,1400.0,1.79982443497
76,1_16_2,16,2.0,353.214823731,1_I,training,01,1_B,77.0,11100,ignore,0.0,1300.0,1.77214969019
77,1_16_2,16,2.0,356.87121468,1_I,training,01,1_B,78.0,00110,ignore,1.0,1400.0,1.60807111634
78,1_16_2,16,2.0,359.82451868,1_I,training,01,1_B,79.0,00011,ignore,1.0,1500.0,0.915877281521
79,1_16_2,16,2.0,362.590254184,1_I,training,01,1_B,80.0,00010,ignore,1.0,1600.0,0.756210925636
80,1_16_2,16,2.0,365.465390693,1_I,training,01,1_B,81.0,00111,ignore,1.0,1700.0,0.834434543653
81,1_16_2,16,2.0,368.262417121,1_I,training,01,1_B,82.0,01011,ignore,1.0,1800.0,0.782208918536
82,1_16_2,16,2.0,371.153157236,1_I,training,01,1_B,83.0,00000,ignore,1.0,1900.0,0.850910202367
83,1_16_2,16,2.0,374.418955122,1_I,training,01,1_B,84.0,11110,kill,1.0,2000.0,1.26184590881
84,1_16_2,16,2.0,378.200378905,1_I,training,01,1_B,85.0,10111,ignore,1.0,2100.0,1.78520096487
85,1_16_2,16,2.0,381.419257887,1_I,training,01,1_B,86.0,10110,kill,0.0,2000.0,1.22270651743
86,1_16_2,16,2.0,384.497573873,1_I,training,01,1_B,87.0,01000,ignore,0.0,1900.0,1.0507384219
87,1_16_2,16,2.0,387.34139733,1_I,training,01,1_B,88.0,10000,ignore,1.0,2000.0,0.828976119756
88,1_16_2,16,2.0,391.404102012,1_I,training,01,1_B,89.0,10100,ignore,1.0,2100.0,2.02441200629
89,1_16_2,16,2.0,395.310557026,1_I,training,01,1_B,90.0,01110,ignore,0.0,2000.0,1.91659634764
90,1_16_2,16,2.0,399.107606225,1_I,training,01,1_B,91.0,01111,ignore,1.0,2100.0,1.77991252538
91,1_16_2,16,2.0,405.029774213,1_I,training,01,1_B,92.0,11000,ignore,0.0,2000.0,3.9056509553
92,1_16_2,16,2.0,408.483060733,1_I,training,01,1_B,93.0,00100,kill,0.0,1900.0,1.42331345799
93,1_16_2,16,2.0,411.483211794,1_I,training,01,1_B,94.0,01010,ignore,0.0,1800.0,0.995276678492
94,1_16_2,16,2.0,414.38960138,1_I,training,01,1_B,95.0,01001,ignore,0.0,1700.0,0.897201767966
95,1_16_2,16,2.0,417.045973085,1_I,training,01,1_B,96.0,11101,kill,1.0,1800.0,0.633388530161
96,1_16_2,16,2.0,419.530436991,1_I,training,01,1_B,97.0,01011,kill,0.0,1700.0,0.477372348923
97,1_16_2,16,2.0,422.077447142,1_I,training,01,1_B,98.0,11001,ignore,0.0,1600.0,0.536559316701
98,1_16_2,16,2.0,424.561946969,1_I,training,01,1_B,99.0,01100,ignore,0.0,1500.0,0.447842208283
99,1_16_2,16,2.0,427.015180249,1_I,training,01,1_B,100.0,00100,kill,0.0,1400.0,0.434999725778
100,1_16_2,16,2.0,429.577788875,1_I,training,01,1_B,101.0,01101,kill,1.0,1500.0,0.551119283191
101,1_16_2,16,2.0,432.202929312,1_I,training,01,1_B,102.0,10001,kill,0.0,1400.0,0.598470525183
102,1_16_2,16,2.0,435.593696529,1_I,training,01,1_B,103.0,11011,ignore,1.0,1500.0,1.42863172493
103,1_16_2,16,2.0,438.656349254,1_I,training,01,1_B,104.0,00000,ignore,1.0,1600.0,1.05723599577
104,1_16_2,16,2.0,441.484601176,1_I,training,01,1_B,105.0,10011,ignore,1.0,1700.0,0.827912915382
105,1_16_2,16,2.0,444.234757771,1_I,training,01,1_B,106.0,11111,ignore,1.0,1800.0,0.760944510352
106,1_16_2,16,2.0,447.359901255,1_I,training,01,1_B,107.0,10000,ignore,1.0,1900.0,1.09592989971
107,1_16_2,16,2.0,449.95684609,1_I,training,01,1_B,108.0,10110,ignore,1.0,2000.0,0.618340099034
108,1_16_2,16,2.0,453.566465027,1_I,training,01,1_B,109.0,00111,kill,0.0,1900.0,1.56599965426
109,1_16_2,16,2.0,456.09834015,1_I,training,01,1_B,110.0,00110,ignore,1.0,2000.0,0.523564168954
110,1_16_2,16,2.0,458.53599035,1_I,training,01,1_B,111.0,10101,ignore,1.0,2100.0,0.437053650607
111,1_16_2,16,2.0,462.429525907,1_I,training,01,1_B,112.0,00101,ignore,1.0,2200.0,1.86484154727
112,1_16_2,16,2.0,465.007802605,1_I,training,01,1_B,113.0,10010,ignore,1.0,2300.0,0.611785115332
113,1_16_2,16,2.0,467.804787018,1_I,training,01,1_B,114.0,11101,ignore,0.0,2200.0,0.768284629594
114,1_16_2,16,2.0,470.429932266,1_I,training,01,1_B,115.0,10100,kill,0.0,2100.0,0.606658642122
115,1_16_2,16,2.0,473.930070659,1_I,training,01,1_B,116.0,11100,ignore,0.0,2000.0,1.50840348397
116,1_16_2,16,2.0,476.883335851,1_I,training,01,1_B,117.0,00010,ignore,1.0,2100.0,0.940900910955
117,1_16_2,16,2.0,479.445960834,1_I,training,01,1_B,118.0,00011,ignore,1.0,2200.0,0.565133695945
118,1_16_2,16,2.0,481.8835873,1_I,training,01,1_B,119.0,01010,ignore,0.0,2100.0,0.477542333334
119,1_16_2,16,2.0,484.680586465,1_I,training,01,1_B,120.0,01000,ignore,0.0,2000.0,0.792842886618
120,1_16_2,16,2.0,487.699100333,1_I,training,01,1_B,121.0,00001,ignore,1.0,2100.0,1.02328337395
121,1_16_2,16,2.0,491.074255925,1_I,training,01,1_B,122.0,01110,ignore,0.0,2000.0,1.40471652213
122,1_16_2,16,2.0,494.76196153,1_I,training,01,1_B,123.0,01111,ignore,1.0,2100.0,1.69843290411
123,1_16_2,16,2.0,499.199688383,1_I,training,01,1_B,124.0,10111,kill,0.0,2000.0,2.43568479502
124,1_16_2,16,2.0,502.071697179,1_I,training,01,1_B,125.0,11010,ignore,0.0,1900.0,0.870389774249
125,1_16_2,16,2.0,505.040560846,1_I,training,01,1_B,126.0,11000,kill,1.0,2000.0,0.994387627958
126,1_16_2,16,2.0,511.165845129,1_I,training,01,1_B,127.0,11110,kill,1.0,2100.0,4.1369150652
127,1_16_2,16,2.0,514.366469068,1_I,training,01,1_B,128.0,01001,ignore,0.0,2000.0,1.19007784965
128,1_16_2,16,2.0,520.022995042,1_I,training,01,1_B,129.0,00111,ignore,1.0,2100.0,3.6598281618
129,1_16_2,16,2.0,523.47629407,1_I,training,01,1_B,130.0,10000,ignore,1.0,2200.0,1.44463848325
130,1_16_2,16,2.0,527.429576902,1_I,training,01,1_B,131.0,00110,ignore,1.0,2300.0,1.96914077371
131,1_16_2,16,2.0,530.38283568,1_I,training,01,1_B,132.0,01101,ignore,0.0,2200.0,0.917826970624
132,1_16_2,16,2.0,533.211123523,1_I,training,01,1_B,133.0,10101,kill,0.0,2100.0,0.822189893111
133,1_16_2,16,2.0,536.351877991,1_I,training,01,1_B,134.0,11111,kill,0.0,2000.0,1.14762632809
134,1_16_2,16,2.0,539.398885095,1_I,training,01,1_B,135.0,00000,ignore,1.0,2100.0,1.03452062633
135,1_16_2,16,2.0,541.852133769,1_I,training,01,1_B,136.0,11011,ignore,1.0,2200.0,0.512607230496
136,1_16_2,16,2.0,544.461650715,1_I,training,01,1_B,137.0,11100,ignore,0.0,2100.0,0.585923430684
137,1_16_2,16,2.0,546.961775317,1_I,training,01,1_B,138.0,01011,ignore,1.0,2200.0,0.496455825058
138,1_16_2,16,2.0,549.524363096,1_I,training,01,1_B,139.0,10110,ignore,1.0,2300.0,0.595044858244
139,1_16_2,16,2.0,552.27451103,1_I,training,01,1_B,140.0,00101,ignore,1.0,2400.0,0.736950729857
140,1_16_2,16,2.0,555.462179271,1_I,training,01,1_B,141.0,00001,ignore,1.0,2500.0,1.21856082219
141,1_16_2,16,2.0,558.681087438,1_I,training,01,1_B,142.0,00100,kill,0.0,2400.0,1.20667121455
142,1_16_2,16,2.0,561.587440782,1_I,training,01,1_B,143.0,01110,kill,1.0,2500.0,0.899891691064
143,1_16_2,16,2.0,564.571963862,1_I,training,01,1_B,144.0,01001,ignore,0.0,2400.0,1.00614060662
144,1_16_2,16,2.0,567.540868582,1_I,training,01,1_B,145.0,10100,kill,0.0,2300.0,0.988421175181
145,1_16_2,16,2.0,570.228466744,1_I,training,01,1_B,146.0,01010,ignore,0.0,2200.0,0.682435767543
146,1_16_2,16,2.0,573.200750305,1_I,training,01,1_B,147.0,10111,kill,0.0,2100.0,0.981030381346
147,1_16_2,16,2.0,575.794613611,1_I,training,01,1_B,148.0,11000,ignore,0.0,2000.0,0.612006736515
148,1_16_2,16,2.0,579.169793899,1_I,training,01,1_B,149.0,10010,kill,0.0,1900.0,1.41111467116
149,1_16_2,16,2.0,582.07618156,1_I,training,01,1_B,150.0,00011,ignore,1.0,2000.0,0.862769020372
150,1_16_2,16,2.0,584.640918839,1_I,training,01,1_B,151.0,11110,ignore,0.0,1900.0,0.570041434501
151,1_16_2,16,2.0,587.187892107,1_I,training,01,1_B,152.0,10001,ignore,1.0,2000.0,0.577839549471
152,1_16_2,16,2.0,589.891169246,1_I,training,01,1_B,153.0,01111,ignore,1.0,2100.0,0.697114081668
153,1_16_2,16,2.0,592.469374422,1_I,training,01,1_B,154.0,11010,ignore,0.0,2000.0,0.612641772612
154,1_16_2,16,2.0,595.360192794,1_I,training,01,1_B,155.0,01000,ignore,0.0,1900.0,0.889282739558
155,1_16_2,16,2.0,597.766551751,1_I,training,01,1_B,156.0,11101,ignore,0.0,1800.0,0.411556630628
156,1_16_2,16,2.0,600.501041555,1_I,training,01,1_B,157.0,11001,kill,1.0,1900.0,0.762839676157
157,1_16_2,16,2.0,602.954263931,1_I,training,01,1_B,158.0,10011,kill,0.0,1800.0,0.449841289086
158,1_16_2,16,2.0,605.391947165,1_I,training,01,1_B,159.0,00010,kill,0.0,1700.0,0.471286586337
159,1_16_2,16,2.0,608.063951663,1_I,training,01,1_B,160.0,01100,ignore,0.0,1600.0,0.683122440409
160,1_16_2,16,2.0,610.423413204,1_I,training,01,1_B,161.0,10111,kill,0.0,1500.0,0.35697752325
161,1_16_2,16,2.0,612.861478422,1_I,training,01,1_B,162.0,11010,kill,1.0,1600.0,0.487276025495
162,1_16_2,16,2.0,615.267823587,1_I,training,01,1_B,163.0,00100,kill,0.0,1500.0,0.418377816328
163,1_16_2,16,2.0,617.971115479,1_I,training,01,1_B,164.0,01011,ignore,1.0,1600.0,0.703495552982
164,1_16_2,16,2.0,620.486871591,1_I,training,01,1_B,165.0,00101,ignore,1.0,1700.0,0.521257833312
165,1_16_2,16,2.0,623.018200199,1_I,training,01,1_B,166.0,01001,ignore,0.0,1600.0,0.538756285016
166,1_16_2,16,2.0,625.455833721,1_I,training,01,1_B,167.0,00011,ignore,1.0,1700.0,0.476510560038
167,1_16_2,16,2.0,628.080929577,1_I,training,01,1_B,168.0,10011,ignore,1.0,1800.0,0.649215682311
168,1_16_2,16,2.0,630.596677991,1_I,training,01,1_B,169.0,00010,ignore,1.0,1900.0,0.524850277412
169,1_16_2,16,2.0,632.971806963,1_I,training,01,1_B,170.0,10010,ignore,1.0,2000.0,0.415539397414
170,1_16_2,16,2.0,635.409430863,1_I,training,01,1_B,171.0,10001,ignore,1.0,2100.0,0.436897778112
171,1_16_2,16,2.0,638.065782363,1_I,training,01,1_B,172.0,10110,kill,0.0,2000.0,0.682981000555
172,1_16_2,16,2.0,640.847150981,1_I,training,01,1_B,173.0,00110,ignore,1.0,2100.0,0.76463124769
173,1_16_2,16,2.0,643.394180375,1_I,training,01,1_B,174.0,01101,ignore,0.0,2000.0,0.531808412819
174,1_16_2,16,2.0,645.89429311,1_I,training,01,1_B,175.0,11000,ignore,0.0,1900.0,0.524847390883
175,1_16_2,16,2.0,648.19128089,1_I,training,01,1_B,176.0,10100,kill,0.0,1800.0,0.293554736425
176,1_16_2,16,2.0,650.67576853,1_I,training,01,1_B,177.0,00111,ignore,1.0,1900.0,0.521572464833
177,1_16_2,16,2.0,652.988366331,1_I,training,01,1_B,178.0,11101,ignore,0.0,1800.0,0.298445797263
178,1_16_2,16,2.0,655.816648722,1_I,training,01,1_B,179.0,01000,ignore,0.0,1700.0,0.829236869427
179,1_16_2,16,2.0,658.39489014,1_I,training,01,1_B,180.0,11110,ignore,0.0,1600.0,0.61877981342
180,1_16_2,16,2.0,660.598129915,1_I,training,01,1_B,181.0,01111,ignore,1.0,1700.0,0.224801174369
181,1_16_2,16,2.0,662.816969127,1_I,training,01,1_B,182.0,11001,ignore,0.0,1600.0,0.272175187856
182,1_16_2,16,2.0,664.957702427,1_I,training,01,1_B,183.0,11011,ignore,1.0,1700.0,0.173108594699
183,1_16_2,16,2.0,667.160931296,1_I,training,01,1_B,184.0,11111,ignore,1.0,1800.0,0.196353802345
184,1_16_2,16,2.0,669.379809637,1_I,training,01,1_B,185.0,00001,ignore,1.0,1900.0,0.259973514505
185,1_16_2,16,2.0,671.567405714,1_I,training,01,1_B,186.0,11100,ignore,0.0,1800.0,0.200806431694
186,1_16_2,16,2.0,674.22374246,1_I,training,01,1_B,187.0,10101,ignore,1.0,1900.0,0.662377927943
187,1_16_2,16,2.0,676.426999233,1_I,training,01,1_B,188.0,10000,ignore,1.0,2000.0,0.218851720034
188,1_16_2,16,2.0,678.880212307,1_I,training,01,1_B,189.0,01100,ignore,0.0,1900.0,0.448480451636
189,1_16_2,16,2.0,681.317827548,1_I,training,01,1_B,190.0,00000,ignore,1.0,2000.0,0.469531898216
190,1_16_2,16,2.0,683.567934269,1_I,training,01,1_B,191.0,01110,ignore,0.0,1900.0,0.256979223093
191,1_16_2,16,2.0,685.958689619,1_I,training,01,1_B,192.0,01010,ignore,0.0,1800.0,0.397733370151
192,1_16_2,16,2.0,688.365045368,1_I,training,01,1_B,193.0,10010,kill,0.0,1700.0,0.445042276406
193,1_16_2,16,2.0,690.599539503,1_I,training,01,1_B,194.0,01000,ignore,0.0,1600.0,0.233646778168
194,1_16_2,16,2.0,692.818404693,1_I,training,01,1_B,195.0,11000,kill,1.0,1700.0,0.27262965561
195,1_16_2,16,2.0,695.068467154,1_I,training,01,1_B,196.0,01010,kill,1.0,1800.0,0.251854674232
196,1_16_2,16,2.0,697.068594803,1_I,training,01,1_B,197.0,10011,kill,0.0,1700.0,0.00042431957263
197,1_16_2,16,2.0,699.365539606,1_I,training,01,1_B,198.0,01111,kill,0.0,1600.0,0.343970508668
198,1_16_2,16,2.0,701.600071265,1_I,training,01,1_B,199.0,10000,kill,0.0,1500.0,0.232611156171
199,1_16_2,16,2.0,704.318905826,1_I,training,01,1_B,200.0,11011,ignore,1.0,1600.0,0.767412256773
200,1_16_2,16,2.0,706.85373034,1_I,training,01,1_B,201.0,11111,ignore,1.0,1700.0,0.567204619216
201,1_16_2,16,2.0,709.150673218,1_I,training,01,1_B,202.0,10111,ignore,1.0,1800.0,0.310965950841
202,1_16_2,16,2.0,711.44768377,1_I,training,01,1_B,203.0,00001,ignore,1.0,1900.0,0.339068543166
203,1_16_2,16,2.0,713.791494557,1_I,training,01,1_B,204.0,00111,ignore,1.0,2000.0,0.372491647511
204,1_16_2,16,2.0,716.072880014,1_I,training,01,1_B,205.0,10001,ignore,1.0,2100.0,0.29199601146
205,1_16_2,16,2.0,718.338637809,1_I,training,01,1_B,206.0,00101,ignore,1.0,2200.0,0.263476476241
206,1_16_2,16,2.0,721.057530422,1_I,training,01,1_B,207.0,00010,kill,0.0,2100.0,0.72294754249
207,1_16_2,16,2.0,723.635737843,1_I,training,01,1_B,208.0,01101,ignore,0.0,2000.0,0.621313222571
208,1_16_2,16,2.0,727.167187043,1_I,training,01,1_B,209.0,11010,ignore,0.0,1900.0,1.53058773232
209,1_16_2,16,2.0,729.97981387,1_I,training,01,1_B,210.0,11110,kill,1.0,2000.0,0.827002055528
210,1_16_2,16,2.0,732.339281505,1_I,training,01,1_B,211.0,11100,kill,1.0,2100.0,0.401193354701
211,1_16_2,16,2.0,735.167525409,1_I,training,01,1_B,212.0,01001,ignore,0.0,2000.0,0.83985223544
212,1_16_2,16,2.0,738.839603994,1_I,training,01,1_B,213.0,10101,ignore,1.0,2100.0,1.70956207205
213,1_16_2,16,2.0,741.214699931,1_I,training,01,1_B,214.0,00011,ignore,1.0,2200.0,0.36591806174
214,1_16_2,16,2.0,744.730524357,1_I,training,01,1_B,215.0,00110,kill,0.0,2100.0,1.52517709649
215,1_16_2,16,2.0,747.55875479,1_I,training,01,1_B,216.0,00000,kill,0.0,2000.0,0.847124360913
216,1_16_2,16,2.0,750.230771155,1_I,training,01,1_B,217.0,10110,ignore,1.0,2100.0,0.666646460973
217,1_16_2,16,2.0,752.480655614,1_I,training,01,1_B,218.0,10100,ignore,1.0,2200.0,0.279191053818
218,1_16_2,16,2.0,754.808874341,1_I,training,01,1_B,219.0,01110,ignore,0.0,2100.0,0.371292134885
219,1_16_2,16,2.0,758.184015179,1_I,training,01,1_B,220.0,01100,ignore,0.0,2000.0,1.38710581658
220,1_16_2,16,2.0,761.152906108,1_I,training,01,1_B,221.0,00100,kill,0.0,1900.0,1.01048001994
221,1_16_2,16,2.0,763.71550447,1_I,training,01,1_B,222.0,11101,ignore,0.0,1800.0,0.568012846972
222,1_16_2,16,2.0,766.121885557,1_I,training,01,1_B,223.0,01011,kill,0.0,1700.0,0.465782940173
223,1_16_2,16,2.0,768.575151871,1_I,training,01,1_B,224.0,11001,kill,1.0,1800.0,0.486693909075
224,1_16_2,16,2.0,771.106474385,1_I,training,01,1_B,225.0,01100,kill,1.0,1900.0,0.529221763263
225,1_16_2,16,2.0,773.419114202,1_I,training,01,1_B,226.0,10010,kill,0.0,1800.0,0.3637942188
226,1_16_2,16,2.0,775.731693401,1_I,training,01,1_B,227.0,01000,kill,1.0,1900.0,0.365895610972
227,1_16_2,16,2.0,778.575586775,1_I,training,01,1_B,228.0,10111,ignore,1.0,2000.0,0.86993241997
228,1_16_2,16,2.0,781.1382217,1_I,training,01,1_B,229.0,00001,ignore,1.0,2100.0,0.610914666864
229,1_16_2,16,2.0,783.85708224,1_I,training,01,1_B,230.0,01110,kill,1.0,2200.0,0.737271775888
230,1_16_2,16,2.0,786.794753768,1_I,training,01,1_B,231.0,00100,kill,0.0,2100.0,0.971229657596
231,1_16_2,16,2.0,790.5918174,1_I,training,01,1_B,232.0,11000,ignore,0.0,2000.0,1.77677519049
232,1_16_2,16,2.0,793.482561043,1_I,training,01,1_B,233.0,11100,kill,1.0,2100.0,0.903449496829
233,1_16_2,16,2.0,795.951418776,1_I,training,01,1_B,234.0,00000,kill,0.0,2000.0,0.48181728087
234,1_16_2,16,2.0,798.576582948,1_I,training,01,1_B,235.0,00111,kill,0.0,1900.0,0.636426119487
235,1_16_2,16,2.0,801.376957106,1_I,training,01,1_B,236.0,01111,ignore,1.0,2000.0,0.867679004008
236,1_16_2,16,2.0,803.939559638,1_I,training,01,1_B,237.0,00011,ignore,1.0,2100.0,0.542041794997
237,1_16_2,16,2.0,806.830724073,1_I,training,01,1_B,238.0,11110,kill,1.0,2200.0,0.927342569579
238,1_16_2,16,2.0,809.612103596,1_I,training,01,1_B,239.0,00010,ignore,1.0,2300.0,0.82613256924
239,1_16_2,16,2.0,813.065362533,1_I,training,01,1_B,240.0,11001,ignore,0.0,2200.0,1.44722481208
240,1_16_2,16,2.0,816.143659277,1_I,training,01,1_B,241.0,11011,kill,0.0,2100.0,1.14889736245
241,1_16_2,16,2.0,819.065649903,1_I,training,01,1_B,242.0,11101,kill,1.0,2200.0,0.949613413759
242,1_16_2,16,2.0,822.018907398,1_I,training,01,1_B,243.0,01011,ignore,1.0,2300.0,0.974081867702
243,1_16_2,16,2.0,825.112830199,1_I,training,01,1_B,244.0,10011,ignore,1.0,2400.0,1.15088072771
244,1_16_2,16,2.0,827.972333594,1_I,training,01,1_B,245.0,10110,kill,0.0,2300.0,0.920970720024
245,1_16_2,16,2.0,831.754552776,1_I,training,01,1_B,246.0,01001,ignore,0.0,2200.0,1.80237484256
246,1_16_2,16,2.0,834.785935105,1_I,training,01,1_B,247.0,11010,kill,1.0,2300.0,1.08127692289
247,1_16_2,16,2.0,837.692360933,1_I,training,01,1_B,248.0,10001,ignore,1.0,2400.0,0.924221591675
248,1_16_2,16,2.0,840.520603874,1_I,training,01,1_B,249.0,10101,kill,0.0,2300.0,0.887714392837
249,1_16_2,16,2.0,931.618617526,1_I,test,01,2,0.0,01101,ignore,1.0,100.0,6.07076932057
250,1_16_2,16,2.0,934.696917156,1_I,test,01,2,1.0,01010,ignore,1.0,200.0,1.09380701894
251,1_16_2,16,2.0,937.962702213,1_I,test,01,2,2.0,00110,kill,0.0,100.0,1.31327421083
252,1_16_2,16,2.0,941.541010663,1_I,test,01,2,3.0,10000,kill,1.0,200.0,1.61104456061
253,1_16_2,16,2.0,944.994263828,1_I,test,01,2,4.0,11111,ignore,0.0,100.0,1.51480548171
254,1_16_2,16,2.0,948.713207115,1_I,test,01,2,5.0,10100,ignore,0.0,0.0,1.69865356311
255,1_16_2,16,2.0,951.869611374,1_I,test,01,2,6.0,00101,ignore,1.0,100.0,1.1722554654
256,1_16_2,16,2.0,955.682219599,1_I,test,01,2,7.0,11101,kill,1.0,200.0,1.86101978458
257,1_16_2,16,2.0,959.510511291,1_I,test,01,2,8.0,01101,kill,0.0,100.0,1.85646644748
258,1_16_2,16,2.0,962.369999612,1_I,test,01,2,9.0,00000,ignore,1.0,200.0,0.925887118166
259,1_16_2,16,2.0,965.170438557,1_I,test,01,2,10.0,11010,ignore,1.0,300.0,0.889642272621
260,1_16_2,16,2.0,967.826764077,1_I,test,01,2,11.0,01000,ignore,1.0,400.0,0.6771947954
261,1_16_2,16,2.0,970.905086799,1_I,test,01,2,12.0,10100,kill,1.0,500.0,1.12978694539
262,1_16_2,16,2.0,974.092732589,1_I,test,01,2,13.0,01110,ignore,1.0,600.0,1.26129169549
263,1_16_2,16,2.0,977.483485052,1_I,test,01,2,14.0,00101,kill,0.0,500.0,1.45929947821
264,1_16_2,16,2.0,980.296163837,1_I,test,01,2,15.0,10101,ignore,0.0,400.0,0.855797735232
265,1_16_2,16,2.0,983.640060579,1_I,test,01,2,16.0,11110,ignore,1.0,500.0,1.36474484859
266,1_16_2,16,2.0,987.187116272,1_I,test,01,2,17.0,11000,ignore,1.0,600.0,1.6301857673
267,1_16_2,16,2.0,990.437247369,1_I,test,01,2,18.0,01001,ignore,1.0,700.0,1.31717583412
268,1_16_2,16,2.0,994.93747364,1_I,test,01,2,19.0,10110,kill,1.0,800.0,2.51841396207
269,1_16_2,16,2.0,998.125071321,1_I,test,01,2,20.0,10000,kill,1.0,900.0,1.19197301546
270,1_16_2,16,2.0,1001.03147855,1_I,test,01,2,21.0,00010,ignore,1.0,1000.0,0.94127872536
271,1_16_2,16,2.0,1004.21914326,1_I,test,01,2,22.0,00110,ignore,1.0,1100.0,1.26500280795
272,1_16_2,16,2.0,1008.1724726,1_I,test,01,2,23.0,10010,kill,1.0,1200.0,1.9635364198
273,1_16_2,16,2.0,1012.28200157,1_I,test,01,2,24.0,01010,ignore,1.0,1300.0,2.16347272376
274,1_16_2,16,2.0,1015.86032541,1_I,test,01,2,25.0,00100,kill,0.0,1200.0,1.63686775822
275,1_16_2,16,2.0,1018.87607206,1_I,test,01,2,26.0,10111,kill,1.0,1300.0,1.04109581572
276,1_16_2,16,2.0,1022.51691136,1_I,test,01,2,27.0,11011,kill,1.0,1400.0,1.72872284299
277,1_16_2,16,2.0,1027.65773896,1_I,test,01,2,28.0,10011,kill,1.0,1500.0,3.14506020495
278,1_16_2,16,2.0,1031.48848676,1_I,test,01,2,29.0,11111,kill,1.0,1600.0,1.83942663296
279,1_16_2,16,2.0,1036.11369936,1_I,test,01,2,30.0,00001,kill,0.0,1500.0,2.6935764816
280,1_16_2,16,2.0,1039.81702429,1_I,test,01,2,31.0,00111,kill,0.0,1400.0,1.71908600986
281,1_16_2,16,2.0,1042.67650652,1_I,test,01,2,32.0,10001,kill,1.0,1500.0,0.946755430599
282,1_16_2,16,2.0,1047.25484127,1_I,test,01,2,33.0,01111,ignore,1.0,1600.0,2.63682766756
283,1_16_2,16,2.0,1050.34875733,1_I,test,01,2,34.0,11100,kill,0.0,1500.0,1.13724637444
284,1_16_2,16,2.0,1053.83330078,1_I,test,01,2,35.0,11001,ignore,0.0,1400.0,1.58922818418
285,1_16_2,16,2.0,1056.96679242,1_I,test,01,2,36.0,00011,ignore,1.0,1500.0,1.19776050351
286,1_16_2,16,2.0,1060.49032933,1_I,test,01,2,37.0,01100,ignore,1.0,1600.0,1.52310360742
287,1_16_2,16,2.0,1063.20914401,1_I,test,01,2,38.0,01011,ignore,1.0,1700.0,0.790210373347
288,1_16_2,16,2.0,1067.58439806,1_I,test,01,2,39.0,11011,kill,1.0,1800.0,2.41475522405
289,1_16_2,16,2.0,1070.63141575,1_I,test,01,2,40.0,00001,ignore,1.0,1900.0,1.14168425043
290,1_16_2,16,2.0,1074.10029818,1_I,test,01,2,41.0,10010,kill,1.0,2000.0,1.49425276297
291,1_16_2,16,2.0,1077.20983902,1_I,test,01,2,42.0,01011,ignore,1.0,2100.0,1.17879248848
292,1_16_2,16,2.0,1080.72560764,1_I,test,01,2,43.0,11001,ignore,0.0,2000.0,1.58848217714
293,1_16_2,16,2.0,1084.35079458,1_I,test,01,2,44.0,01101,ignore,1.0,2100.0,1.65944617796
294,1_16_2,16,2.0,1088.49224182,1_I,test,01,2,45.0,00111,ignore,1.0,2200.0,2.20895766522
295,1_16_2,16,2.0,1091.9299305,1_I,test,01,2,46.0,11111,kill,1.0,2300.0,1.44473309721
296,1_16_2,16,2.0,1095.50820528,1_I,test,01,2,47.0,10111,kill,1.0,2400.0,1.60211909621
297,1_16_2,16,2.0,1098.55521206,1_I,test,01,2,48.0,10101,ignore,0.0,2300.0,1.11400629841
298,1_16_2,16,2.0,1101.63352708,1_I,test,01,2,49.0,10000,ignore,0.0,2200.0,1.10795517415
299,1_16_2,16,2.0,1104.43051759,1_I,test,01,2,50.0,00010,ignore,1.0,2300.0,0.880742786965
300,1_16_2,16,2.0,1107.64940074,1_I,test,01,2,51.0,10011,kill,1.0,2400.0,1.29381484464
301,1_16_2,16,2.0,1111.10269977,1_I,test,01,2,52.0,00101,ignore,1.0,2500.0,1.48115017224
302,1_16_2,16,2.0,1113.72784694,1_I,test,01,2,53.0,01001,ignore,1.0,2600.0,0.719086651316
303,1_16_2,16,2.0,1117.71237932,1_I,test,01,2,54.0,10100,kill,1.0,2700.0,2.05868054253
304,1_16_2,16,2.0,1120.83752473,1_I,test,01,2,55.0,01111,ignore,1.0,2800.0,1.16665303584
305,1_16_2,16,2.0,1124.0908432,1_I,test,01,2,56.0,11010,kill,0.0,2700.0,1.33670832567
306,1_16_2,16,2.0,1126.85663675,1_I,test,01,2,57.0,01000,ignore,1.0,2800.0,0.80292199993
307,1_16_2,16,2.0,1129.9818152,1_I,test,01,2,58.0,00011,kill,0.0,2700.0,1.22778071242
308,1_16_2,16,2.0,1132.84126856,1_I,test,01,2,59.0,01110,kill,0.0,2600.0,0.939732508687
309,1_16_2,16,2.0,1135.59138442,1_I,test,01,2,60.0,00100,ignore,1.0,2700.0,0.781491456037
310,1_16_2,16,2.0,1138.59156242,1_I,test,01,2,61.0,11100,kill,0.0,2600.0,1.09520249473
311,1_16_2,16,2.0,1141.87291933,1_I,test,01,2,62.0,10001,ignore,0.0,2500.0,1.3229116854
312,1_16_2,16,2.0,1146.32625749,1_I,test,01,2,63.0,00110,ignore,1.0,2600.0,2.55151185096
313,1_16_2,16,2.0,1149.58070202,1_I,test,01,2,64.0,11110,ignore,1.0,2700.0,1.28700103562
314,1_16_2,16,2.0,1152.92458112,1_I,test,01,2,65.0,01010,kill,0.0,2600.0,1.40351540588
315,1_16_2,16,2.0,1155.90908143,1_I,test,01,2,66.0,00000,ignore,1.0,2700.0,1.0593203895
316,1_16_2,16,2.0,1159.39364957,1_I,test,01,2,67.0,01100,ignore,1.0,2800.0,1.52817876459
317,1_16_2,16,2.0,1162.72203925,1_I,test,01,2,68.0,11101,ignore,0.0,2700.0,1.44462020191
318,1_16_2,16,2.0,1165.67516492,1_I,test,01,2,69.0,11000,ignore,1.0,2800.0,0.9939825519
319,1_16_2,16,2.0,1168.97220049,1_I,test,01,2,70.0,10110,ignore,0.0,2700.0,1.3300484648
320,1_16_2,16,2.0,1171.83174013,1_I,test,01,2,71.0,01001,ignore,1.0,2800.0,0.957657525032
321,1_16_2,16,2.0,1174.70687151,1_I,test,01,2,72.0,01101,kill,0.0,2700.0,0.927073481053
322,1_16_2,16,2.0,1177.55078509,1_I,test,01,2,73.0,00010,kill,0.0,2600.0,0.948157000166
323,1_16_2,16,2.0,1181.81659901,1_I,test,01,2,74.0,11011,ignore,0.0,2500.0,2.33491643342
324,1_16_2,16,2.0,1186.16055476,1_I,test,01,2,75.0,11111,ignore,0.0,2400.0,2.38340047717
325,1_16_2,16,2.0,1188.89831533,1_I,test,01,2,76.0,01010,ignore,1.0,2500.0,0.87318200872
326,1_16_2,16,2.0,1192.02343989,1_I,test,01,2,77.0,11001,kill,1.0,2600.0,1.21695046045
327,1_16_2,16,2.0,1194.85172645,1_I,test,01,2,78.0,10101,ignore,0.0,2500.0,0.878865902509
328,1_16_2,16,2.0,1197.9143487,1_I,test,01,2,79.0,11101,ignore,0.0,2400.0,1.14134139509
329,1_16_2,16,2.0,1200.80508369,1_I,test,01,2,80.0,11100,ignore,1.0,2500.0,0.959328824578
330,1_16_2,16,2.0,1203.85211902,1_I,test,01,2,81.0,00001,kill,0.0,2400.0,1.13904981281
331,1_16_2,16,2.0,1207.05542518,1_I,test,01,2,82.0,11000,ignore,1.0,2500.0,1.23638577224
332,1_16_2,16,2.0,1210.47745798,1_I,test,01,2,83.0,00100,kill,0.0,2400.0,1.47381903331
333,1_16_2,16,2.0,1213.16507026,1_I,test,01,2,84.0,11110,kill,0.0,2300.0,0.80923515675
334,1_16_2,16,2.0,1215.60269352,1_I,test,01,2,85.0,01011,ignore,1.0,2400.0,0.50562311634
335,1_16_2,16,2.0,1217.8996813,1_I,test,01,2,86.0,10011,ignore,0.0,2300.0,0.42421822406
336,1_16_2,16,2.0,1221.14982105,1_I,test,01,2,87.0,00101,kill,0.0,2200.0,1.26215701236
337,1_16_2,16,2.0,1224.89997732,1_I,test,01,2,88.0,00011,ignore,1.0,2300.0,1.7868289665
338,1_16_2,16,2.0,1227.66572534,1_I,test,01,2,89.0,11010,ignore,1.0,2400.0,0.868401598113
339,1_16_2,16,2.0,1230.30647387,1_I,test,01,2,90.0,10100,kill,1.0,2500.0,0.664880547465
340,1_16_2,16,2.0,1233.16600774,1_I,test,01,2,91.0,10110,kill,1.0,2600.0,0.992625563151
341,1_16_2,16,2.0,1235.79110488,1_I,test,01,2,92.0,00110,kill,0.0,2500.0,0.706166874013
342,1_16_2,16,2.0,1238.49437464,1_I,test,01,2,93.0,01110,ignore,1.0,2600.0,0.749961913869
343,1_16_2,16,2.0,1241.47890381,1_I,test,01,2,94.0,10111,kill,1.0,2700.0,1.10628644041
344,1_16_2,16,2.0,1244.19776307,1_I,test,01,2,95.0,01100,ignore,1.0,2800.0,0.816006950761
345,1_16_2,16,2.0,1247.22916336,1_I,test,01,2,96.0,01000,kill,0.0,2700.0,1.09486733679
346,1_16_2,16,2.0,1249.96366567,1_I,test,01,2,97.0,00111,ignore,1.0,2800.0,0.811798072635
347,1_16_2,16,2.0,1253.38572991,1_I,test,01,2,98.0,10010,kill,1.0,2900.0,1.48422817296
348,1_16_2,16,2.0,1256.30769519,1_I,test,01,2,99.0,01111,ignore,1.0,3000.0,1.05958081845
349,1_16_2,16,2.0,1259.99537931,1_I,test,01,2,100.0,10000,ignore,0.0,2900.0,1.79500233007
350,1_16_2,16,2.0,1262.80804174,1_I,test,01,2,101.0,00000,ignore,1.0,3000.0,0.866720997532
351,1_16_2,16,2.0,1265.82378069,1_I,test,01,2,102.0,10001,kill,1.0,3100.0,1.1214663689
352,1_16_2,16,2.0,1269.98334313,1_I,test,01,2,103.0,10100,kill,1.0,3200.0,2.22852319149
353,1_16_2,16,2.0,1272.96788129,1_I,test,01,2,104.0,01001,ignore,1.0,3300.0,1.10155638367
354,1_16_2,16,2.0,1275.63988001,1_I,test,01,2,105.0,01000,ignore,1.0,3400.0,0.704542400366
355,1_16_2,16,2.0,1278.89000373,1_I,test,01,2,106.0,00101,ignore,1.0,3500.0,1.30827666919
356,1_16_2,16,2.0,1281.6401568,1_I,test,01,2,107.0,10011,kill,1.0,3600.0,0.849624093913
357,1_16_2,16,2.0,1286.15601746,1_I,test,01,2,108.0,11110,kill,0.0,3500.0,2.59205922642
358,1_16_2,16,2.0,1289.60928346,1_I,test,01,2,109.0,00011,ignore,1.0,3600.0,1.58611971457
359,1_16_2,16,2.0,1292.3281626,1_I,test,01,2,110.0,01011,ignore,1.0,3700.0,0.778002926942
360,1_16_2,16,2.0,1295.50017143,1_I,test,01,2,111.0,11000,kill,0.0,3600.0,1.22701802765
361,1_16_2,16,2.0,1298.59406119,1_I,test,01,2,112.0,00111,kill,0.0,3500.0,1.19581562529
362,1_16_2,16,2.0,1301.37545322,1_I,test,01,2,113.0,01010,ignore,1.0,3600.0,0.835779344841
363,1_16_2,16,2.0,1304.12561142,1_I,test,01,2,114.0,11111,kill,1.0,3700.0,0.893470129089
364,1_16_2,16,2.0,1306.73510079,1_I,test,01,2,115.0,01111,ignore,1.0,3800.0,0.691281371342
365,1_16_2,16,2.0,1310.03212256,1_I,test,01,2,116.0,11001,ignore,0.0,3700.0,1.35164225787
366,1_16_2,16,2.0,1313.40728361,1_I,test,01,2,117.0,01110,kill,0.0,3600.0,1.50040331206
367,1_16_2,16,2.0,1316.15741454,1_I,test,01,2,118.0,10010,kill,1.0,3700.0,0.849708444664
368,1_16_2,16,2.0,1319.11068519,1_I,test,01,2,119.0,11101,kill,1.0,3800.0,0.999084970714
369,1_16_2,16,2.0,1321.72018417,1_I,test,01,2,120.0,10110,kill,1.0,3900.0,0.696428050251
370,1_16_2,16,2.0,1324.2046375,1_I,test,01,2,121.0,11011,kill,1.0,4000.0,0.556763086312
371,1_16_2,16,2.0,1326.75164123,1_I,test,01,2,122.0,00001,ignore,1.0,4100.0,0.665972617113
372,1_16_2,16,2.0,1329.53303038,1_I,test,01,2,123.0,11010,kill,0.0,4000.0,0.838964467806
373,1_16_2,16,2.0,1332.54882064,1_I,test,01,2,124.0,10111,ignore,0.0,3900.0,1.07750583479
374,1_16_2,16,2.0,1335.28330179,1_I,test,01,2,125.0,01100,ignore,1.0,4000.0,0.844340144577
375,1_16_2,16,2.0,1338.48659256,1_I,test,01,2,126.0,10101,ignore,0.0,3900.0,1.25085657709
376,1_16_2,16,2.0,1341.37851006,1_I,test,01,2,127.0,10000,kill,1.0,4000.0,1.02750059094
377,1_16_2,16,2.0,1344.20679694,1_I,test,01,2,128.0,00010,ignore,1.0,4100.0,0.865490374552
378,1_16_2,16,2.0,1348.17568274,1_I,test,01,3,0.0,11100,ignore,1.0,4200.0,2.03940783846
379,1_16_2,16,2.0,1350.75396232,1_I,test,01,3,1.0,01101,ignore,1.0,4300.0,0.662819887406
380,1_16_2,16,2.0,1353.16031679,1_I,test,01,3,2.0,00110,ignore,1.0,4400.0,0.475964685578
381,1_16_2,16,2.0,1355.62919857,1_I,test,01,3,3.0,00000,ignore,0.0,4300.0,0.596733156231
382,1_16_2,16,2.0,1358.66060239,1_I,test,01,3,4.0,00100,kill,0.0,4200.0,1.10972621926
383,1_16_2,16,2.0,1361.52008398,1_I,test,01,3,5.0,10001,kill,0.0,4100.0,0.913352531948
384,1_16_2,16,2.0,1364.09832604,1_I,test,01,3,6.0,10011,ignore,0.0,4000.0,0.695881534339
385,1_16_2,16,2.0,1366.87971133,1_I,test,01,3,7.0,01111,ignore,1.0,4100.0,0.88555110068
386,1_16_2,16,2.0,1369.52045602,1_I,test,01,3,8.0,10000,kill,0.0,4000.0,0.689840994015
387,1_16_2,16,2.0,1372.1299627,1_I,test,01,3,9.0,00000,ignore,0.0,3900.0,0.694869325289
388,1_16_2,16,2.0,1374.80197329,1_I,test,01,3,10.0,11100,ignore,1.0,4000.0,0.7320125224
389,1_16_2,16,2.0,1377.34894015,1_I,test,01,3,11.0,00101,ignore,1.0,4100.0,0.673228706324
390,1_16_2,16,2.0,1379.64595679,1_I,test,01,3,12.0,01100,ignore,1.0,4200.0,0.401498364463
391,1_16_2,16,2.0,1382.11482511,1_I,test,01,3,13.0,01110,ignore,1.0,4300.0,0.537822653663
392,1_16_2,16,2.0,1384.39612237,1_I,test,01,3,14.0,10001,ignore,1.0,4400.0,0.382507577939
393,1_16_2,16,2.0,1386.92615717,1_I,test,01,3,15.0,00001,ignore,0.0,4300.0,0.583229979606
394,1_16_2,16,2.0,1389.98876243,1_I,test,01,3,16.0,11011,ignore,0.0,4200.0,1.19616040499
395,1_16_2,16,2.0,1392.4107824,1_I,test,01,3,17.0,11010,kill,1.0,4300.0,0.449844175611
396,1_16_2,16,2.0,1394.80159324,1_I,test,01,3,18.0,00110,kill,0.0,4200.0,0.440066544084
397,1_16_2,16,2.0,1397.48913302,1_I,test,01,3,19.0,11000,ignore,1.0,4300.0,0.801233701943
398,1_16_2,16,2.0,1400.00487695,1_I,test,01,3,20.0,10010,ignore,0.0,4200.0,0.569163930079
399,1_16_2,16,2.0,1404.02068742,1_I,test,01,3,21.0,11101,kill,0.0,4100.0,2.14986627359
400,1_16_2,16,2.0,1406.95834388,1_I,test,01,3,22.0,01000,ignore,0.0,4000.0,0.990440140955
401,1_16_2,16,2.0,1409.59908279,1_I,test,01,3,23.0,01101,ignore,1.0,4100.0,0.686595574694
402,1_16_2,16,2.0,1411.94294553,1_I,test,01,3,24.0,11111,ignore,1.0,4200.0,0.469718239616
403,1_16_2,16,2.0,1414.89619565,1_I,test,01,3,25.0,11001,ignore,1.0,4300.0,0.994377364746
404,1_16_2,16,2.0,1417.69549987,1_I,test,01,3,26.0,10110,kill,0.0,4200.0,0.926078591168
405,1_16_2,16,2.0,1420.18006128,1_I,test,01,3,27.0,10101,kill,0.0,4100.0,0.561773777692
406,1_16_2,16,2.0,1422.52082902,1_I,test,01,3,28.0,01011,kill,1.0,4200.0,0.395825375337
407,1_16_2,16,2.0,1425.02093759,1_I,test,01,3,29.0,00100,kill,0.0,4100.0,0.614232249376
408,1_16_2,16,2.0,1427.88043553,1_I,test,01,3,30.0,00011,kill,1.0,4200.0,0.959484697072
409,1_16_2,16,2.0,1430.66178908,1_I,test,01,3,31.0,10100,ignore,1.0,4300.0,0.833178583376
410,1_16_2,16,2.0,1433.56820047,1_I,test,01,3,32.0,00111,ignore,1.0,4400.0,0.968240818518
411,1_16_2,16,2.0,1436.44334596,1_I,test,01,3,33.0,11110,kill,0.0,4300.0,0.937987763049
412,1_16_2,16,2.0,1439.70911562,1_I,test,01,3,34.0,01001,kill,1.0,4400.0,1.407532811
413,1_16_2,16,2.0,1442.44362788,1_I,test,01,3,35.0,10111,ignore,1.0,4500.0,0.765951673755
414,1_16_2,16,2.0,1445.05310954,1_I,test,01,3,36.0,00010,kill,1.0,4600.0,0.662984740211
415,1_16_2,16,2.0,1449.38147067,1_I,test,01,3,37.0,01010,kill,1.0,4700.0,2.43896324905
416,1_16_2,16,2.0,1451.88155326,1_I,test,01,3,38.0,11000,kill,0.0,4600.0,0.556170385957
417,1_16_2,16,2.0,1455.06919584,1_I,test,01,3,39.0,11110,ignore,1.0,4700.0,1.34601352883
418,1_16_2,16,2.0,1457.7724563,1_I,test,01,3,40.0,00010,kill,1.0,4800.0,0.739242632859
419,1_16_2,16,2.0,1460.52262316,1_I,test,01,3,41.0,01001,kill,1.0,4900.0,0.814488637181
420,1_16_2,16,2.0,1463.14770298,1_I,test,01,3,42.0,01101,ignore,1.0,5000.0,0.736172971006
421,1_16_2,16,2.0,1465.85096761,1_I,test,01,3,43.0,00001,kill,1.0,5100.0,0.754702875271
422,1_16_2,16,2.0,1468.47609073,1_I,test,01,3,44.0,10010,ignore,0.0,5000.0,0.767754791395
423,1_16_2,16,2.0,1471.74186745,1_I,test,01,3,45.0,10011,kill,1.0,5100.0,1.35433378459
424,1_16_2,16,2.0,1474.2107579,1_I,test,01,3,46.0,11011,kill,1.0,5200.0,0.540090181541
425,1_16_2,16,2.0,1476.82026041,1_I,test,01,3,47.0,00110,ignore,1.0,5300.0,0.746020199924
426,1_16_2,16,2.0,1479.35404481,1_I,test,01,3,48.0,01111,ignore,1.0,5400.0,0.647309932574
427,1_16_2,16,2.0,1482.0104024,1_I,test,01,3,49.0,11100,ignore,1.0,5500.0,0.717830370315
428,1_16_2,16,2.0,1484.30737094,1_I,test,01,3,50.0,00100,ignore,1.0,5600.0,0.369772859132
429,1_16_2,16,2.0,1486.60439657,1_I,test,01,3,51.0,10110,ignore,1.0,5700.0,0.346988213027
430,1_16_2,16,2.0,1488.79199842,1_I,test,01,3,52.0,10101,ignore,1.0,5800.0,0.328550356917
431,1_16_2,16,2.0,1490.94832795,1_I,test,01,3,53.0,01110,ignore,1.0,5900.0,0.295274786211
432,1_16_2,16,2.0,1494.33912724,1_I,test,01,3,54.0,00011,kill,1.0,6000.0,1.45282403438
433,1_16_2,16,2.0,1496.57361271,1_I,test,01,4,0.0,10001,kill,1.0,6100.0,0.340144255824
434,1_16_2,16,2.0,1499.16748949,1_I,test,01,4,1.0,11111,ignore,1.0,6200.0,0.671482036338
435,1_16_2,16,2.0,1501.90196165,1_I,test,01,4,2.0,01010,kill,0.0,6100.0,0.888687794126
436,1_16_2,16,2.0,1504.94898575,1_I,test,01,4,3.0,10100,kill,1.0,6200.0,1.06845849478
437,1_16_2,16,2.0,1507.74601218,1_I,test,01,4,4.0,11101,kill,0.0,6100.0,0.849308179491
438,1_16_2,16,2.0,1510.7305003,1_I,test,01,4,5.0,00111,ignore,0.0,6000.0,1.08882262704
439,1_16_2,16,2.0,1513.69940695,1_I,test,01,4,6.0,01100,ignore,1.0,6100.0,1.02906476823
440,1_16_2,16,2.0,1516.46516298,1_I,test,01,4,7.0,10000,kill,0.0,6000.0,0.886734577041
441,1_16_2,16,2.0,1519.15277814,1_I,test,01,4,8.0,00000,ignore,1.0,6100.0,0.722442720868
442,1_16_2,16,2.0,1521.46537626,1_I,test,01,4,9.0,01000,ignore,1.0,6200.0,0.373492951901
443,1_16_2,16,2.0,1524.21551072,1_I,test,01,4,10.0,10111,kill,1.0,6300.0,0.849396058224
444,1_16_2,16,2.0,1527.12188716,1_I,test,01,4,11.0,00101,ignore,0.0,6200.0,0.950478409897
445,1_16_2,16,2.0,1530.23141164,1_I,test,01,4,12.0,01011,kill,0.0,6100.0,1.26017300564
446,1_16_2,16,2.0,1532.98155669,1_I,test,01,4,13.0,11010,kill,0.0,6000.0,0.842902012326
447,1_16_2,16,2.0,1535.45039999,1_I,test,01,4,14.0,11001,kill,0.0,5900.0,0.545870934366
448,1_16_2,16,2.0,1537.9192898,1_I,test,01,4,15.0,10110,ignore,0.0,5800.0,0.607796575485
449,1_16_2,16,2.0,1540.06001251,1_I,test,01,4,16.0,00011,ignore,0.0,5700.0,0.241857345878
450,1_16_2,16,2.0,1542.4194747,1_I,test,01,4,17.0,00111,ignore,0.0,5600.0,0.424707330145
451,1_16_2,16,2.0,1544.54461048,1_I,test,01,4,18.0,10011,ignore,0.0,5500.0,0.209411170796
452,1_16_2,16,2.0,1546.71657441,1_I,test,01,4,19.0,00010,kill,0.0,5400.0,0.225550709398
453,1_16_2,16,2.0,1548.79478327,1_I,test,01,4,20.0,00100,ignore,0.0,5300.0,0.203969424616
454,1_16_2,16,2.0,1550.96677927,1_I,test,01,4,21.0,11110,kill,0.0,5200.0,0.220398898888
455,1_16_2,16,2.0,1553.17002642,1_I,test,01,4,22.0,01110,ignore,1.0,5300.0,0.268338671805
456,1_16_2,16,2.0,1555.42009113,1_I,test,01,4,23.0,00001,ignore,0.0,5200.0,0.355929713689
457,1_16_2,16,2.0,1557.37333548,1_I,test,01,4,24.0,01100,ignore,1.0,5300.0,0.00604150249637
458,1_16_2,16,2.0,1559.4359356,1_I,test,01,4,25.0,01011,ignore,1.0,5400.0,0.20990316341
459,1_16_2,16,2.0,1561.60795566,1_I,test,01,4,26.0,11101,ignore,1.0,5500.0,0.218022003679
460,1_16_2,16,2.0,1563.75496747,1_I,test,01,4,27.0,10010,ignore,1.0,5600.0,0.209497125179
461,1_16_2,16,2.0,1565.85558862,1_I,test,01,4,28.0,01010,ignore,1.0,5700.0,0.22050024808
462,1_16_2,16,2.0,1568.01194349,1_I,test,01,4,29.0,00101,ignore,0.0,5600.0,0.212067097014
463,1_16_2,16,2.0,1570.18392249,1_I,test,01,4,30.0,10001,ignore,0.0,5500.0,0.295646506838
464,1_16_2,16,2.0,1572.23087924,1_I,test,01,4,31.0,11100,ignore,1.0,5600.0,0.124339105427
465,1_16_2,16,2.0,1574.71536014,1_I,test,01,4,32.0,10100,ignore,0.0,5500.0,0.53607149352
466,1_16_2,16,2.0,1577.29362401,1_I,test,01,4,33.0,11001,ignore,1.0,5600.0,0.742769007542
467,1_16_2,16,2.0,1580.04376842,1_I,test,01,4,34.0,11010,kill,0.0,5500.0,0.868351564965
468,1_16_2,16,2.0,1583.02831074,1_I,test,01,4,35.0,10111,ignore,0.0,5400.0,1.01677104671
469,1_16_2,16,2.0,1585.15340548,1_I,test,01,4,36.0,11000,ignore,1.0,5500.0,0.217028717423
470,1_16_2,16,2.0,1587.32534888,1_I,test,01,4,37.0,10101,ignore,0.0,5400.0,0.224525671336
471,1_16_2,16,2.0,1589.40361676,1_I,test,01,4,38.0,01000,ignore,1.0,5500.0,0.21949894369
472,1_16_2,16,2.0,1591.78210404,1_I,test,01,4,39.0,01101,ignore,1.0,5600.0,0.509857331766
473,1_16_2,16,2.0,1594.1416015,1_I,test,01,4,40.0,00000,ignore,1.0,5700.0,0.426485110489
474,1_16_2,16,2.0,1596.68861262,1_I,test,01,4,41.0,01111,ignore,1.0,5800.0,0.627333877925
475,1_16_2,16,2.0,1599.0225874,1_I,test,01,4,42.0,00110,ignore,0.0,5700.0,0.410253203005
476,1_16_2,16,2.0,1601.397709,1_I,test,01,4,43.0,01001,ignore,1.0,5800.0,0.526568402849
477,1_16_2,16,2.0,1603.61658541,1_I,test,01,4,44.0,10000,ignore,1.0,5900.0,0.265849843468
478,1_16_2,16,2.0,1605.81978157,1_I,test,01,4,45.0,11111,ignore,1.0,6000.0,0.263843706714
479,1_16_2,16,2.0,1608.02299825,1_I,test,01,4,46.0,11011,ignore,1.0,6100.0,0.344751154051
480,1_16_2,16,2.0,1610.19497949,1_I,test,01,4,47.0,01100,ignore,1.0,6200.0,0.21978438921
481,1_16_2,16,2.0,1612.3519726,1_I,test,01,4,48.0,00101,ignore,0.0,6100.0,0.286619693241
482,1_16_2,16,2.0,1615.50836756,1_I,test,01,4,49.0,00111,kill,1.0,6200.0,1.21070754246
483,1_16_2,16,2.0,1617.69599764,1_I,test,01,4,50.0,11101,kill,0.0,6100.0,0.25065099218
484,1_16_2,16,2.0,1620.18047116,1_I,test,01,4,51.0,11001,ignore,1.0,6200.0,0.603457803616
485,1_16_2,16,2.0,1622.69864651,1_I,test,01,4,52.0,01101,ignore,1.0,6300.0,0.55540385249
486,1_16_2,16,2.0,1624.79248432,1_I,test,01,4,53.0,00001,ignore,0.0,6200.0,0.216183606255
487,1_16_2,16,2.0,1626.94884207,1_I,test,01,4,54.0,10010,ignore,1.0,6300.0,0.2244390755
488,1_16_2,16,2.0,1629.13644007,1_I,test,01,4,55.0,01111,ignore,1.0,6400.0,0.255828139987
489,1_16_2,16,2.0,1631.34028185,1_I,test,01,4,56.0,01011,ignore,1.0,6500.0,0.354273488236
490,1_16_2,16,2.0,1633.63721286,1_I,test,01,4,57.0,10011,ignore,0.0,6400.0,0.406946845873
491,1_16_2,16,2.0,1635.76234544,1_I,test,01,4,58.0,11110,ignore,1.0,6500.0,0.207770660883
492,1_16_2,16,2.0,1637.98119074,1_I,test,01,4,59.0,00110,ignore,0.0,6400.0,0.305363842006
493,1_16_2,16,2.0,1640.10631659,1_I,test,01,4,60.0,01000,ignore,1.0,6500.0,0.190112808708
494,1_16_2,16,2.0,1642.2470284,1_I,test,01,4,61.0,10100,ignore,0.0,6400.0,0.273866051644
495,1_16_2,16,2.0,1644.49711876,1_I,test,01,4,62.0,11000,ignore,1.0,6500.0,0.287258578039
496,1_16_2,16,2.0,1647.24723431,1_I,test,01,4,63.0,00011,kill,1.0,6600.0,0.81194432337
497,1_16_2,16,2.0,1650.1536473,1_I,test,01,4,64.0,10000,kill,0.0,6500.0,1.01370619574
498,1_16_2,16,2.0,1652.9819066,1_I,test,01,4,65.0,11010,kill,0.0,6400.0,0.885397152535
499,1_16_2,16,2.0,1655.06013792,1_I,test,01,4,66.0,00100,ignore,0.0,6300.0,0.196390365028
500,1_16_2,16,2.0,1657.21648477,1_I,test,01,4,67.0,11111,ignore,1.0,6400.0,0.196682866503
501,1_16_2,16,2.0,1659.38846281,1_I,test,01,4,68.0,10101,ignore,0.0,6300.0,0.220718662011
502,1_16_2,16,2.0,1661.62295149,1_I,test,01,4,69.0,10111,ignore,0.0,6200.0,0.334415781224
503,1_16_2,16,2.0,1663.73242273,1_I,test,01,4,70.0,00000,ignore,1.0,6300.0,0.169230063635
504,1_16_2,16,2.0,1665.87312877,1_I,test,01,4,71.0,10001,ignore,0.0,6200.0,0.270281946407
505,1_16_2,16,2.0,1668.04511739,1_I,test,01,4,72.0,01110,ignore,1.0,6300.0,0.286234822877
506,1_16_2,16,2.0,1670.31081553,1_I,test,01,4,73.0,11011,ignore,1.0,6400.0,0.315175470416
507,1_16_2,16,2.0,1673.04532522,1_I,test,01,4,74.0,01001,ignore,1.0,6500.0,0.873986708502
508,1_16_2,16,2.0,1675.59232254,1_I,test,01,4,75.0,01010,kill,0.0,6400.0,0.707175555086
509,1_16_2,16,2.0,1678.49873779,1_I,test,01,4,76.0,00010,kill,0.0,6300.0,1.06747675463
510,1_16_2,16,2.0,1681.29573952,1_I,test,01,4,77.0,11100,kill,0.0,6200.0,0.873107600451
511,1_16_2,16,2.0,1683.46770024,1_I,test,01,4,78.0,10110,ignore,0.0,6100.0,0.214078686105
512,1_16_2,16,2.0,1686.01468377,1_I,test,01,4,79.0,10101,kill,1.0,6200.0,0.665137127704
513,1_16_2,16,2.0,1688.13046528,1_I,test,01,4,80.0,01101,kill,0.0,6100.0,0.23217432831
514,1_16_2,16,2.0,1690.88056511,1_I,test,01,4,81.0,11100,kill,0.0,6000.0,0.799778891975
515,1_16_2,16,2.0,1694.24008694,1_I,test,01,4,82.0,00010,kill,0.0,5900.0,1.42328940359
516,1_16_2,16,2.0,1696.7871096,1_I,test,01,4,83.0,10011,kill,1.0,6000.0,0.582065105311
517,1_16_2,16,2.0,1699.49038129,1_I,test,01,4,84.0,01111,ignore,1.0,6100.0,0.842019055573
518,1_16_2,16,2.0,1702.5217665,1_I,test,01,4,85.0,01100,ignore,1.0,6200.0,1.0716506737
519,1_16_2,16,2.0,1705.20943234,1_I,test,01,4,86.0,00011,ignore,0.0,6100.0,0.740378641876
520,1_16_2,16,2.0,1708.08454159,1_I,test,01,4,87.0,01010,kill,0.0,6000.0,1.00964645488
521,1_16_2,16,2.0,1710.75653133,1_I,test,01,4,88.0,00110,kill,1.0,6100.0,0.745978184907
522,1_16_2,16,2.0,1713.75667085,1_I,test,01,4,89.0,00101,ignore,0.0,6000.0,1.14373464728
523,1_16_2,16,2.0,1715.97552866,1_I,test,01,4,90.0,00001,ignore,0.0,5900.0,0.273831092589
524,1_16_2,16,2.0,1718.14751504,1_I,test,01,4,91.0,00100,ignore,0.0,5800.0,0.206550621839
525,1_16_2,16,2.0,1720.35076507,1_I,test,01,4,92.0,11101,kill,0.0,5700.0,0.230042787964
526,1_16_2,16,2.0,1722.52270912,1_I,test,01,4,93.0,10100,kill,1.0,5800.0,0.213100473935
527,1_16_2,16,2.0,1724.64782758,1_I,test,01,4,94.0,10010,kill,0.0,5700.0,0.272007127798
528,1_16_2,16,2.0,1727.30419833,1_I,test,01,4,95.0,01110,kill,0.0,5600.0,0.759439667243
529,1_16_2,16,2.0,1729.89807863,1_I,test,01,4,96.0,01011,ignore,1.0,5700.0,0.649963292988
530,1_16_2,16,2.0,1732.8044772,1_I,test,01,4,97.0,11110,kill,0.0,5600.0,1.06782313796
531,1_16_2,16,2.0,1735.38269007,1_I,test,01,4,98.0,10001,kill,1.0,5700.0,0.691636414256
532,1_16_2,16,2.0,1737.66402998,1_I,test,01,4,99.0,01001,kill,0.0,5600.0,0.33583916011
533,1_16_2,16,2.0,1739.83606864,1_I,test,01,4,100.0,11111,kill,0.0,5500.0,0.251948005298
534,1_16_2,16,2.0,1742.13302178,1_I,test,01,4,101.0,11011,kill,0.0,5400.0,0.362829797818
535,1_16_2,16,2.0,1744.12063794,1_I,test,01,4,102.0,00111,kill,1.0,5500.0,0.143749400646
536,1_16_2,16,2.0,1746.32385205,1_I,test,01,4,103.0,10110,kill,1.0,5600.0,0.242576091274
537,1_16_2,16,2.0,1748.44898624,1_I,test,01,4,104.0,10000,kill,0.0,5500.0,0.177446404396
538,1_16_2,16,2.0,1750.55844016,1_I,test,01,4,105.0,11001,kill,0.0,5400.0,0.229977359999
539,1_16_2,16,2.0,1752.855418,1_I,test,01,4,106.0,01000,ignore,1.0,5500.0,0.356634667904
540,1_16_2,16,2.0,1754.94929942,1_I,test,01,4,107.0,11010,ignore,1.0,5600.0,0.234700360783
541,1_16_2,16,2.0,1757.7306488,1_I,test,01,4,108.0,10111,kill,1.0,5700.0,0.824825613636
542,1_16_2,16,2.0,1760.24639529,1_I,test,01,4,109.0,11000,ignore,1.0,5800.0,0.592737239702
543,1_16_2,16,2.0,1762.59024232,1_I,test,01,4,110.0,00000,ignore,1.0,5900.0,0.443220235971
544,1_16_2,16,2.0,1764.77785411,1_I,test,01,4,111.0,10101,ignore,0.0,5800.0,0.233917149599
545,1_16_2,16,2.0,1767.01234696,1_I,test,01,4,112.0,00111,ignore,0.0,5700.0,0.347491751749
546,1_16_2,16,2.0,1769.05928383,1_I,test,01,4,113.0,01000,ignore,1.0,5800.0,0.176297887094
547,1_16_2,16,2.0,1771.27817917,1_I,test,01,4,114.0,10011,ignore,0.0,5700.0,0.266024638757
548,1_16_2,16,2.0,1773.35639637,1_I,test,01,4,115.0,10100,ignore,0.0,5600.0,0.193404412476
549,1_16_2,16,2.0,1776.76278259,1_I,test,01,4,116.0,11111,ignore,1.0,5700.0,1.47495183508
550,1_16_2,16,2.0,1779.10666618,1_I,test,01,4,117.0,10110,ignore,0.0,5600.0,0.474925856332
551,1_16_2,16,2.0,1781.23177054,1_I,test,01,4,118.0,10010,ignore,1.0,5700.0,0.208960231023
552,1_16_2,16,2.0,1783.43498112,1_I,test,01,4,119.0,10001,ignore,0.0,5600.0,0.257358320399
553,1_16_2,16,2.0,1785.468054,1_I,test,01,4,120.0,11000,ignore,1.0,5700.0,0.17951764839
554,1_16_2,16,2.0,1788.08096806,1_I,test,01,4,121.0,00110,kill,1.0,5800.0,0.743028795037
555,1_16_2,16,2.0,1791.01859822,1_I,test,01,4,122.0,01110,ignore,1.0,5900.0,1.01878007
556,1_16_2,16,2.0,1793.924966,1_I,test,01,4,123.0,00101,ignore,0.0,5800.0,0.970355360427
557,1_16_2,16,2.0,1796.33137114,1_I,test,01,4,124.0,01011,ignore,1.0,5900.0,0.476023699033
558,1_16_2,16,2.0,1799.53461444,1_I,test,01,4,125.0,00010,kill,0.0,5800.0,1.34058974327
559,1_16_2,16,2.0,1801.92534926,1_I,test,01,4,126.0,11101,ignore,1.0,5900.0,0.413961749658
560,1_16_2,16,2.0,1804.23795187,1_I,test,01,4,127.0,11001,ignore,1.0,6000.0,0.373349587691
561,1_16_2,16,2.0,1806.62868349,1_I,test,01,4,128.0,01111,ignore,1.0,6100.0,0.505394118478
562,1_16_2,16,2.0,1808.95696315,1_I,test,01,4,129.0,01100,ignore,1.0,6200.0,0.381330836808
563,1_16_2,16,2.0,1811.06640938,1_I,test,01,4,130.0,00100,ignore,0.0,6100.0,0.24161968843
564,1_16_2,16,2.0,1813.58474028,1_I,test,01,4,131.0,10000,kill,0.0,6000.0,0.535073717107
565,1_16_2,16,2.0,1816.60049975,1_I,test,01,4,132.0,01010,ignore,1.0,6100.0,1.09017288056
566,1_16_2,16,2.0,1818.83777586,1_I,test,01,4,133.0,01101,ignore,1.0,6200.0,0.336525191531
567,1_16_2,16,2.0,1821.69725969,1_I,test,01,4,134.0,11110,kill,0.0,6100.0,0.9317833321
568,1_16_2,16,2.0,1824.07234376,1_I,test,01,4,135.0,11100,kill,0.0,6000.0,0.505453452657
569,1_16_2,16,2.0,1826.18184066,1_I,test,01,4,136.0,00011,kill,1.0,6100.0,0.207143322194
570,1_16_2,16,2.0,1828.29131896,1_I,test,01,4,137.0,01001,kill,0.0,6000.0,0.167794817913
571,1_16_2,16,2.0,1830.33830297,1_I,test,01,4,138.0,11011,ignore,1.0,6100.0,0.205335393672
572,1_16_2,16,2.0,1832.46341984,1_I,test,01,4,139.0,00000,ignore,1.0,6200.0,0.240499074225
573,1_16_2,16,2.0,1834.74476745,1_I,test,01,4,140.0,11010,ignore,1.0,6300.0,0.359928516744
574,1_16_2,16,2.0,1836.90109666,1_I,test,01,4,141.0,00001,ignore,0.0,6200.0,0.218835683769
575,1_16_2,16,2.0,1838.97934786,1_I,test,01,4,142.0,10111,ignore,0.0,6100.0,0.130225697601
576,1_16_2,16,2.0,1840.94815732,1_I,test,01,4,143.0,01010,ignore,1.0,6200.0,0.113348811537
577,1_16_2,16,2.0,1842.87015308,1_I,test,01,4,144.0,10011,ignore,0.0,6100.0,0.0317973477941
578,1_16_2,16,2.0,1845.1202691,1_I,test,01,4,145.0,00000,ignore,1.0,6200.0,0.302717216822
579,1_16_2,16,2.0,1847.24827313,1_I,test,01,4,146.0,01110,ignore,1.0,6300.0,0.229607884456
580,1_16_2,16,2.0,1849.63901117,1_I,test,01,4,147.0,01100,ignore,1.0,6400.0,0.460591359726
581,1_16_2,16,2.0,1851.70163278,1_I,test,01,4,148.0,00111,ignore,0.0,6300.0,0.205678569746
582,1_16_2,16,2.0,1853.92044665,1_I,test,01,4,149.0,01000,ignore,1.0,6400.0,0.278209634394
583,1_16_2,16,2.0,1856.09244971,1_I,test,01,4,150.0,00100,ignore,0.0,6300.0,0.236254595595
584,1_16_2,16,2.0,1858.23320065,1_I,test,01,4,151.0,00101,ignore,0.0,6200.0,0.245153119071
585,1_16_2,16,2.0,1860.37389514,1_I,test,01,4,152.0,10100,ignore,0.0,6100.0,0.179847354
586,1_16_2,16,2.0,1862.39323424,1_I,test,01,4,153.0,00011,ignore,0.0,6000.0,0.159440885996
587,1_16_2,16,2.0,1864.53394316,1_I,test,01,4,154.0,11000,kill,0.0,5900.0,0.193633089613
588,1_16_2,16,2.0,1866.65902635,1_I,test,01,4,155.0,11100,kill,0.0,5800.0,0.179255295094
589,1_16_2,16,2.0,1868.78414418,1_I,test,01,4,156.0,10101,ignore,0.0,5700.0,0.238218396611
590,1_16_2,16,2.0,1870.75297577,1_I,test,01,4,157.0,00001,ignore,0.0,5600.0,0.0299586296424
591,1_16_2,16,2.0,1872.88294713,1_I,test,01,4,158.0,10000,ignore,1.0,5700.0,0.281120537227
592,1_16_2,16,2.0,1874.78929823,1_I,test,01,4,159.0,11010,ignore,1.0,5800.0,0.000248882835876
593,1_16_2,16,2.0,1876.99250818,1_I,test,01,4,160.0,11101,ignore,1.0,5900.0,0.239437152755
594,1_16_2,16,2.0,1879.02388281,1_I,test,01,4,161.0,11111,ignore,1.0,6000.0,0.19455613703
595,1_16_2,16,2.0,1881.08645022,1_I,test,01,4,162.0,00110,ignore,0.0,5900.0,0.173917784636
596,1_16_2,16,2.0,1883.60221082,1_I,test,01,4,163.0,11110,ignore,1.0,6000.0,0.584381062708
597,1_16_2,16,2.0,1885.74290564,1_I,test,01,4,164.0,11011,ignore,1.0,6100.0,0.226280038733
598,1_16_2,16,2.0,1887.96176377,1_I,test,01,4,165.0,01001,ignore,1.0,6200.0,0.265821940371
599,1_16_2,16,2.0,1890.05563558,1_I,test,01,4,166.0,10111,ignore,0.0,6100.0,0.24276563993
600,1_16_2,16,2.0,1892.04012241,1_I,test,01,4,167.0,11001,ignore,1.0,6200.0,0.0417186642553
601,1_16_2,16,2.0,1894.24336187,1_I,test,01,4,168.0,01111,ignore,1.0,6300.0,0.273142174639
602,1_16_2,16,2.0,1896.41534728,1_I,test,01,4,169.0,10010,ignore,1.0,6400.0,0.289288448472
603,1_16_2,16,2.0,1898.79047273,1_I,test,01,4,170.0,00010,kill,0.0,6300.0,0.430214825014
604,1_16_2,16,2.0,1900.89992986,1_I,test,01,4,171.0,10001,kill,1.0,6400.0,0.249002143406
605,1_16_2,16,2.0,1903.32195496,1_I,test,01,4,172.0,01011,ignore,1.0,6500.0,0.46333612685
606,1_16_2,16,2.0,1905.57203025,1_I,test,01,4,173.0,10110,ignore,0.0,6400.0,0.300416654241
607,1_16_2,16,2.0,1908.33780264,1_I,test,01,4,174.0,01101,ignore,1.0,6500.0,0.866842231695
608,1_16_2,16,2.0,1910.63478497,1_I,test,01,4,175.0,00011,ignore,0.0,6400.0,0.359594962432
609,1_16_2,16,2.0,1912.88490291,1_I,test,01,4,176.0,11001,ignore,1.0,6500.0,0.39768654426
610,1_16_2,16,2.0,1915.49439292,1_I,test,01,4,177.0,11100,ignore,1.0,6600.0,0.728709693249
611,1_16_2,16,2.0,1917.96323045,1_I,test,01,5,0.0,00110,kill,0.0,6500.0,0.523800864226
612,1_16_2,16,2.0,1920.72898295,1_I,test,01,5,1.0,01010,kill,0.0,6400.0,0.91507097811
613,1_16_2,16,2.0,1922.96348735,1_I,test,01,5,2.0,00000,kill,0.0,6300.0,0.369509222935
614,1_16_2,16,2.0,1925.28186687,1_I,test,01,5,3.0,01011,kill,0.0,6200.0,0.478950317407
615,1_16_2,16,2.0,1927.43820121,1_I,test,01,5,4.0,01000,ignore,1.0,6300.0,0.22956651089
616,1_16_2,16,2.0,1929.56331999,1_I,test,01,5,5.0,10011,ignore,0.0,6200.0,0.18123769818
617,1_16_2,16,2.0,1931.61027129,1_I,test,01,5,6.0,10100,ignore,0.0,6100.0,0.193580490664
618,1_16_2,16,2.0,1933.71978102,1_I,test,01,5,7.0,10111,ignore,0.0,6000.0,0.195844169841
619,1_16_2,16,2.0,1936.37612675,1_I,test,01,5,8.0,11000,ignore,1.0,6100.0,0.716557411593
620,1_16_2,16,2.0,1938.64185728,1_I,test,01,5,9.0,00010,ignore,1.0,6200.0,0.353024904642
621,1_16_2,16,2.0,1940.93885885,1_I,test,01,5,10.0,10000,ignore,0.0,6100.0,0.347777838717
622,1_16_2,16,2.0,1943.07957708,1_I,test,01,5,11.0,01111,ignore,1.0,6200.0,0.289419625115
623,1_16_2,16,2.0,1945.34531018,1_I,test,01,5,12.0,01100,ignore,1.0,6300.0,0.334866079549
624,1_16_2,16,2.0,1947.68914213,1_I,test,01,5,13.0,00001,ignore,1.0,6400.0,0.385660628373
625,1_16_2,16,2.0,1950.86119458,1_I,test,01,5,14.0,01110,kill,0.0,6300.0,1.30954096833
626,1_16_2,16,2.0,1953.43941804,1_I,test,01,5,15.0,01101,ignore,1.0,6400.0,0.6412129446
627,1_16_2,16,2.0,1955.64264755,1_I,test,01,5,16.0,01001,ignore,1.0,6500.0,0.35554291898
628,1_16_2,16,2.0,1957.89278795,1_I,test,01,5,17.0,10010,ignore,0.0,6400.0,0.309750081226
629,1_16_2,16,2.0,1960.25226905,1_I,test,01,5,18.0,00100,ignore,1.0,6500.0,0.39321082268
630,1_16_2,16,2.0,1962.36174222,1_I,test,01,5,19.0,11111,ignore,0.0,6400.0,0.236633692897
631,1_16_2,16,2.0,1964.68995966,1_I,test,01,5,20.0,10110,ignore,0.0,6300.0,0.380226258872
632,1_16_2,16,2.0,1966.79943026,1_I,test,01,5,21.0,11011,kill,1.0,6400.0,0.264931606933
633,1_16_2,16,2.0,1968.92452788,1_I,test,01,5,22.0,10001,kill,1.0,6500.0,0.191179220335
634,1_16_2,16,2.0,1971.12775579,1_I,test,01,5,23.0,11010,kill,0.0,6400.0,0.272879500619
635,1_16_2,16,2.0,1973.36227302,1_I,test,01,5,24.0,11110,kill,0.0,6300.0,0.394200580962
636,1_16_2,16,2.0,1975.64362384,1_I,test,01,5,25.0,11101,ignore,0.0,6200.0,0.380873482529
637,1_16_2,16,2.0,1977.69060785,1_I,test,01,5,26.0,00111,ignore,1.0,6300.0,0.101649394004
638,1_16_2,16,2.0,1979.83134243,1_I,test,01,5,27.0,10101,ignore,0.0,6200.0,0.210769763173
639,1_16_2,16,2.0,1981.9095513,1_I,test,01,5,28.0,00101,ignore,1.0,6300.0,0.138816966239
