"","unique_id","pair_id","sbj_id","wall_time","condition","block","rule_id","rule_num","trial","stimulus","choice","correct","points","reaction_time"
"0","1_46_1",46,"1.0","40.0159116838","1_I","training","05","1_A","1.0","00100","ignore","0.0","0.0","5.71193526126"
"1","1_46_1",46,"1.0","44.470672442","1_I","training","05","1_A","2.0","01110","ignore","0.0","0.0","2.28988584427"
"2","1_46_1",46,"1.0","49.102000794","1_I","training","05","1_A","3.0","01101","ignore","1.0","100.0","2.25587025321"
"3","1_46_1",46,"1.0","52.1083364841","1_I","training","05","1_A","4.0","00101","ignore","1.0","200.0","0.781975160548"
"4","1_46_1",46,"1.0","58.0328422999","1_I","training","05","1_A","5.0","01000","kill","1.0","300.0","3.59619653325"
"5","1_46_1",46,"1.0","61.4080758394","1_I","training","05","1_A","6.0","10001","ignore","1.0","400.0","1.21276966094"
"6","1_46_1",46,"1.0","65.5206994753","1_I","training","05","1_A","7.0","00110","kill","1.0","500.0","1.53883786701"
"7","1_46_1",46,"1.0","68.8959309622","1_I","training","05","1_A","8.0","01001","ignore","1.0","600.0","1.1848590429"
"8","1_46_1",46,"1.0","72.6648246242","1_I","training","05","1_A","9.0","10011","ignore","1.0","700.0","1.61716634173"
"9","1_46_1",46,"1.0","76.8556901132","1_I","training","05","1_A","10.0","10110","kill","0.0","600.0","2.02600535412"
"10","1_46_1",46,"1.0","81.1840154063","1_I","training","05","1_A","11.0","10010","kill","1.0","700.0","2.16518568421"
"11","1_46_1",46,"1.0","84.4244185784","1_I","training","05","1_A","12.0","00001","ignore","1.0","800.0","1.07344646685"
"12","1_46_1",46,"1.0","89.7278662399","1_I","training","05","1_A","13.0","00000","kill","1.0","900.0","3.11855002888"
"13","1_46_1",46,"1.0","94.7155893777","1_I","training","05","1_A","14.0","11100","kill","0.0","800.0","2.84428603508"
"14","1_46_1",46,"1.0","98.069014809","1_I","training","05","1_A","15.0","00111","ignore","1.0","900.0","1.16366590678"
"15","1_46_1",46,"1.0","108.444004905","1_I","training","05","1_A","16.0","11000","kill","1.0","1000.0","8.24027139235"
"16","1_46_1",46,"1.0","111.874373687","1_I","training","05","1_A","17.0","01011","ignore","1.0","1100.0","1.28804667548"
"17","1_46_1",46,"1.0","116.218305641","1_I","training","05","1_A","18.0","10101","ignore","1.0","1200.0","2.11332728214"
"18","1_46_1",46,"1.0","122.693489794","1_I","training","05","1_A","19.0","11110","ignore","1.0","1300.0","4.34321968666"
"19","1_46_1",46,"1.0","126.008653946","1_I","training","05","1_A","20.0","10000","kill","1.0","1400.0","1.15550213208"
"20","1_46_1",46,"1.0","129.689607424","1_I","training","05","1_A","21.0","01100","kill","1.0","1500.0","1.47640219173"
"21","1_46_1",46,"1.0","133.002287877","1_I","training","05","1_A","22.0","11101","ignore","1.0","1600.0","0.91907123618"
"22","1_46_1",46,"1.0","142.912126321","1_I","training","05","1_A","23.0","01010","kill","1.0","1700.0","7.46153448257"
"23","1_46_1",46,"1.0","146.977606067","1_I","training","05","1_A","24.0","00010","kill","1.0","1800.0","1.63560154572"
"24","1_46_1",46,"1.0","150.561343464","1_I","training","05","1_A","25.0","11111","ignore","1.0","1900.0","1.06749092629"
"25","1_46_1",46,"1.0","154.488366231","1_I","training","05","1_A","26.0","11010","kill","1.0","2000.0","1.75052660575"
"26","1_46_1",46,"1.0","158.176022001","1_I","training","05","1_A","27.0","01111","ignore","1.0","2100.0","1.53347677208"
"27","1_46_1",46,"1.0","161.816824946","1_I","training","05","1_A","28.0","00011","ignore","1.0","2200.0","1.37594088058"
"28","1_46_1",46,"1.0","165.395202068","1_I","training","05","1_A","29.0","11011","ignore","1.0","2300.0","1.44404842104"
"29","1_46_1",46,"1.0","168.707805753","1_I","training","05","1_A","30.0","10111","ignore","1.0","2400.0","1.14067711791"
"30","1_46_1",46,"1.0","172.364288843","1_I","training","05","1_A","31.0","11001","ignore","1.0","2500.0","1.24994878654"
"31","1_46_1",46,"1.0","178.067623117","1_I","training","05","1_A","32.0","10100","kill","0.0","2400.0","3.4620061801"
"32","1_46_1",46,"1.0","181.692825969","1_I","training","05","1_A","33.0","00101","ignore","1.0","2500.0","1.4034114118"
"33","1_46_1",46,"1.0","184.958556712","1_I","training","05","1_A","34.0","11111","ignore","1.0","2600.0","0.867741595142"
"34","1_46_1",46,"1.0","189.474383211","1_I","training","05","1_A","35.0","11010","kill","1.0","2700.0","2.39171462669"
"35","1_46_1",46,"1.0","192.802682641","1_I","training","05","1_A","36.0","00011","ignore","1.0","2800.0","1.19123291225"
"36","1_46_1",46,"1.0","195.880946663","1_I","training","05","1_A","37.0","11001","ignore","1.0","2900.0","0.928055247317"
"37","1_46_1",46,"1.0","200.943710761","1_I","training","05","1_A","38.0","01011","ignore","1.0","3000.0","2.90161391167"
"38","1_46_1",46,"1.0","209.397249786","1_I","training","05","1_A","39.0","01100","kill","1.0","3100.0","6.3063923842"
"39","1_46_1",46,"1.0","212.678802718","1_I","training","05","1_A","40.0","00111","ignore","1.0","3200.0","1.10361950882"
"40","1_46_1",46,"1.0","216.272564815","1_I","training","05","1_A","41.0","11000","kill","1.0","3300.0","1.46123808081"
"41","1_46_1",46,"1.0","220.507151206","1_I","training","05","1_A","42.0","10110","ignore","1.0","3400.0","2.08197930689"
"42","1_46_1",46,"1.0","223.726061556","1_I","training","05","1_A","43.0","10101","ignore","1.0","3500.0","1.03746690625"
"43","1_46_1",46,"1.0","227.694983298","1_I","training","05","1_A","44.0","10000","kill","1.0","3600.0","1.807842577"
"44","1_46_1",46,"1.0","232.382690384","1_I","training","05","1_A","45.0","00110","kill","1.0","3700.0","2.50945139812"
"45","1_46_1",46,"1.0","235.726639991","1_I","training","05","1_A","46.0","00010","kill","1.0","3800.0","1.19778207738"
"46","1_46_1",46,"1.0","239.117415327","1_I","training","05","1_A","47.0","11101","ignore","1.0","3900.0","1.2177813959"
"47","1_46_1",46,"1.0","244.664546696","1_I","training","05","1_A","48.0","01101","ignore","1.0","4000.0","3.38661914386"
"48","1_46_1",46,"1.0","251.743027888","1_I","training","05","1_A","49.0","11100","ignore","1.0","4100.0","4.94193850854"
"49","1_46_1",46,"1.0","255.086929052","1_I","training","05","1_A","50.0","10001","ignore","1.0","4200.0","1.18884486652"
"50","1_46_1",46,"1.0","258.633987347","1_I","training","05","1_A","51.0","01111","ignore","1.0","4300.0","1.34435028283"
"51","1_46_1",46,"1.0","261.602872141","1_I","training","05","1_A","52.0","10011","ignore","1.0","4400.0","0.794388318322"
"52","1_46_1",46,"1.0","264.83738751","1_I","training","05","1_A","53.0","01000","kill","1.0","4500.0","1.08710722149"
"53","1_46_1",46,"1.0","267.96257702","1_I","training","05","1_A","54.0","01001","ignore","1.0","4600.0","0.982190031295"
"54","1_46_1",46,"1.0","271.994038302","1_I","training","05","1_A","55.0","00100","kill","1.0","4700.0","1.85103512771"
"55","1_46_1",46,"1.0","277.119229864","1_I","training","05","1_A","56.0","10010","kill","1.0","4800.0","2.90442562307"
"56","1_46_1",46,"1.0","281.775719934","1_I","training","05","1_A","57.0","10100","ignore","1.0","4900.0","2.49428810825"
"57","1_46_1",46,"1.0","285.650925763","1_I","training","05","1_A","58.0","01010","kill","1.0","5000.0","1.72540429898"
"58","1_46_1",46,"1.0","289.072921811","1_I","training","05","1_A","59.0","11011","ignore","1.0","5100.0","1.27995720648"
"59","1_46_1",46,"1.0","291.869977745","1_I","training","05","1_A","60.0","00001","ignore","1.0","5200.0","0.619110195358"
"60","1_46_1",46,"1.0","298.854674876","1_I","training","05","1_A","61.0","11110","ignore","1.0","5300.0","4.83531516087"
"61","1_46_1",46,"1.0","301.9485316","1_I","training","05","1_A","62.0","10111","ignore","1.0","5400.0","0.946792189937"
"62","1_46_1",46,"1.0","306.136274608","1_I","training","05","1_A","63.0","00000","kill","1.0","5500.0","2.03334396603"
"63","1_46_1",46,"1.0","309.777029931","1_I","training","05","1_A","64.0","01110","kill","1.0","5600.0","1.49878380858"
"64","1_46_1",46,"1.0","313.558512457","1_I","training","05","1_A","65.0","00110","kill","1.0","5700.0","1.6203717502"
"65","1_46_1",46,"1.0","317.246174796","1_I","training","05","1_A","66.0","10111","ignore","1.0","5800.0","1.50926173384"
"66","1_46_1",46,"1.0","321.402642081","1_I","training","05","1_A","67.0","11110","ignore","1.0","5900.0","2.01044303031"
"67","1_46_1",46,"1.0","324.48088065","1_I","training","05","1_A","68.0","00001","ignore","1.0","6000.0","0.918412337538"
"68","1_46_1",46,"1.0","328.606109981","1_I","training","05","1_A","69.0","01000","kill","1.0","6100.0","1.96507590882"
"69","1_46_1",46,"1.0","331.840631919","1_I","training","05","1_A","70.0","10011","ignore","1.0","6200.0","1.06920693646"
"70","1_46_1",46,"1.0","335.840805162","1_I","training","05","1_A","71.0","00101","ignore","1.0","6300.0","1.82112728731"
"71","1_46_1",46,"1.0","339.981600512","1_I","training","05","1_A","72.0","01110","kill","1.0","6400.0","1.6417943719"
"72","1_46_1",46,"1.0","343.481792024","1_I","training","05","1_A","73.0","01101","ignore","1.0","6500.0","1.32933929914"
"73","1_46_1",46,"1.0","348.872676561","1_I","training","05","1_A","74.0","11000","kill","1.0","6600.0","3.22092563559"
"74","1_46_1",46,"1.0","352.169738038","1_I","training","05","1_A","75.0","10100","ignore","1.0","6700.0","1.12645640205"
"75","1_46_1",46,"1.0","356.232444251","1_I","training","05","1_A","76.0","00000","kill","1.0","6800.0","1.88523463565"
"76","1_46_1",46,"1.0","360.357651414","1_I","training","05","1_A","77.0","11111","ignore","1.0","6900.0","1.96306719165"
"77","1_46_1",46,"1.0","364.170326736","1_I","training","05","1_A","78.0","10000","kill","1.0","7000.0","1.63170644896"
"78","1_46_1",46,"1.0","367.77985519","1_I","training","05","1_A","79.0","10001","ignore","1.0","7100.0","1.45236860719"
"79","1_46_1",46,"1.0","371.530057478","1_I","training","05","1_A","80.0","10010","kill","1.0","7200.0","1.59726472905"
"80","1_46_1",46,"1.0","374.639554527","1_I","training","05","1_A","81.0","01001","ignore","1.0","7300.0","0.935120036553"
"81","1_46_1",46,"1.0","377.78034454","1_I","training","05","1_A","82.0","00111","ignore","1.0","7400.0","0.976954147633"
"82","1_46_1",46,"1.0","381.93681552","1_I","training","05","1_A","83.0","11100","ignore","1.0","7500.0","2.00832470197"
"83","1_46_1",46,"1.0","385.04628178","1_I","training","05","1_A","84.0","00011","ignore","1.0","7600.0","0.934225083881"
"84","1_46_1",46,"1.0","388.499565455","1_I","training","05","1_A","85.0","10101","ignore","1.0","7700.0","1.1875451325"
"85","1_46_1",46,"1.0","392.921703957","1_I","training","05","1_A","86.0","10110","ignore","1.0","7800.0","2.16482606102"
"86","1_46_1",46,"1.0","397.156275158","1_I","training","05","1_A","87.0","00100","kill","1.0","7900.0","2.10644025185"
"87","1_46_1",46,"1.0","400.906460204","1_I","training","05","1_A","88.0","11011","ignore","1.0","8000.0","1.6116266668"
"88","1_46_1",46,"1.0","407.18800903","1_I","training","05","1_A","89.0","11010","kill","1.0","8100.0","4.13708745453"
"89","1_46_1",46,"1.0","410.172513212","1_I","training","05","1_A","90.0","01010","kill","1.0","8200.0","0.851827037669"
"90","1_46_1",46,"1.0","413.328962023","1_I","training","05","1_A","91.0","01011","ignore","1.0","8300.0","1.00941096104"
"91","1_46_1",46,"1.0","417.516623335","1_I","training","05","1_A","92.0","01111","ignore","1.0","8400.0","2.04918544938"
"92","1_46_1",46,"1.0","421.798091698","1_I","training","05","1_A","93.0","11001","ignore","1.0","8500.0","2.12140279316"
"93","1_46_1",46,"1.0","425.954520804","1_I","training","05","1_A","94.0","01100","kill","1.0","8600.0","1.98403946331"
"94","1_46_1",46,"1.0","428.954646836","1_I","training","05","1_A","95.0","11101","ignore","1.0","8700.0","0.83739777321"
"95","1_46_1",46,"1.0","432.048581151","1_I","training","05","1_A","96.0","00010","kill","1.0","8800.0","0.938694920897"
"96","1_46_1",46,"1.0","435.736215984","1_I","training","05","1_A","97.0","11000","kill","1.0","8900.0","1.53146353909"
"97","1_46_1",46,"1.0","438.830117046","1_I","training","05","1_A","98.0","11111","ignore","1.0","9000.0","0.953388155343"
"98","1_46_1",46,"1.0","442.595950216","1_I","training","05","1_A","99.0","11100","ignore","1.0","9100.0","1.61594583976"
"99","1_46_1",46,"1.0","448.174346633","1_I","training","05","1_A","100.0","01111","ignore","1.0","9200.0","3.43547001231"
"100","1_46_1",46,"1.0","452.502656326","1_I","training","05","1_A","101.0","00100","kill","1.0","9300.0","2.14606407615"
"101","1_46_1",46,"1.0","455.612197302","1_I","training","05","1_A","102.0","00000","kill","1.0","9400.0","0.93522964773"
"102","1_46_1",46,"1.0","459.924886376","1_I","training","05","1_A","103.0","11010","kill","1.0","9500.0","2.19522530434"
"103","1_46_1",46,"1.0","463.268829004","1_I","training","05","1_A","104.0","01101","ignore","1.0","9600.0","1.17732460878"
"104","1_46_1",46,"1.0","466.159590177","1_I","training","05","1_A","105.0","01001","ignore","1.0","9700.0","0.744337884866"
"105","1_46_1",46,"1.0","469.878513048","1_I","training","05","1_A","106.0","11110","ignore","1.0","9800.0","1.60156871245"
"106","1_46_1",46,"1.0","472.972407131","1_I","training","05","1_A","107.0","10101","ignore","1.0","9900.0","0.921342281218"
"107","1_46_1",46,"1.0","476.285017384","1_I","training","05","1_A","108.0","01000","kill","1.0","10000.0","1.16307720855"
"108","1_46_1",46,"1.0","479.457098719","1_I","training","05","1_A","109.0","01011","ignore","1.0","10100.0","1.04786436787"
"109","1_46_1",46,"1.0","482.285323228","1_I","training","05","1_A","110.0","00001","ignore","1.0","10200.0","0.61928672272"
"110","1_46_1",46,"1.0","485.738645904","1_I","training","05","1_A","111.0","00111","ignore","1.0","10300.0","1.27627147938"
"111","1_46_1",46,"1.0","489.410711023","1_I","training","05","1_A","112.0","10111","ignore","1.0","10400.0","1.50630880055"
"112","1_46_1",46,"1.0","493.629645184","1_I","training","05","1_A","113.0","00010","kill","1.0","10500.0","2.11213100137"
"113","1_46_1",46,"1.0","496.78601189","1_I","training","05","1_A","114.0","00011","ignore","1.0","10600.0","1.00083624706"
"114","1_46_1",46,"1.0","500.583136793","1_I","training","05","1_A","115.0","00110","kill","1.0","10700.0","1.62933769807"
"115","1_46_1",46,"1.0","503.50510513","1_I","training","05","1_A","116.0","10011","ignore","1.0","10800.0","0.779960285449"
"116","1_46_1",46,"1.0","508.286600383","1_I","training","05","1_A","117.0","10110","ignore","1.0","10900.0","2.56687944372"
"117","1_46_1",46,"1.0","511.989923161","1_I","training","05","1_A","118.0","01110","kill","1.0","11000.0","1.54725124318"
"118","1_46_1",46,"1.0","515.036935682","1_I","training","05","1_A","119.0","10010","kill","1.0","11100.0","0.886931350972"
"119","1_46_1",46,"1.0","518.13081827","1_I","training","05","1_A","120.0","00101","ignore","1.0","11200.0","0.842341360402"
"120","1_46_1",46,"1.0","521.146593248","1_I","training","05","1_A","121.0","01010","kill","1.0","11300.0","0.893380347085"
"121","1_46_1",46,"1.0","523.990466701","1_I","training","05","1_A","122.0","11011","ignore","1.0","11400.0","0.684429424566"
"122","1_46_1",46,"1.0","527.865654467","1_I","training","05","1_A","123.0","01100","kill","1.0","11500.0","1.72003868823"
"123","1_46_1",46,"1.0","531.725231466","1_I","training","05","1_A","124.0","10100","ignore","1.0","11600.0","1.64247174433"
"124","1_46_1",46,"1.0","535.537890777","1_I","training","05","1_A","125.0","10000","kill","1.0","11700.0","1.64109524144"
"125","1_46_1",46,"1.0","538.444305823","1_I","training","05","1_A","126.0","11101","ignore","1.0","11800.0","0.747020690239"
"126","1_46_1",46,"1.0","541.210075361","1_I","training","05","1_A","127.0","10001","ignore","1.0","11900.0","0.571408807401"
"127","1_46_1",46,"1.0","543.866428314","1_I","training","05","1_A","128.0","11001","ignore","1.0","12000.0","0.488522231979"
"128","1_46_1",46,"1.0","547.054087984","1_I","training","05","1_A","129.0","11100","ignore","1.0","12100.0","1.02221863694"
"129","1_46_1",46,"1.0","550.007326296","1_I","training","05","1_A","130.0","11001","ignore","1.0","12200.0","0.765506799793"
"130","1_46_1",46,"1.0","553.319980886","1_I","training","05","1_A","131.0","00001","ignore","1.0","12300.0","1.08526558952"
"131","1_46_1",46,"1.0","556.570193232","1_I","training","05","1_A","132.0","10010","kill","1.0","12400.0","1.06870691244"
"132","1_46_1",46,"1.0","560.585978883","1_I","training","05","1_A","133.0","00101","ignore","1.0","12500.0","1.84672909167"
"133","1_46_1",46,"1.0","565.351826832","1_I","training","05","1_A","134.0","10111","ignore","1.0","12600.0","2.60238689625"
"134","1_46_1",46,"1.0","568.086313259","1_I","training","05","1_A","135.0","00011","ignore","1.0","12700.0","0.574585889388"
"135","1_46_1",46,"1.0","571.524000948","1_I","training","05","1_A","136.0","01000","kill","1.0","12800.0","1.30945041285"
"136","1_46_1",46,"1.0","575.430493172","1_I","training","05","1_A","137.0","10000","kill","1.0","12900.0","1.67836960971"
"137","1_46_1",46,"1.0","579.055590108","1_I","training","05","1_A","138.0","11010","kill","1.0","13000.0","1.36245911647"
"138","1_46_1",46,"1.0","582.477680168","1_I","training","05","1_A","139.0","01001","ignore","1.0","13100.0","1.19037983351"
"139","1_46_1",46,"1.0","586.180954093","1_I","training","05","1_A","140.0","10110","ignore","1.0","13200.0","1.53869048719"
"140","1_46_1",46,"1.0","589.227981393","1_I","training","05","1_A","141.0","01110","kill","1.0","13300.0","0.930378429506"
"141","1_46_1",46,"1.0","592.196904367","1_I","training","05","1_A","142.0","00010","kill","1.0","13400.0","0.815808066315"
"142","1_46_1",46,"1.0","595.540786647","1_I","training","05","1_A","143.0","01100","kill","1.0","13500.0","1.18140649612"
"143","1_46_1",46,"1.0","598.900298167","1_I","training","05","1_A","144.0","11000","kill","1.0","13600.0","1.19896727388"
"144","1_46_1",46,"1.0","602.072363492","1_I","training","05","1_A","145.0","11111","ignore","1.0","13700.0","0.970097496472"
"145","1_46_1",46,"1.0","605.416257677","1_I","training","05","1_A","146.0","11101","ignore","1.0","13800.0","1.21136236839"
"146","1_46_1",46,"1.0","608.322664102","1_I","training","05","1_A","147.0","11011","ignore","1.0","13900.0","0.761044352294"
"147","1_46_1",46,"1.0","612.260337627","1_I","training","05","1_A","148.0","00000","kill","1.0","14000.0","1.76379941073"
"148","1_46_1",46,"1.0","615.588598878","1_I","training","05","1_A","149.0","00100","kill","1.0","14100.0","1.18527080324"
"149","1_46_1",46,"1.0","618.4324945","1_I","training","05","1_A","150.0","10001","ignore","1.0","14200.0","0.701265208551"
"150","1_46_1",46,"1.0","621.167004737","1_I","training","05","1_A","151.0","01111","ignore","1.0","14300.0","0.612326618314"
"151","1_46_1",46,"1.0","624.120280818","1_I","training","05","1_A","152.0","00111","ignore","1.0","14400.0","0.786939274177"
"152","1_46_1",46,"1.0","627.667324744","1_I","training","05","1_A","153.0","11110","ignore","1.0","14500.0","1.40916250904"
"153","1_46_1",46,"1.0","630.683117375","1_I","training","05","1_A","154.0","01010","kill","1.0","14600.0","0.88754221775"
"154","1_46_1",46,"1.0","633.558257929","1_I","training","05","1_A","155.0","10101","ignore","1.0","14700.0","0.711167572498"
"155","1_46_1",46,"1.0","637.714687857","1_I","training","05","1_A","156.0","10100","ignore","1.0","14800.0","1.96959172505"
"156","1_46_1",46,"1.0","641.199271065","1_I","training","05","1_A","157.0","01011","ignore","1.0","14900.0","1.35779345724"
"157","1_46_1",46,"1.0","644.683772168","1_I","training","05","1_A","158.0","10011","ignore","1.0","15000.0","1.30863469222"
"158","1_46_1",46,"1.0","647.715158322","1_I","training","05","1_A","159.0","01101","ignore","1.0","15100.0","0.892828596448"
"159","1_46_1",46,"1.0","651.293497266","1_I","training","05","1_A","160.0","00110","kill","1.0","15200.0","1.39897154338"
"160","1_46_1",46,"1.0","654.043601437","1_I","training","05","1_A","161.0","00010","kill","1.0","15300.0","0.616068998388"
"161","1_46_1",46,"1.0","657.200016175","1_I","training","05","1_A","162.0","11110","ignore","1.0","15400.0","1.03502467073"
"162","1_46_1",46,"1.0","661.575219335","1_I","training","05","1_A","163.0","10000","kill","1.0","15500.0","2.21582851065"
"163","1_46_1",46,"1.0","664.262809831","1_I","training","05","1_A","164.0","10001","ignore","1.0","15600.0","0.547602655793"
"164","1_46_1",46,"1.0","667.450471143","1_I","training","05","1_A","165.0","00110","kill","1.0","15700.0","1.04727525912"
"165","1_46_1",46,"1.0","671.200662347","1_I","training","05","1_A","166.0","11100","ignore","1.0","15800.0","1.61265093603"
"166","1_46_1",46,"1.0","673.903936683","1_I","training","05","1_A","167.0","01101","ignore","1.0","15900.0","0.563545950278"
"167","1_46_1",46,"1.0","677.247854679","1_I","training","05","1_A","168.0","00101","ignore","1.0","16000.0","1.18749012165"
"168","1_46_1",46,"1.0","680.498003393","1_I","training","05","1_A","169.0","00000","kill","1.0","16100.0","1.09313337299"
"169","1_46_1",46,"1.0","683.545046704","1_I","training","05","1_A","170.0","01010","kill","1.0","16200.0","0.91485880069"
"170","1_46_1",46,"1.0","687.623309494","1_I","training","05","1_A","171.0","11000","kill","1.0","16300.0","1.94778895374"
"171","1_46_1",46,"1.0","690.779752147","1_I","training","05","1_A","172.0","10100","ignore","1.0","16400.0","0.971804064481"
"172","1_46_1",46,"1.0","693.717385851","1_I","training","05","1_A","173.0","01000","kill","1.0","16500.0","0.769252464096"
"173","1_46_1",46,"1.0","696.733118545","1_I","training","05","1_A","174.0","00011","ignore","1.0","16600.0","0.888967573566"
"174","1_46_1",46,"1.0","699.873914716","1_I","training","05","1_A","175.0","11011","ignore","1.0","16700.0","1.00738335955"
"175","1_46_1",46,"1.0","703.092859961","1_I","training","05","1_A","176.0","11101","ignore","1.0","16800.0","1.01062202084"
"176","1_46_1",46,"1.0","706.124240368","1_I","training","05","1_A","177.0","00001","ignore","1.0","16900.0","0.882066174771"
"177","1_46_1",46,"1.0","709.843149692","1_I","training","05","1_A","178.0","00100","kill","1.0","17000.0","1.5432231351"
"178","1_46_1",46,"1.0","713.046452149","1_I","training","05","1_A","179.0","10110","ignore","1.0","17100.0","1.06581925322"
"179","1_46_1",46,"1.0","715.749724843","1_I","training","05","1_A","180.0","10011","ignore","1.0","17200.0","0.553985556778"
"180","1_46_1",46,"1.0","718.781112229","1_I","training","05","1_A","181.0","10101","ignore","1.0","17300.0","0.876725195751"
"181","1_46_1",46,"1.0","722.718755375","1_I","training","05","1_A","182.0","01100","kill","1.0","17400.0","1.75372503523"
"182","1_46_1",46,"1.0","725.734556216","1_I","training","05","1_A","183.0","01110","kill","1.0","17500.0","0.889227438264"
"183","1_46_1",46,"1.0","728.547154358","1_I","training","05","1_A","184.0","00111","ignore","1.0","17600.0","0.655998666602"
"184","1_46_1",46,"1.0","731.672301584","1_I","training","05","1_A","185.0","10111","ignore","1.0","17700.0","1.00475925978"
"185","1_46_1",46,"1.0","734.422470209","1_I","training","05","1_A","186.0","01001","ignore","1.0","17800.0","0.590118244595"
"186","1_46_1",46,"1.0","737.203875556","1_I","training","05","1_A","187.0","01111","ignore","1.0","17900.0","0.609702929081"
"187","1_46_1",46,"1.0","740.141521165","1_I","training","05","1_A","188.0","11111","ignore","1.0","18000.0","0.784116478501"
"188","1_46_1",46,"1.0","743.876008002","1_I","training","05","1_A","189.0","11010","kill","1.0","18100.0","1.60022094657"
"189","1_46_1",46,"1.0","747.173045668","1_I","training","05","1_A","190.0","11001","ignore","1.0","18200.0","1.16939606705"
"190","1_46_1",46,"1.0","750.048241233","1_I","training","05","1_A","191.0","01011","ignore","1.0","18300.0","0.744312021554"
"191","1_46_1",46,"1.0","753.220228558","1_I","training","05","1_A","192.0","10010","kill","1.0","18400.0","1.0022505186"
"192","1_46_1",46,"1.0","756.329760912","1_I","training","05","1_A","193.0","00100","kill","1.0","18500.0","0.963862796366"
"193","1_46_1",46,"1.0","759.283055056","1_I","training","05","1_A","194.0","10000","kill","1.0","18600.0","0.818002753006"
"194","1_46_1",46,"1.0","762.939460557","1_I","training","05","1_A","195.0","11011","ignore","1.0","18700.0","1.532433208"
"195","1_46_1",46,"1.0","765.642735304","1_I","training","05","1_A","196.0","10111","ignore","1.0","18800.0","0.535565131823"
"196","1_46_1",46,"1.0","768.596001943","1_I","training","05","1_A","197.0","10010","kill","1.0","18900.0","0.810488024261"
"197","1_46_1",46,"1.0","771.564885095","1_I","training","05","1_A","198.0","00101","ignore","1.0","19000.0","0.839011151192"
"198","1_46_1",46,"1.0","774.408781538","1_I","training","05","1_A","199.0","00111","ignore","1.0","19100.0","0.683098079834"
"199","1_46_1",46,"1.0","777.61201708","1_I","training","05","1_A","200.0","11010","kill","1.0","19200.0","1.03481324842"
"200","1_46_1",46,"1.0","781.034052128","1_I","training","05","1_A","201.0","11110","ignore","1.0","19300.0","1.25994475104"
"201","1_46_1",46,"1.0","786.159347555","1_I","training","05","1_A","202.0","01010","kill","1.0","19400.0","2.97352048518"
"202","1_46_1",46,"1.0","789.31572165","1_I","training","05","1_A","203.0","01110","kill","1.0","19500.0","1.02174776046"
"203","1_46_1",46,"1.0","792.987765012","1_I","training","05","1_A","204.0","01011","ignore","1.0","19600.0","1.53360485705"
"204","1_46_1",46,"1.0","795.565997628","1_I","training","05","1_A","205.0","00011","ignore","1.0","19700.0","0.436014373432"
"205","1_46_1",46,"1.0","798.75367413","1_I","training","05","1_A","206.0","11100","ignore","1.0","19800.0","1.03733676864"
"206","1_46_1",46,"1.0","801.753820688","1_I","training","05","1_A","207.0","10001","ignore","1.0","19900.0","0.78911343443"
"207","1_46_1",46,"1.0","804.394580528","1_I","training","05","1_A","208.0","11001","ignore","1.0","20000.0","0.505012350758"
"208","1_46_1",46,"1.0","807.269694398","1_I","training","05","1_A","209.0","01000","kill","1.0","20100.0","0.734438394619"
"209","1_46_1",46,"1.0","810.582401946","1_I","training","05","1_A","210.0","10110","ignore","1.0","20200.0","1.15404188132"
"210","1_46_1",46,"1.0","813.582534547","1_I","training","05","1_A","211.0","00010","kill","1.0","20300.0","0.882792400128"
"211","1_46_1",46,"1.0","816.770132638","1_I","training","05","1_A","212.0","00110","kill","1.0","20400.0","1.037984583"
"212","1_46_1",46,"1.0","819.926584733","1_I","training","05","1_A","213.0","11111","ignore","1.0","20500.0","1.02261233401"
"213","1_46_1",46,"1.0","823.489255436","1_I","training","05","1_A","214.0","10011","ignore","1.0","20600.0","1.40295490383"
"214","1_46_1",46,"1.0","827.083152598","1_I","training","05","1_A","215.0","01111","ignore","1.0","20700.0","1.43778211022"
"215","1_46_1",46,"1.0","830.474000599","1_I","training","05","1_A","216.0","11000","kill","1.0","20800.0","1.25958061204"
"216","1_46_1",46,"1.0","833.614755306","1_I","training","05","1_A","217.0","00001","ignore","1.0","20900.0","0.977563372297"
"217","1_46_1",46,"1.0","836.31798859","1_I","training","05","1_A","218.0","10101","ignore","1.0","21000.0","0.550488262368"
"218","1_46_1",46,"1.0","839.521255331","1_I","training","05","1_A","219.0","01100","kill","1.0","21100.0","1.06539599808"
"219","1_46_1",46,"1.0","842.443261027","1_I","training","05","1_A","220.0","01001","ignore","1.0","21200.0","0.716756921412"
"220","1_46_1",46,"1.0","960.589605494","1_I","test","05","2","0.0","10100","ignore","0.0","0.0","2.57081230913"
"221","1_46_1",46,"1.0","963.949095256","1_I","test","05","2","1.0","11101","ignore","1.0","100.0","1.21041404698"
"222","1_46_1",46,"1.0","967.496126045","1_I","test","05","2","2.0","01101","ignore","1.0","200.0","1.41039532687"
"223","1_46_1",46,"1.0","971.136946233","1_I","test","05","2","3.0","00000","kill","0.0","100.0","1.4914727021"
"224","1_46_1",46,"1.0","974.762119938","1_I","test","05","2","4.0","10100","kill","1.0","200.0","1.46505887188"
"225","1_46_1",46,"1.0","978.168533957","1_I","test","05","2","5.0","01010","ignore","1.0","300.0","1.29062151179"
"226","1_46_1",46,"1.0","981.199913953","1_I","test","05","2","6.0","00111","ignore","0.0","200.0","0.884680421843"
"227","1_46_1",46,"1.0","984.34073804","1_I","test","05","2","7.0","00101","ignore","0.0","100.0","1.01742407168"
"228","1_46_1",46,"1.0","988.30965773","1_I","test","05","2","8.0","00011","ignore","1.0","200.0","1.8246028237"
"229","1_46_1",46,"1.0","993.950556739","1_I","test","05","2","9.0","01100","ignore","1.0","300.0","3.47788748474"
"230","1_46_1",46,"1.0","1000.35713004","1_I","test","05","2","10.0","11001","ignore","1.0","400.0","4.2430753037"
"231","1_46_1",46,"1.0","1009.24816381","1_I","test","05","2","11.0","11010","ignore","1.0","500.0","6.77707467887"
"232","1_46_1",46,"1.0","1012.99835542","1_I","test","05","2","12.0","10000","ignore","1.0","600.0","1.61727102656"
"233","1_46_1",46,"1.0","1016.60789044","1_I","test","05","2","13.0","11000","ignore","1.0","700.0","1.47203662902"
"234","1_46_1",46,"1.0","1020.13931457","1_I","test","05","2","14.0","01011","kill","0.0","600.0","1.39288545468"
"235","1_46_1",46,"1.0","1023.32699107","1_I","test","05","2","15.0","01110","ignore","0.0","500.0","1.05516233744"
"236","1_46_1",46,"1.0","1027.7802805","1_I","test","05","2","16.0","10111","kill","1.0","600.0","2.2806243157"
"237","1_46_1",46,"1.0","1030.96796808","1_I","test","05","2","17.0","11111","kill","1.0","700.0","1.03121291129"
"238","1_46_1",46,"1.0","1034.59312496","1_I","test","05","2","18.0","00000","ignore","1.0","800.0","1.47096227528"
"239","1_46_1",46,"1.0","1037.89017371","1_I","test","05","2","19.0","00110","ignore","0.0","700.0","1.13987987108"
"240","1_46_1",46,"1.0","1043.04666727","1_I","test","05","2","20.0","11101","ignore","1.0","800.0","3.05000855952"
"241","1_46_1",46,"1.0","1045.96865367","1_I","test","05","2","21.0","01000","ignore","1.0","900.0","0.762470118639"
"242","1_46_1",46,"1.0","1049.43758218","1_I","test","05","2","22.0","00001","ignore","1.0","1000.0","1.29871467554"
"243","1_46_1",46,"1.0","1053.8128108","1_I","test","05","2","23.0","10011","ignore","1.0","1100.0","2.2292766114"
"244","1_46_1",46,"1.0","1056.87544927","1_I","test","05","2","24.0","10010","kill","0.0","1000.0","0.923571452323"
"245","1_46_1",46,"1.0","1059.95373382","1_I","test","05","2","25.0","01001","ignore","1.0","1100.0","0.956785280738"
"246","1_46_1",46,"1.0","1063.45390563","1_I","test","05","2","26.0","11011","ignore","1.0","1200.0","1.35271398503"
"247","1_46_1",46,"1.0","1067.90722625","1_I","test","05","2","27.0","01111","ignore","0.0","1100.0","2.28918260852"
"248","1_46_1",46,"1.0","1072.09494873","1_I","test","05","2","28.0","10110","kill","1.0","1200.0","2.0550190629"
"249","1_46_1",46,"1.0","1075.04817226","1_I","test","05","2","29.0","10001","ignore","1.0","1300.0","0.829488115809"
"250","1_46_1",46,"1.0","1079.43903874","1_I","test","05","2","30.0","00010","ignore","1.0","1400.0","2.22864891294"
"251","1_46_1",46,"1.0","1082.75169661","1_I","test","05","2","31.0","10101","ignore","0.0","1300.0","1.18110681014"
"252","1_46_1",46,"1.0","1087.22066413","1_I","test","05","2","32.0","11110","kill","1.0","1400.0","2.3342767284"
"253","1_46_1",46,"1.0","1090.53327315","1_I","test","05","2","33.0","00100","ignore","0.0","1300.0","1.1616641686"
"254","1_46_1",46,"1.0","1093.54906496","1_I","test","05","2","34.0","11100","kill","0.0","1200.0","0.851150486292"
"255","1_46_1",46,"1.0","1096.42425067","1_I","test","05","2","35.0","01101","ignore","1.0","1300.0","0.672789702954"
"256","1_46_1",46,"1.0","1101.2525655","1_I","test","05","2","36.0","00110","kill","1.0","1400.0","2.6998464212"
"257","1_46_1",46,"1.0","1104.08082079","1_I","test","05","2","37.0","00001","ignore","1.0","1500.0","0.671586032663"
"258","1_46_1",46,"1.0","1107.45603052","1_I","test","05","2","38.0","10010","ignore","1.0","1600.0","1.24084284836"
"259","1_46_1",46,"1.0","1110.50300733","1_I","test","05","2","39.0","10111","ignore","0.0","1500.0","0.890130601511"
"260","1_46_1",46,"1.0","1113.81566397","1_I","test","05","2","40.0","10101","ignore","0.0","1400.0","1.13282534506"
"261","1_46_1",46,"1.0","1116.90956339","1_I","test","05","2","41.0","11111","kill","1.0","1500.0","0.983194595143"
"262","1_46_1",46,"1.0","1119.87845804","1_I","test","05","2","42.0","01011","ignore","1.0","1600.0","0.821502510589"
"263","1_46_1",46,"1.0","1123.06613823","1_I","test","05","2","43.0","11101","kill","0.0","1500.0","1.05679747344"
"264","1_46_1",46,"1.0","1125.9412521","1_I","test","05","2","44.0","10001","ignore","1.0","1600.0","0.721746077295"
"265","1_46_1",46,"1.0","1129.37894718","1_I","test","05","2","45.0","00010","ignore","1.0","1700.0","1.283206131"
"266","1_46_1",46,"1.0","1133.86353244","1_I","test","05","2","46.0","01101","ignore","1.0","1800.0","2.34475177995"
"267","1_46_1",46,"1.0","1139.05128571","1_I","test","05","2","47.0","01111","ignore","0.0","1700.0","3.03266946729"
"268","1_46_1",46,"1.0","1142.06704058","1_I","test","05","2","48.0","00011","ignore","1.0","1800.0","0.826933805934"
"269","1_46_1",46,"1.0","1148.47355682","1_I","test","05","2","49.0","10100","ignore","0.0","1700.0","4.11684428193"
"270","1_46_1",46,"1.0","1151.49146778","1_I","test","05","2","50.0","11110","kill","1.0","1800.0","0.869933408132"
"271","1_46_1",46,"1.0","1154.56974863","1_I","test","05","2","51.0","01010","ignore","1.0","1900.0","0.91436657672"
"272","1_46_1",46,"1.0","1157.71911951","1_I","test","05","2","52.0","11010","ignore","1.0","2000.0","1.04089974765"
"273","1_46_1",46,"1.0","1162.89123616","1_I","test","05","2","53.0","00100","ignore","0.0","1900.0","2.99281410478"
"274","1_46_1",46,"1.0","1166.21953641","1_I","test","05","2","54.0","00111","ignore","0.0","1800.0","1.19611697278"
"275","1_46_1",46,"1.0","1169.6415653","1_I","test","05","2","55.0","10011","ignore","1.0","1900.0","1.27158611477"
"276","1_46_1",46,"1.0","1174.51676661","1_I","test","05","2","56.0","11100","kill","0.0","1800.0","2.74363957546"
"277","1_46_1",46,"1.0","1179.95454954","1_I","test","05","2","57.0","10110","ignore","0.0","1700.0","3.26521594017"
"278","1_46_1",46,"1.0","1182.73598937","1_I","test","05","2","58.0","11001","ignore","1.0","1800.0","0.628615578006"
"279","1_46_1",46,"1.0","1185.90796151","1_I","test","05","2","59.0","01000","ignore","1.0","1900.0","1.01929690383"
"280","1_46_1",46,"1.0","1189.47064329","1_I","test","05","2","60.0","10000","ignore","1.0","2000.0","1.41971432947"
"281","1_46_1",46,"1.0","1192.39264201","1_I","test","05","2","61.0","01110","kill","1.0","2100.0","0.797920097148"
"282","1_46_1",46,"1.0","1196.18972627","1_I","test","05","2","62.0","11011","ignore","1.0","2200.0","1.58178615311"
"283","1_46_1",46,"1.0","1199.7367275","1_I","test","05","2","63.0","00101","kill","1.0","2300.0","1.39952657825"
"284","1_46_1",46,"1.0","1202.5024995","1_I","test","05","2","64.0","01100","kill","0.0","2200.0","0.652539140837"
"285","1_46_1",46,"1.0","1205.62764304","1_I","test","05","2","65.0","00000","ignore","1.0","2300.0","0.955388251406"
"286","1_46_1",46,"1.0","1210.73725175","1_I","test","05","2","66.0","11000","ignore","1.0","2400.0","2.9748859038"
"287","1_46_1",46,"1.0","1214.14372735","1_I","test","05","2","67.0","01001","ignore","1.0","2500.0","1.26910734218"
"288","1_46_1",46,"1.0","1220.05025323","1_I","test","05","2","68.0","10110","kill","1.0","2600.0","3.72893648833"
"289","1_46_1",46,"1.0","1226.40993307","1_I","test","05","2","69.0","01110","kill","1.0","2700.0","4.25718148203"
"290","1_46_1",46,"1.0","1231.76957021","1_I","test","05","2","70.0","00100","ignore","0.0","2600.0","3.22251561343"
"291","1_46_1",46,"1.0","1234.95720443","1_I","test","05","2","71.0","11101","ignore","1.0","2700.0","1.02160325434"
"292","1_46_1",46,"1.0","1237.95733744","1_I","test","05","2","72.0","10010","ignore","1.0","2800.0","0.865350265181"
"293","1_46_1",46,"1.0","1242.53565873","1_I","test","05","2","73.0","11111","ignore","0.0","2700.0","2.44916689348"
"294","1_46_1",46,"1.0","1245.58274022","1_I","test","05","2","74.0","11110","kill","1.0","2800.0","0.933900355641"
"295","1_46_1",46,"1.0","1248.80161198","1_I","test","05","2","75.0","11001","ignore","1.0","2900.0","1.06011249309"
"296","1_46_1",46,"1.0","1252.37991973","1_I","test","05","2","76.0","11010","ignore","1.0","3000.0","1.43877600033"
"297","1_46_1",46,"1.0","1255.176942","1_I","test","05","2","77.0","10001","ignore","1.0","3100.0","0.675481950488"
"298","1_46_1",46,"1.0","1259.73963446","1_I","test","05","2","78.0","10101","ignore","0.0","3000.0","2.38597050844"
"299","1_46_1",46,"1.0","1262.52101928","1_I","test","05","2","79.0","01001","ignore","1.0","3100.0","0.661759616533"
"300","1_46_1",46,"1.0","1265.48989011","1_I","test","05","2","80.0","10111","kill","1.0","3200.0","0.787930701105"
"301","1_46_1",46,"1.0","1268.58382853","1_I","test","05","2","81.0","00010","ignore","1.0","3300.0","0.936371738708"
"302","1_46_1",46,"1.0","1271.8808584","1_I","test","05","2","82.0","01111","kill","1.0","3400.0","1.16976472187"
"303","1_46_1",46,"1.0","1275.2247374","1_I","test","05","2","83.0","01000","ignore","1.0","3500.0","1.19199854837"
"304","1_46_1",46,"1.0","1278.53742647","1_I","test","05","2","84.0","00000","ignore","1.0","3600.0","1.19092049988"
"305","1_46_1",46,"1.0","1281.58441887","1_I","test","05","2","85.0","01011","ignore","1.0","3700.0","0.941661812164"
"306","1_46_1",46,"1.0","1288.52228535","1_I","test","05","2","86.0","11100","kill","0.0","3600.0","4.7890001285"
"307","1_46_1",46,"1.0","1291.9912114","1_I","test","05","2","87.0","00101","kill","1.0","3700.0","1.34147822371"
"308","1_46_1",46,"1.0","1295.36636242","1_I","test","05","2","88.0","00011","ignore","1.0","3800.0","1.23857796126"
"309","1_46_1",46,"1.0","1298.97586994","1_I","test","05","2","89.0","00111","kill","1.0","3900.0","1.44548527167"
"310","1_46_1",46,"1.0","1302.11664394","1_I","test","05","2","90.0","00001","ignore","1.0","4000.0","0.986049412061"
"311","1_46_1",46,"1.0","1309.64824788","1_I","test","05","2","91.0","11000","ignore","1.0","4100.0","5.38878468301"
"312","1_46_1",46,"1.0","1313.05468695","1_I","test","05","2","92.0","01101","kill","0.0","4000.0","1.26335870812"
"313","1_46_1",46,"1.0","1316.00793675","1_I","test","05","2","93.0","11011","ignore","1.0","4100.0","0.834497798129"
"314","1_46_1",46,"1.0","1321.10195235","1_I","test","05","2","94.0","10100","ignore","0.0","4000.0","2.92840789151"
"315","1_46_1",46,"1.0","1324.07085685","1_I","test","05","2","95.0","00110","kill","1.0","4100.0","0.810674404313"
"316","1_46_1",46,"1.0","1327.36784977","1_I","test","05","2","96.0","10000","ignore","1.0","4200.0","1.16257225819"
"317","1_46_1",46,"1.0","1330.57116783","1_I","test","05","2","97.0","01100","kill","0.0","4100.0","1.0769458139"
"318","1_46_1",46,"1.0","1333.49319364","1_I","test","05","2","98.0","01010","ignore","1.0","4200.0","0.758431336809"
"319","1_46_1",46,"1.0","1336.44646028","1_I","test","05","2","99.0","10011","ignore","1.0","4300.0","0.805716038086"
"320","1_46_1",46,"1.0","1339.5403519","1_I","test","05","2","100.0","00000","ignore","1.0","4400.0","0.980880855115"
"321","1_46_1",46,"1.0","1343.35299109","1_I","test","05","2","101.0","01000","ignore","1.0","4500.0","1.66737318664"
"322","1_46_1",46,"1.0","1348.32197934","1_I","test","05","2","102.0","11101","kill","0.0","4400.0","2.81837592364"
"323","1_46_1",46,"1.0","1352.61911225","1_I","test","05","2","103.0","10110","kill","1.0","4500.0","2.12157028888"
"324","1_46_1",46,"1.0","1356.15048834","1_I","test","05","2","104.0","01100","ignore","1.0","4600.0","1.38402583375"
"325","1_46_1",46,"1.0","1359.44753381","1_I","test","05","2","105.0","01101","ignore","1.0","4700.0","1.172015651"
"326","1_46_1",46,"1.0","1362.60392761","1_I","test","05","2","106.0","10001","ignore","1.0","4800.0","1.01586939931"
"327","1_46_1",46,"1.0","1365.99470911","1_I","test","05","2","107.0","00111","ignore","0.0","4700.0","1.25670485816"
"328","1_46_1",46,"1.0","1369.19801567","1_I","test","05","2","108.0","01010","ignore","1.0","4800.0","1.09162591143"
"329","1_46_1",46,"1.0","1372.24507253","1_I","test","05","2","109.0","11011","ignore","1.0","4900.0","0.897360012776"
"330","1_46_1",46,"1.0","1377.91721606","1_I","test","05","2","110.0","11010","ignore","1.0","5000.0","3.60777919137"
"331","1_46_1",46,"1.0","1381.41736446","1_I","test","05","3","0.0","01001","ignore","1.0","5100.0","1.39055693562"
"332","1_46_1",46,"1.0","1385.07374082","1_I","test","05","3","1.0","01111","ignore","1.0","5200.0","1.51117520833"
"333","1_46_1",46,"1.0","1392.4647637","1_I","test","05","3","2.0","10111","kill","0.0","5100.0","5.24660051406"
"334","1_46_1",46,"1.0","1396.13682595","1_I","test","05","3","3.0","11111","ignore","1.0","5200.0","1.52348286022"
"335","1_46_1",46,"1.0","1399.09004702","1_I","test","05","3","4.0","00011","ignore","1.0","5300.0","0.797856054663"
"336","1_46_1",46,"1.0","1402.51211039","1_I","test","05","3","5.0","11001","ignore","0.0","5200.0","1.26478981133"
"337","1_46_1",46,"1.0","1405.98101387","1_I","test","05","3","6.0","00010","ignore","1.0","5300.0","1.30099105745"
"338","1_46_1",46,"1.0","1412.29382897","1_I","test","05","3","7.0","10100","ignore","0.0","5200.0","4.19921769642"
"339","1_46_1",46,"1.0","1417.5128477","1_I","test","05","3","8.0","00101","ignore","1.0","5300.0","3.04901384837"
"340","1_46_1",46,"1.0","1420.76302269","1_I","test","05","3","9.0","10011","ignore","0.0","5200.0","1.12933215594"
"341","1_46_1",46,"1.0","1423.81001181","1_I","test","05","3","10.0","01011","ignore","1.0","5300.0","0.893127871905"
"342","1_46_1",46,"1.0","1427.74768493","1_I","test","05","3","11.0","10101","kill","0.0","5200.0","1.77702541542"
"343","1_46_1",46,"1.0","1430.95098081","1_I","test","05","3","12.0","11000","ignore","0.0","5100.0","1.08361772712"
"344","1_46_1",46,"1.0","1438.34195362","1_I","test","05","3","13.0","00001","ignore","1.0","5200.0","5.22376854718"
"345","1_46_1",46,"1.0","1443.37346662","1_I","test","05","3","14.0","00110","ignore","1.0","5300.0","2.89552002292"
"346","1_46_1",46,"1.0","1448.5924402","1_I","test","05","3","15.0","11100","kill","1.0","5400.0","3.08412760383"
"347","1_46_1",46,"1.0","1451.71757962","1_I","test","05","3","16.0","01110","ignore","1.0","5500.0","1.02971776559"
"348","1_46_1",46,"1.0","1454.88959568","1_I","test","05","3","17.0","00100","ignore","1.0","5600.0","1.05172456969"
"349","1_46_1",46,"1.0","1458.18664361","1_I","test","05","3","18.0","10010","ignore","0.0","5500.0","1.19750579153"
"350","1_46_1",46,"1.0","1461.23369021","1_I","test","05","3","19.0","10000","ignore","0.0","5400.0","0.901372931294"
"351","1_46_1",46,"1.0","1466.71833048","1_I","test","05","3","20.0","11110","kill","1.0","5500.0","3.3754671304"
"352","1_46_1",46,"1.0","1470.71856078","1_I","test","05","3","21.0","01010","ignore","1.0","5600.0","1.87744690529"
"353","1_46_1",46,"1.0","1473.99994047","1_I","test","05","3","22.0","11011","kill","1.0","5700.0","1.17031483039"
"354","1_46_1",46,"1.0","1478.78143367","1_I","test","05","3","23.0","11111","kill","0.0","5600.0","2.62802482714"
"355","1_46_1",46,"1.0","1481.71905219","1_I","test","05","3","24.0","00110","ignore","1.0","5700.0","0.792274095266"
"356","1_46_1",46,"1.0","1486.51614343","1_I","test","05","3","25.0","10000","ignore","0.0","5600.0","2.68595700204"
"357","1_46_1",46,"1.0","1489.68815292","1_I","test","05","3","26.0","00101","ignore","1.0","5700.0","1.01370427069"
"358","1_46_1",46,"1.0","1495.53222835","1_I","test","05","3","27.0","11000","ignore","0.0","5600.0","3.74429149512"
"359","1_46_1",46,"1.0","1498.67302247","1_I","test","05","3","28.0","10011","kill","1.0","5700.0","0.973449463706"
"360","1_46_1",46,"1.0","1501.89185934","1_I","test","05","3","29.0","10001","kill","1.0","5800.0","1.06282690917"
"361","1_46_1",46,"1.0","1504.81389705","1_I","test","05","3","30.0","00001","ignore","1.0","5900.0","0.7891758348"
"362","1_46_1",46,"1.0","1509.8453727","1_I","test","05","3","31.0","10110","kill","1.0","6000.0","2.89353634801"
"363","1_46_1",46,"1.0","1513.01740355","1_I","test","05","3","32.0","01110","ignore","1.0","6100.0","1.02566543631"
"364","1_46_1",46,"1.0","1516.04880448","1_I","test","05","3","33.0","01001","ignore","1.0","6200.0","0.930685915539"
"365","1_46_1",46,"1.0","1518.97085123","1_I","test","05","3","34.0","00011","ignore","1.0","6300.0","0.733968339202"
"366","1_46_1",46,"1.0","1522.22098845","1_I","test","05","3","35.0","11110","kill","1.0","6400.0","1.14364852499"
"367","1_46_1",46,"1.0","1525.31490716","1_I","test","05","3","36.0","01101","ignore","1.0","6500.0","0.964106239914"
"368","1_46_1",46,"1.0","1528.51816857","1_I","test","05","3","37.0","00111","ignore","1.0","6600.0","1.09551197656"
"369","1_46_1",46,"1.0","1532.20586293","1_I","test","05","4","0.0","10010","kill","1.0","6700.0","1.57616437243"
"370","1_46_1",46,"1.0","1536.31542484","1_I","test","05","4","1.0","01011","ignore","0.0","6600.0","1.951741114"
"371","1_46_1",46,"1.0","1540.0655951","1_I","test","05","4","2.0","11101","kill","0.0","6500.0","1.6526528573"
"372","1_46_1",46,"1.0","1543.84703576","1_I","test","05","4","3.0","10101","ignore","1.0","6600.0","1.67078673319"
"373","1_46_1",46,"1.0","1547.95660301","1_I","test","05","4","4.0","00100","ignore","1.0","6700.0","1.95047955916"
"374","1_46_1",46,"1.0","1551.3473533","1_I","test","05","4","5.0","01100","ignore","1.0","6800.0","1.14011469352"
"375","1_46_1",46,"1.0","1555.51946543","1_I","test","05","4","6.0","11001","kill","0.0","6700.0","1.81668413466"
"376","1_46_1",46,"1.0","1558.36336762","1_I","test","05","4","7.0","11100","ignore","1.0","6800.0","0.758677243529"
"377","1_46_1",46,"1.0","1561.6603593","1_I","test","05","4","8.0","01111","ignore","0.0","6700.0","1.13978421788"
"378","1_46_1",46,"1.0","1564.84804935","1_I","test","05","4","9.0","00000","ignore","1.0","6800.0","1.02940247951"
"379","1_46_1",46,"1.0","1567.73879493","1_I","test","05","4","10.0","01000","ignore","1.0","6900.0","0.774504358379"
"380","1_46_1",46,"1.0","1570.98898387","1_I","test","05","4","11.0","10111","ignore","0.0","6800.0","1.10248809159"
"381","1_46_1",46,"1.0","1575.27042227","1_I","test","05","4","12.0","10100","ignore","1.0","6900.0","2.16525957938"
"382","1_46_1",46,"1.0","1579.22371846","1_I","test","05","4","13.0","11010","ignore","1.0","7000.0","1.81257104713"
"383","1_46_1",46,"1.0","1583.83330973","1_I","test","05","4","14.0","00010","kill","1.0","7100.0","2.48286925111"
"384","1_46_1",46,"1.0","1586.89596955","1_I","test","05","4","15.0","00010","kill","1.0","7200.0","0.944528534417"
"385","1_46_1",46,"1.0","1590.11489797","1_I","test","05","4","16.0","11010","ignore","1.0","7300.0","1.11485773331"
"386","1_46_1",46,"1.0","1593.17752659","1_I","test","05","4","17.0","11100","ignore","1.0","7400.0","0.944868041692"
"387","1_46_1",46,"1.0","1597.14644176","1_I","test","05","4","18.0","01001","kill","0.0","7300.0","1.86475376691"
"388","1_46_1",46,"1.0","1600.05282725","1_I","test","05","4","19.0","00011","ignore","0.0","7200.0","0.75172493917"
"389","1_46_1",46,"1.0","1602.89673396","1_I","test","05","4","20.0","10110","ignore","0.0","7100.0","0.722661966934"
"390","1_46_1",46,"1.0","1607.17821956","1_I","test","05","4","21.0","10001","ignore","1.0","7200.0","2.15760486033"
"391","1_46_1",46,"1.0","1610.67836427","1_I","test","05","4","22.0","00111","kill","1.0","7300.0","1.35848150342"
"392","1_46_1",46,"1.0","1613.91285953","1_I","test","05","4","23.0","11000","ignore","1.0","7400.0","1.11531342023"
"393","1_46_1",46,"1.0","1616.97550703","1_I","test","05","4","24.0","10000","ignore","1.0","7500.0","0.905429776389"
"394","1_46_1",46,"1.0","1624.58527606","1_I","test","05","4","25.0","11110","kill","0.0","7400.0","5.51981232268"
"395","1_46_1",46,"1.0","1628.78863886","1_I","test","05","4","26.0","00000","ignore","1.0","7500.0","2.02945995354"
"396","1_46_1",46,"1.0","1632.33562326","1_I","test","05","4","27.0","10111","ignore","0.0","7400.0","1.39018458604"
"397","1_46_1",46,"1.0","1635.96081175","1_I","test","05","4","28.0","00101","ignore","1.0","7500.0","1.48923449936"
"398","1_46_1",46,"1.0","1639.39848466","1_I","test","05","4","29.0","01011","kill","1.0","7600.0","1.29237036426"
"399","1_46_1",46,"1.0","1642.69552068","1_I","test","05","4","30.0","10011","ignore","0.0","7500.0","1.19627707899"
"400","1_46_1",46,"1.0","1646.55508824","1_I","test","05","4","31.0","10010","ignore","0.0","7400.0","1.70506383106"
"401","1_46_1",46,"1.0","1649.57086773","1_I","test","05","4","32.0","01010","kill","1.0","7500.0","0.879016767226"
"402","1_46_1",46,"1.0","1652.68037135","1_I","test","05","4","33.0","00001","ignore","1.0","7600.0","0.974047193564"
"403","1_46_1",46,"1.0","1655.75862675","1_I","test","05","4","34.0","01101","ignore","1.0","7700.0","0.927282632212"
"404","1_46_1",46,"1.0","1658.98068216","1_I","test","05","4","35.0","01110","kill","1.0","7800.0","1.13748238318"
"405","1_46_1",46,"1.0","1661.91836472","1_I","test","05","4","36.0","01111","kill","1.0","7900.0","0.847054230438"
"406","1_46_1",46,"1.0","1665.09035861","1_I","test","05","4","37.0","01100","ignore","1.0","8000.0","1.01095003331"
"407","1_46_1",46,"1.0","1668.12176036","1_I","test","05","4","38.0","11111","kill","0.0","7900.0","0.917939818949"
"408","1_46_1",46,"1.0","1671.16880819","1_I","test","05","4","39.0","01000","ignore","1.0","8000.0","0.909300651961"
"409","1_46_1",46,"1.0","1675.3877522","1_I","test","05","4","40.0","10100","ignore","1.0","8100.0","2.11358345208"
"410","1_46_1",46,"1.0","1682.27872069","1_I","test","05","4","41.0","11011","ignore","1.0","8200.0","4.7847975457"
"411","1_46_1",46,"1.0","1687.48211183","1_I","test","05","4","42.0","00110","kill","1.0","8300.0","3.03673944931"
"412","1_46_1",46,"1.0","1690.26346791","1_I","test","05","4","43.0","00100","ignore","1.0","8400.0","0.656564375218"
"413","1_46_1",46,"1.0","1694.07612229","1_I","test","05","4","44.0","11101","ignore","1.0","8500.0","1.71287947738"
"414","1_46_1",46,"1.0","1696.93565742","1_I","test","05","4","45.0","11001","ignore","1.0","8600.0","0.701050912544"
"415","1_46_1",46,"1.0","1700.2014091","1_I","test","05","4","46.0","10101","ignore","1.0","8700.0","1.09819313982"
"416","1_46_1",46,"1.0","1703.54534393","1_I","test","05","4","47.0","00100","ignore","1.0","8800.0","1.17409662123"
"417","1_46_1",46,"1.0","1706.67051825","1_I","test","05","4","48.0","01111","kill","1.0","8900.0","1.01071767404"
"418","1_46_1",46,"1.0","1709.56125643","1_I","test","05","5","0.0","10000","ignore","1.0","9000.0","0.729007920331"
"419","1_46_1",46,"1.0","1712.84266978","1_I","test","05","5","1.0","01100","ignore","1.0","9100.0","1.12736900746"
"420","1_46_1",46,"1.0","1715.90533248","1_I","test","05","5","2.0","10100","ignore","0.0","9000.0","0.939531167958"
"421","1_46_1",46,"1.0","1720.71804639","1_I","test","05","5","3.0","10011","ignore","1.0","9100.0","2.6381345081"
"422","1_46_1",46,"1.0","1723.84319978","1_I","test","05","5","4.0","00101","ignore","0.0","9000.0","0.99672233847"
"423","1_46_1",46,"1.0","1727.23399071","1_I","test","05","5","5.0","01110","kill","1.0","9100.0","1.2215726289"
"424","1_46_1",46,"1.0","1730.23411469","1_I","test","05","5","6.0","01010","kill","0.0","9000.0","0.838540685247"
"425","1_46_1",46,"1.0","1733.60925463","1_I","test","05","5","7.0","01001","ignore","1.0","9100.0","1.27893416884"
"426","1_46_1",46,"1.0","1737.48447934","1_I","test","05","5","8.0","11101","ignore","1.0","9200.0","1.73038442323"
"427","1_46_1",46,"1.0","1740.51584046","1_I","test","05","5","9.0","00001","ignore","1.0","9300.0","0.896127605472"
"428","1_46_1",46,"1.0","1748.34439873","1_I","test","05","5","10.0","11010","kill","0.0","9200.0","5.7034935586"
"429","1_46_1",46,"1.0","1751.45390316","1_I","test","05","5","11.0","10101","ignore","0.0","9100.0","0.94603024858"
"430","1_46_1",46,"1.0","1754.48529342","1_I","test","05","5","12.0","10001","ignore","1.0","9200.0","0.86046866783"
"431","1_46_1",46,"1.0","1757.62841893","1_I","test","05","5","13.0","11100","kill","0.0","9100.0","1.01738096616"
"432","1_46_1",46,"1.0","1761.70950575","1_I","test","05","5","14.0","00011","ignore","1.0","9200.0","1.89685218871"
"433","1_46_1",46,"1.0","1765.819073","1_I","test","05","5","15.0","10111","kill","1.0","9300.0","1.98269867641"
"434","1_46_1",46,"1.0","1769.02239722","1_I","test","05","5","16.0","00111","ignore","0.0","9200.0","1.04548781694"
"435","1_46_1",46,"1.0","1771.97877115","1_I","test","05","5","17.0","11110","ignore","0.0","9100.0","0.874413097838"
"436","1_46_1",46,"1.0","1774.98202582","1_I","test","05","5","18.0","10110","kill","1.0","9200.0","0.868569631629"
"437","1_46_1",46,"1.0","1778.18530529","1_I","test","05","5","19.0","01101","ignore","1.0","9300.0","1.022655029"
"438","1_46_1",46,"1.0","1781.38857942","1_I","test","05","5","20.0","11001","ignore","1.0","9400.0","1.07812567352"
"439","1_46_1",46,"1.0","1784.23251609","1_I","test","05","5","21.0","00000","ignore","1.0","9500.0","0.697734661312"
"440","1_46_1",46,"1.0","1791.71725448","1_I","test","05","5","22.0","11000","ignore","1.0","9600.0","5.39054831451"
"441","1_46_1",46,"1.0","1795.60804316","1_I","test","05","5","23.0","00010","ignore","1.0","9700.0","1.72301214796"
"442","1_46_1",46,"1.0","1798.62383784","1_I","test","05","5","24.0","01000","ignore","1.0","9800.0","0.854306220784"
"443","1_46_1",46,"1.0","1803.01463576","1_I","test","05","5","25.0","01011","ignore","1.0","9900.0","2.26905643662"
"444","1_46_1",46,"1.0","1806.21796121","1_I","test","05","5","26.0","10010","ignore","1.0","10000.0","1.03323722855"
"445","1_46_1",46,"1.0","1809.57749777","1_I","test","05","5","27.0","11011","ignore","1.0","10100.0","1.25055144274"
"446","1_46_1",46,"1.0","1812.70261503","1_I","test","05","6","0.0","00110","kill","0.0","10000.0","0.954815153274"
"447","1_46_1",46,"1.0","1815.98401196","1_I","test","05","6","1.0","11111","kill","0.0","9900.0","1.14081341345"
"448","1_46_1",46,"1.0","1818.85913527","1_I","test","05","6","2.0","10101","ignore","1.0","10000.0","0.740788863834"
"449","1_46_1",46,"1.0","1821.59365454","1_I","test","05","6","3.0","00101","ignore","1.0","10100.0","0.573308323922"
"450","1_46_1",46,"1.0","1824.53128414","1_I","test","05","6","4.0","10001","ignore","0.0","10000.0","0.824663171425"
"451","1_46_1",46,"1.0","1827.60959865","1_I","test","05","6","5.0","11100","ignore","0.0","9900.0","0.942386395406"
"452","1_46_1",46,"1.0","1830.67224822","1_I","test","05","6","6.0","00001","ignore","1.0","10000.0","0.902530211837"
"453","1_46_1",46,"1.0","1834.5786452","1_I","test","05","6","7.0","01110","kill","0.0","9900.0","1.81405592962"
"454","1_46_1",46,"1.0","1837.32880356","1_I","test","05","6","8.0","11001","ignore","0.0","9800.0","0.627861436695"
"455","1_46_1",46,"1.0","1841.01646138","1_I","test","05","6","9.0","11101","kill","0.0","9700.0","1.53054559681"
"456","1_46_1",46,"1.0","1844.14163324","1_I","test","05","6","10.0","01001","ignore","1.0","9800.0","0.977171317341"
"457","1_46_1",46,"1.0","1850.67321091","1_I","test","05","6","11.0","10111","kill","0.0","9700.0","4.3665393617"
"458","1_46_1",46,"1.0","1853.45455549","1_I","test","05","6","12.0","10010","ignore","0.0","9600.0","0.698863204841"
"459","1_46_1",46,"1.0","1858.93921917","1_I","test","05","6","13.0","01010","ignore","1.0","9700.0","3.34579821773"
"460","1_46_1",46,"1.0","1861.79870462","1_I","test","05","6","14.0","00010","kill","0.0","9600.0","0.698583224235"
"461","1_46_1",46,"1.0","1864.84572822","1_I","test","05","6","15.0","11000","ignore","0.0","9500.0","0.935553965441"
"462","1_46_1",46,"1.0","1868.01779765","1_I","test","05","6","16.0","01101","ignore","1.0","9600.0","1.03735442137"
"463","1_46_1",46,"1.0","1872.39296469","1_I","test","05","6","17.0","00011","ignore","1.0","9700.0","2.25403395812"
"464","1_46_1",46,"1.0","1878.28389295","1_I","test","05","6","18.0","10100","ignore","0.0","9600.0","3.72612682957"
"465","1_46_1",46,"1.0","1881.54970538","1_I","test","05","6","19.0","11011","ignore","0.0","9500.0","1.12060924108"
"466","1_46_1",46,"1.0","1884.29978657","1_I","test","05","6","20.0","00111","ignore","1.0","9600.0","0.618598266008"
"467","1_46_1",46,"1.0","1887.69061117","1_I","test","05","6","21.0","11110","ignore","0.0","9500.0","1.24095451218"
"468","1_46_1",46,"1.0","1890.65948611","1_I","test","05","6","22.0","11111","kill","0.0","9400.0","0.875050648984"
"469","1_46_1",46,"1.0","1894.7221718","1_I","test","05","6","23.0","00110","ignore","1.0","9500.0","1.92966041472"
"470","1_46_1",46,"1.0","1897.78480986","1_I","test","05","6","24.0","01111","ignore","1.0","9600.0","0.908765733001"
"471","1_46_1",46,"1.0","1900.90998665","1_I","test","05","6","25.0","00000","ignore","1.0","9700.0","1.01102105479"
"472","1_46_1",46,"1.0","1905.80085702","1_I","test","05","6","26.0","11010","ignore","0.0","9600.0","2.79572623151"
"473","1_46_1",46,"1.0","1908.95725287","1_I","test","05","6","27.0","00100","kill","0.0","9500.0","0.965753281253"
"474","1_46_1",46,"1.0","1911.91050884","1_I","test","05","6","28.0","10011","ignore","0.0","9400.0","0.810958900735"
"475","1_46_1",46,"1.0","1915.11376532","1_I","test","05","6","29.0","01000","ignore","1.0","9500.0","1.06043434763"
"476","1_46_1",46,"1.0","1917.98891696","1_I","test","05","6","30.0","10110","kill","1.0","9600.0","0.751743002435"
"477","1_46_1",46,"1.0","1922.77041262","1_I","test","05","6","31.0","01100","ignore","1.0","9700.0","2.65949555048"
"478","1_46_1",46,"1.0","1925.61428525","1_I","test","05","6","32.0","01011","ignore","1.0","9800.0","0.702071076485"
"479","1_46_1",46,"1.0","1929.34885296","1_I","test","05","6","33.0","10000","ignore","0.0","9700.0","1.64262158733"
"480","1_46_1",46,"1.0","1932.39585111","1_I","test","05","6","34.0","00001","ignore","1.0","9800.0","0.885702638428"
"481","1_46_1",46,"1.0","1935.28661721","1_I","test","05","6","35.0","10100","kill","1.0","9900.0","0.777923241798"
"482","1_46_1",46,"1.0","1938.16178404","1_I","test","05","6","36.0","10001","ignore","0.0","9800.0","0.682992984474"
"483","1_46_1",46,"1.0","1941.3963068","1_I","test","05","6","37.0","11111","ignore","1.0","9900.0","1.0666571424"
"484","1_46_1",46,"1.0","1944.58398207","1_I","test","05","6","38.0","00000","ignore","1.0","10000.0","1.05925530906"
"485","1_46_1",46,"1.0","1947.80283372","1_I","test","05","6","39.0","01100","ignore","1.0","10100.0","1.05682744204"
"486","1_46_1",46,"1.0","1951.03739342","1_I","test","05","6","40.0","10110","ignore","0.0","10000.0","1.14207127354"
"487","1_46_1",46,"1.0","1954.06876069","1_I","test","05","6","41.0","11100","ignore","0.0","9900.0","0.884803580468"
"488","1_46_1",46,"1.0","1956.7720223","1_I","test","05","6","42.0","01000","ignore","1.0","10000.0","0.537710144535"
"489","1_46_1",46,"1.0","1959.95965652","1_I","test","05","6","43.0","01001","ignore","1.0","10100.0","1.06737515718"
"490","1_46_1",46,"1.0","1962.78794343","1_I","test","05","6","44.0","00101","ignore","1.0","10200.0","0.660603978105"
"491","1_46_1",46,"1.0","1965.70996513","1_I","test","05","6","45.0","00110","ignore","1.0","10300.0","0.820823085509"
"492","1_46_1",46,"1.0","1969.1476286","1_I","test","05","6","46.0","11010","ignore","0.0","10200.0","1.31079366291"
"493","1_46_1",46,"1.0","1972.02274576","1_I","test","05","6","47.0","01011","ignore","1.0","10300.0","0.72610137679"
"494","1_46_1",46,"1.0","1974.67913073","1_I","test","05","6","48.0","01101","ignore","1.0","10400.0","0.541888506139"
"495","1_46_1",46,"1.0","1977.4761218","1_I","test","05","6","49.0","10000","kill","1.0","10500.0","0.693745963989"
"496","1_46_1",46,"1.0","1980.17941051","1_I","test","05","6","50.0","00010","ignore","1.0","10600.0","0.563720014467"
"497","1_46_1",46,"1.0","1983.007697","1_I","test","05","6","51.0","10010","kill","1.0","10700.0","0.682549202897"
"498","1_46_1",46,"1.0","1985.89843683","1_I","test","05","6","52.0","01010","ignore","1.0","10800.0","0.728596159996"
"499","1_46_1",46,"1.0","1988.63294625","1_I","test","05","6","53.0","00011","ignore","1.0","10900.0","0.644750999945"
"500","1_46_1",46,"1.0","1991.898732","1_I","test","05","6","54.0","00100","ignore","1.0","11000.0","1.08349210533"
"501","1_46_1",46,"1.0","1995.72704436","1_I","test","05","6","55.0","01111","ignore","1.0","11100.0","1.67757728922"
"502","1_46_1",46,"1.0","1999.11780656","1_I","test","05","6","56.0","11101","ignore","1.0","11200.0","1.26800712514"
"503","1_46_1",46,"1.0","2001.83672492","1_I","test","05","7","0.0","10011","ignore","0.0","11100.0","0.552874255455"
"504","1_46_1",46,"1.0","2004.77432208","1_I","test","05","7","1.0","01110","ignore","0.0","11000.0","0.837503279098"
"505","1_46_1",46,"1.0","2007.77448301","1_I","test","05","7","2.0","11000","kill","0.0","10900.0","0.859425924808"
"506","1_46_1",46,"1.0","2011.16526245","1_I","test","05","7","3.0","00111","ignore","0.0","10800.0","1.21563433055"
"507","1_46_1",46,"1.0","2014.04040793","1_I","test","05","7","4.0","10111","ignore","0.0","10700.0","0.733452304565"
"508","1_46_1",46,"1.0","2016.85304508","1_I","test","05","7","5.0","11001","ignore","1.0","10800.0","0.648818518788"
"509","1_46_1",46,"1.0","2019.52504739","1_I","test","05","7","6.0","10101","ignore","1.0","10900.0","0.559379494007"
"510","1_46_1",46,"1.0","2022.35329406","1_I","test","05","7","7.0","11011","kill","0.0","10800.0","0.692632199494"
"511","1_46_1",46,"1.0","2025.49408859","1_I","test","05","7","8.0","11110","kill","0.0","10700.0","0.988472763265"
"512","1_46_1",46,"1.0","2028.43174611","1_I","test","05","7","9.0","11001","ignore","1.0","10800.0","0.826171043519"
"513","1_46_1",46,"1.0","2031.43187748","1_I","test","05","7","10.0","10001","ignore","1.0","10900.0","0.880995515794"
"514","1_46_1",46,"1.0","2034.49450897","1_I","test","05","7","11.0","01111","kill","1.0","11000.0","0.911828687995"
"515","1_46_1",46,"1.0","2037.43220672","1_I","test","05","7","12.0","01100","ignore","1.0","11100.0","0.766627132748"
"516","1_46_1",46,"1.0","2040.49479265","1_I","test","05","7","13.0","10010","ignore","0.0","11000.0","0.882661030928"
"517","1_46_1",46,"1.0","2044.47937073","1_I","test","05","7","14.0","00001","ignore","1.0","11100.0","1.87510607037"
"518","1_46_1",46,"1.0","2047.37011794","1_I","test","05","7","15.0","11101","ignore","1.0","11200.0","0.752802987664"
"519","1_46_1",46,"1.0","2054.07358235","1_I","test","05","7","16.0","00111","kill","1.0","11300.0","4.52959768593"
"520","1_46_1",46,"1.0","2059.62070223","1_I","test","05","7","17.0","11111","ignore","1.0","11400.0","3.44059710585"
"521","1_46_1",46,"1.0","2062.93339294","1_I","test","05","7","18.0","11100","ignore","1.0","11500.0","1.18009075148"
"522","1_46_1",46,"1.0","2065.80853103","1_I","test","05","7","19.0","00101","ignore","1.0","11600.0","0.75263384982"
"523","1_46_1",46,"1.0","2068.91807981","1_I","test","05","7","20.0","10100","ignore","1.0","11700.0","0.93747359787"
"524","1_46_1",46,"1.0","2071.96505538","1_I","test","05","7","21.0","11110","ignore","1.0","11800.0","0.900391357056"
"525","1_46_1",46,"1.0","2077.15279757","1_I","test","05","7","22.0","11011","ignore","1.0","11900.0","3.08102523808"
"526","1_46_1",46,"1.0","2079.98110829","1_I","test","05","7","23.0","10000","ignore","1.0","12000.0","0.680474801129"
"527","1_46_1",46,"1.0","2083.07499621","1_I","test","05","8","0.0","10101","ignore","1.0","12100.0","0.970741616079"
"528","1_46_1",46,"1.0","2086.24700447","1_I","test","05","8","1.0","00000","ignore","0.0","12000.0","0.984679477628"
"529","1_46_1",46,"1.0","2090.21594839","1_I","test","05","8","2.0","00110","kill","0.0","11900.0","1.79987544558"
"530","1_46_1",46,"1.0","2093.50049489","1_I","test","05","8","3.0","00010","kill","1.0","12000.0","1.12368615406"
"531","1_46_1",46,"1.0","2096.59440293","1_I","test","05","8","4.0","11000","ignore","1.0","12100.0","0.940443362839"
"532","1_46_1",46,"1.0","2101.00398418","1_I","test","05","8","5.0","10011","ignore","1.0","12200.0","2.31306717112"
"533","1_46_1",46,"1.0","2103.91036762","1_I","test","05","8","6.0","01010","kill","1.0","12300.0","0.785391580795"
"534","1_46_1",46,"1.0","2107.05115763","1_I","test","05","8","7.0","10110","ignore","1.0","12400.0","0.996813065324"
"535","1_46_1",46,"1.0","2114.53901563","1_I","test","05","8","8.0","00100","kill","0.0","12300.0","5.38476642762"
"536","1_46_1",46,"1.0","2117.55478855","1_I","test","05","8","9.0","11010","ignore","1.0","12400.0","0.946744979131"
"537","1_46_1",46,"1.0","2121.78933512","1_I","test","05","8","10.0","10111","ignore","1.0","12500.0","2.07762031263"
"538","1_46_1",46,"1.0","2126.28016986","1_I","test","05","8","11.0","01110","ignore","0.0","12400.0","2.37164839198"
"539","1_46_1",46,"1.0","2129.39599849","1_I","test","05","8","12.0","01000","ignore","0.0","12300.0","0.973883392593"
"540","1_46_1",46,"1.0","2133.13056621","1_I","test","05","8","13.0","01011","kill","1.0","12400.0","1.64844616921"
"541","1_46_1",46,"1.0","2136.42758006","1_I","test","05","8","14.0","00011","kill","1.0","12500.0","1.1221745872"
"542","1_46_1",46,"1.0","2139.45898017","1_I","test","05","8","15.0","01101","ignore","0.0","12400.0","0.866534640621"
"543","1_46_1",46,"1.0","2142.27478701","1_I","test","05","8","16.0","01001","kill","1.0","12500.0","0.704693123603"
"544","1_46_1",46,"1.0","2144.98116166","1_I","test","05","8","17.0","00100","kill","0.0","12400.0","0.524151611551"
"545","1_46_1",46,"1.0","2148.08130891","1_I","test","05","8","18.0","11101","ignore","1.0","12500.0","1.02384679396"
"546","1_46_1",46,"1.0","2152.25335741","1_I","test","05","8","19.0","11111","ignore","1.0","12600.0","2.00308224984"
"547","1_46_1",46,"1.0","2156.2066807","1_I","test","05","8","20.0","01100","ignore","0.0","12500.0","1.77709438425"
"548","1_46_1",46,"1.0","2159.28497838","1_I","test","05","8","21.0","00010","kill","1.0","12600.0","0.964265525068"
"549","1_46_1",46,"1.0","2162.83202272","1_I","test","05","8","22.0","10111","ignore","1.0","12700.0","1.36715392324"
"550","1_46_1",46,"1.0","2166.9478181","1_I","test","05","8","23.0","00001","ignore","0.0","12600.0","2.00098157424"
