,unique_id,pair_id,sbj_id,wall_time,condition,block,rule_id,rule_num,trial,stimulus,choice,correct,points,reaction_time
0,3_35_1,35,1.0,50.4480759504,3_D,training,05,1_A,1.0,01000,ignore,0.0,0.0,10.5736095979
1,3_35_1,35,1.0,57.6983994825,3_D,training,05,1_A,2.0,00000,kill,1.0,100.0,5.15874319139
2,3_35_1,35,1.0,67.2613731743,3_D,training,05,1_A,3.0,10000,kill,1.0,200.0,7.49648244075
3,3_35_1,35,1.0,76.0430240714,3_D,training,05,1_A,4.0,10101,kill,0.0,100.0,6.72238206835
4,3_35_1,35,1.0,82.9027421728,3_D,training,05,1_A,5.0,10001,ignore,1.0,200.0,4.78772351776
5,3_35_1,35,1.0,91.2625431817,3_D,training,05,1_A,6.0,11001,ignore,1.0,300.0,6.30872319414
6,3_35_1,35,1.0,99.4348190738,3_D,training,05,1_A,7.0,11010,kill,1.0,400.0,6.14454370192
7,3_35_1,35,1.0,106.466404783,3_D,training,05,1_A,8.0,00110,ignore,0.0,300.0,4.97773522104
8,3_35_1,35,1.0,111.044749576,3_D,training,05,1_A,9.0,11110,kill,0.0,200.0,2.54820812148
9,3_35_1,35,1.0,116.294979777,3_D,training,05,1_A,10.0,00100,ignore,0.0,100.0,3.19200822084
10,3_35_1,35,1.0,119.706620965,3_D,training,05,1_A,11.0,11000,kill,1.0,200.0,1.39495575428
11,3_35_1,35,1.0,125.988173881,3_D,training,05,1_A,12.0,01010,kill,1.0,300.0,4.23957537199
12,3_35_1,35,1.0,134.238567652,3_D,training,05,1_A,13.0,01101,kill,0.0,200.0,6.20723691912
13,3_35_1,35,1.0,138.723145396,3_D,training,05,1_A,14.0,00011,kill,0.0,100.0,2.43016855098
14,3_35_1,35,1.0,142.020209569,3_D,training,05,1_A,15.0,11101,ignore,1.0,200.0,1.27252641096
15,3_35_1,35,1.0,144.973473739,3_D,training,05,1_A,16.0,00101,ignore,1.0,300.0,0.914054489374
16,3_35_1,35,1.0,151.945673875,3_D,training,05,1_A,17.0,10111,ignore,1.0,400.0,4.95327924401
17,3_35_1,35,1.0,155.445839851,3_D,training,05,1_A,18.0,00001,ignore,1.0,500.0,1.50221669576
18,3_35_1,35,1.0,161.696165949,3_D,training,05,1_A,19.0,01011,kill,0.0,400.0,4.23866290733
19,3_35_1,35,1.0,164.836913862,3_D,training,05,1_A,20.0,00111,ignore,1.0,500.0,1.12745575669
20,3_35_1,35,1.0,168.180829968,3_D,training,05,1_A,21.0,01110,ignore,0.0,400.0,1.33627609866
21,3_35_1,35,1.0,182.150247488,3_D,training,05,1_A,22.0,10011,kill,0.0,300.0,11.942840905
22,3_35_1,35,1.0,185.556668545,3_D,training,05,1_A,23.0,10010,ignore,0.0,200.0,1.40594317575
23,3_35_1,35,1.0,188.7443165,3_D,training,05,1_A,24.0,10110,kill,0.0,100.0,1.17047886594
24,3_35_1,35,1.0,192.91641022,3_D,training,05,1_A,25.0,11011,ignore,1.0,200.0,2.1523331673
25,3_35_1,35,1.0,196.072813717,3_D,training,05,1_A,26.0,00010,ignore,0.0,100.0,1.15040079489
26,3_35_1,35,1.0,199.60422415,3_D,training,05,1_A,27.0,01100,kill,1.0,200.0,1.51753231071
27,3_35_1,35,1.0,206.354554898,3_D,training,05,1_A,28.0,11111,ignore,1.0,300.0,4.74152201669
28,3_35_1,35,1.0,214.604981383,3_D,training,05,1_A,29.0,11100,kill,0.0,200.0,6.24165207098
29,3_35_1,35,1.0,219.277058907,3_D,training,05,1_A,30.0,01001,ignore,1.0,300.0,2.6490295321
30,3_35_1,35,1.0,225.214845174,3_D,training,05,1_A,31.0,10100,ignore,1.0,400.0,3.93933088277
31,3_35_1,35,1.0,233.543351051,3_D,training,05,1_A,32.0,01111,ignore,1.0,500.0,6.31221365208
32,3_35_1,35,1.0,240.528117221,3_D,training,05,1_A,33.0,00000,kill,1.0,600.0,4.97240251462
33,3_35_1,35,1.0,250.669221782,3_D,training,05,1_A,34.0,01011,ignore,1.0,700.0,8.12741310017
34,3_35_1,35,1.0,253.528720506,3_D,training,05,1_A,35.0,01111,ignore,1.0,800.0,0.841770290474
35,3_35_1,35,1.0,258.562850533,3_D,training,05,1_A,36.0,11110,ignore,1.0,900.0,3.03002954846
36,3_35_1,35,1.0,271.672868754,3_D,training,05,1_A,37.0,00100,kill,1.0,1000.0,11.0711616589
37,3_35_1,35,1.0,275.423055175,3_D,training,05,1_A,38.0,10000,kill,1.0,1100.0,1.73717361749
38,3_35_1,35,1.0,284.986006416,3_D,training,05,1_A,39.0,00011,ignore,1.0,1200.0,7.55257223625
39,3_35_1,35,1.0,289.189365441,3_D,training,05,1_A,40.0,10101,ignore,1.0,1300.0,2.16931783886
40,3_35_1,35,1.0,293.252018888,3_D,training,05,1_A,41.0,10001,ignore,1.0,1400.0,2.07901526943
41,3_35_1,35,1.0,297.017867629,3_D,training,05,1_A,42.0,11010,ignore,0.0,1300.0,1.7610131597
42,3_35_1,35,1.0,308.221517873,3_D,training,05,1_A,43.0,11100,kill,0.0,1200.0,9.19129332323
43,3_35_1,35,1.0,311.909180421,3_D,training,05,1_A,44.0,11111,ignore,1.0,1300.0,1.69481056176
44,3_35_1,35,1.0,317.018798375,3_D,training,05,1_A,45.0,01110,kill,1.0,1400.0,3.10425542083
45,3_35_1,35,1.0,320.409602656,3_D,training,05,1_A,46.0,10111,ignore,1.0,1500.0,1.35011284734
46,3_35_1,35,1.0,323.691029526,3_D,training,05,1_A,47.0,00110,kill,1.0,1600.0,1.26053351439
47,3_35_1,35,1.0,333.035214721,3_D,training,05,1_A,48.0,01100,kill,1.0,1700.0,7.33515099285
48,3_35_1,35,1.0,336.707249909,3_D,training,05,1_A,49.0,10011,ignore,1.0,1800.0,1.6661906028
49,3_35_1,35,1.0,340.316802275,3_D,training,05,1_A,50.0,01010,kill,1.0,1900.0,1.57971108386
50,3_35_1,35,1.0,343.910747487,3_D,training,05,1_A,51.0,10100,kill,0.0,1800.0,1.58493987516
51,3_35_1,35,1.0,347.067169907,3_D,training,05,1_A,52.0,01000,ignore,0.0,1700.0,1.15875986913
52,3_35_1,35,1.0,351.645537791,3_D,training,05,1_A,53.0,00101,kill,0.0,1600.0,2.54916548773
53,3_35_1,35,1.0,355.520677347,3_D,training,05,1_A,54.0,10110,ignore,1.0,1700.0,1.8668112712
54,3_35_1,35,1.0,359.083339935,3_D,training,05,1_A,55.0,00001,ignore,1.0,1800.0,1.51567210158
55,3_35_1,35,1.0,362.489068866,3_D,training,05,1_A,56.0,10010,ignore,0.0,1700.0,1.39541663713
56,3_35_1,35,1.0,365.786130794,3_D,training,05,1_A,57.0,00010,kill,1.0,1800.0,1.28845878145
57,3_35_1,35,1.0,369.536306632,3_D,training,05,1_A,58.0,11001,ignore,1.0,1900.0,1.74555385963
58,3_35_1,35,1.0,373.552065169,3_D,training,05,1_A,59.0,01101,ignore,1.0,2000.0,2.0084257852
59,3_35_1,35,1.0,382.912875181,3_D,training,05,1_A,60.0,11011,ignore,1.0,2100.0,7.3652863808
60,3_35_1,35,1.0,386.428680063,3_D,training,05,1_A,61.0,11101,ignore,1.0,2200.0,1.51104819898
61,3_35_1,35,1.0,389.038167322,3_D,training,05,1_A,62.0,01001,ignore,1.0,2300.0,0.608127702719
62,3_35_1,35,1.0,392.428973527,3_D,training,05,1_A,63.0,11000,kill,1.0,2400.0,1.38182941305
63,3_35_1,35,1.0,396.460377706,3_D,training,05,1_A,64.0,00111,ignore,1.0,2500.0,2.01056149771
64,3_35_1,35,1.0,399.726178499,3_D,training,05,1_A,65.0,01000,kill,1.0,2600.0,1.24626282382
65,3_35_1,35,1.0,403.101344514,3_D,training,05,1_A,66.0,10001,ignore,1.0,2700.0,1.36094856554
66,3_35_1,35,1.0,408.304722141,3_D,training,05,1_A,67.0,01110,ignore,0.0,2600.0,3.21676792512
67,3_35_1,35,1.0,411.554849068,3_D,training,05,1_A,68.0,11111,ignore,1.0,2700.0,1.25195538449
68,3_35_1,35,1.0,414.758135929,3_D,training,05,1_A,69.0,01001,ignore,1.0,2800.0,1.19047290686
69,3_35_1,35,1.0,417.883287593,3_D,training,05,1_A,70.0,00110,kill,1.0,2900.0,1.10771925852
70,3_35_1,35,1.0,420.914708128,3_D,training,05,1_A,71.0,11001,ignore,1.0,3000.0,1.01260933139
71,3_35_1,35,1.0,426.00869295,3_D,training,05,1_A,72.0,00010,kill,1.0,3100.0,3.09741786936
72,3_35_1,35,1.0,429.008849143,3_D,training,05,1_A,73.0,11110,kill,0.0,3000.0,0.985192414581
73,3_35_1,35,1.0,435.493549725,3_D,training,05,1_A,74.0,00011,ignore,1.0,3100.0,4.47067524629
74,3_35_1,35,1.0,439.399979281,3_D,training,05,1_A,75.0,11000,kill,1.0,3200.0,1.91073337462
75,3_35_1,35,1.0,443.087658186,3_D,training,05,1_A,76.0,00111,ignore,1.0,3300.0,1.65418295285
76,3_35_1,35,1.0,446.69719612,3_D,training,05,1_A,77.0,01101,ignore,1.0,3400.0,1.61699384431
77,3_35_1,35,1.0,449.931739626,3_D,training,05,1_A,78.0,00101,ignore,1.0,3500.0,1.20399117491
78,3_35_1,35,1.0,452.869377718,3_D,training,05,1_A,79.0,11011,ignore,1.0,3600.0,0.929609686431
79,3_35_1,35,1.0,458.13525773,3_D,training,05,1_A,80.0,10100,ignore,1.0,3700.0,3.24102280712
80,3_35_1,35,1.0,461.213522502,3_D,training,05,1_A,81.0,10101,ignore,1.0,3800.0,1.06653711486
81,3_35_1,35,1.0,463.948034416,3_D,training,05,1_A,82.0,00100,ignore,0.0,3700.0,0.733352491348
82,3_35_1,35,1.0,467.838861629,3_D,training,05,1_A,83.0,10111,ignore,1.0,3800.0,1.87707834271
83,3_35_1,35,1.0,471.729685634,3_D,training,05,1_A,84.0,00000,kill,1.0,3900.0,1.87856715146
84,3_35_1,35,1.0,474.745395742,3_D,training,05,1_A,85.0,10011,ignore,1.0,4000.0,1.01667517124
85,3_35_1,35,1.0,477.667434698,3_D,training,05,1_A,86.0,01111,ignore,1.0,4100.0,0.917649824612
86,3_35_1,35,1.0,481.761390012,3_D,training,05,1_A,87.0,11010,ignore,0.0,4000.0,2.11040982652
87,3_35_1,35,1.0,484.511579321,3_D,training,05,1_A,88.0,11101,ignore,1.0,4100.0,0.759155195643
88,3_35_1,35,1.0,492.605727712,3_D,training,05,1_A,89.0,10000,kill,1.0,4200.0,6.09484276262
89,3_35_1,35,1.0,495.465242153,3_D,training,05,1_A,90.0,00001,ignore,1.0,4300.0,0.869633978196
90,3_35_1,35,1.0,502.278061816,3_D,training,05,1_A,91.0,01010,kill,1.0,4400.0,4.79977574858
91,3_35_1,35,1.0,505.168834505,3_D,training,05,1_A,92.0,01011,ignore,1.0,4500.0,0.890040151651
92,3_35_1,35,1.0,510.294095536,3_D,training,05,1_A,93.0,11100,ignore,1.0,4600.0,3.12424497158
93,3_35_1,35,1.0,513.653608212,3_D,training,05,1_A,94.0,01100,ignore,0.0,4500.0,1.34660218369
94,3_35_1,35,1.0,519.62264022,3_D,training,05,1_A,95.0,10010,kill,1.0,4600.0,3.98662124763
95,3_35_1,35,1.0,525.451069283,3_D,training,05,1_A,96.0,10110,kill,0.0,4500.0,3.80573771885
96,3_35_1,35,1.0,528.485622989,3_D,training,05,1_A,97.0,10011,ignore,1.0,4600.0,1.04893087687
97,3_35_1,35,1.0,531.0951157,3_D,training,05,1_A,98.0,00111,ignore,1.0,4700.0,0.597029951612
98,3_35_1,35,1.0,539.548673815,3_D,training,05,1_A,99.0,10110,kill,0.0,4600.0,6.43402110824
99,3_35_1,35,1.0,542.486257384,3_D,training,05,1_A,100.0,11111,ignore,1.0,4700.0,0.954418141017
100,3_35_1,35,1.0,548.252199777,3_D,training,05,1_A,101.0,01010,kill,1.0,4800.0,3.77017276532
101,3_35_1,35,1.0,551.127292507,3_D,training,05,1_A,102.0,00001,ignore,1.0,4900.0,0.853996354632
102,3_35_1,35,1.0,553.768078426,3_D,training,05,1_A,103.0,01111,ignore,1.0,5000.0,0.674426197646
103,3_35_1,35,1.0,558.377640415,3_D,training,05,1_A,104.0,11010,kill,1.0,5100.0,2.63878811865
104,3_35_1,35,1.0,565.612418371,3_D,training,05,1_A,105.0,00110,ignore,0.0,5000.0,5.20008377356
105,3_35_1,35,1.0,568.175368329,3_D,training,05,1_A,106.0,01011,ignore,1.0,5100.0,0.562277717036
106,3_35_1,35,1.0,574.456894945,3_D,training,05,1_A,107.0,11100,kill,0.0,5000.0,4.2984968548
107,3_35_1,35,1.0,577.347698424,3_D,training,05,1_A,108.0,10101,ignore,1.0,5100.0,0.889619038793
108,3_35_1,35,1.0,583.004200224,3_D,training,05,1_A,109.0,01110,ignore,0.0,5000.0,3.66001150123
109,3_35_1,35,1.0,585.441802876,3_D,training,05,1_A,110.0,11101,ignore,1.0,5100.0,0.444654448514
110,3_35_1,35,1.0,589.316995352,3_D,training,05,1_A,111.0,00100,ignore,0.0,5000.0,1.86519128563
111,3_35_1,35,1.0,592.707780068,3_D,training,05,1_A,112.0,10100,kill,0.0,4900.0,1.39534992618
112,3_35_1,35,1.0,597.676778721,3_D,training,05,1_A,113.0,00000,kill,1.0,5000.0,2.98602726361
113,3_35_1,35,1.0,600.556641604,3_D,training,05,1_A,114.0,10000,kill,1.0,5100.0,0.869750401627
114,3_35_1,35,1.0,603.541152797,3_D,training,05,1_A,115.0,10001,ignore,1.0,5200.0,0.992643835059
115,3_35_1,35,1.0,608.369518036,3_D,training,05,1_A,116.0,10010,kill,1.0,5300.0,2.83162958489
116,3_35_1,35,1.0,611.072768495,3_D,training,05,1_A,117.0,01101,ignore,1.0,5400.0,0.698095434502
117,3_35_1,35,1.0,613.61976299,3_D,training,05,1_A,118.0,01001,ignore,1.0,5500.0,0.572752939534
118,3_35_1,35,1.0,618.432514018,3_D,training,05,1_A,119.0,01000,ignore,0.0,5400.0,2.82065403029
119,3_35_1,35,1.0,621.073257601,3_D,training,05,1_A,120.0,11011,ignore,1.0,5500.0,0.631399239686
120,3_35_1,35,1.0,623.588987434,3_D,training,05,1_A,121.0,10111,ignore,1.0,5600.0,0.540459708991
121,3_35_1,35,1.0,635.027041668,3_D,training,05,1_A,122.0,01100,ignore,0.0,5500.0,9.43762125436
122,3_35_1,35,1.0,638.261569779,3_D,training,05,1_A,123.0,00010,kill,1.0,5600.0,1.25151214155
123,3_35_1,35,1.0,642.261778572,3_D,training,05,1_A,124.0,11000,kill,1.0,5700.0,2.01541536065
124,3_35_1,35,1.0,645.465069923,3_D,training,05,1_A,125.0,00011,ignore,1.0,5800.0,1.19550926272
125,3_35_1,35,1.0,648.152702643,3_D,training,05,1_A,126.0,11001,ignore,1.0,5900.0,0.697502733387
126,3_35_1,35,1.0,650.652815058,3_D,training,05,1_A,127.0,00101,ignore,1.0,6000.0,0.516077178152
127,3_35_1,35,1.0,657.153088156,3_D,training,05,1_A,128.0,11110,kill,0.0,5900.0,4.52572941847
128,3_35_1,35,1.0,660.281388383,3_D,training,05,1_A,129.0,01111,ignore,1.0,6000.0,1.13982871323
129,3_35_1,35,1.0,663.187766944,3_D,training,05,1_A,130.0,01001,ignore,1.0,6100.0,0.925109263233
130,3_35_1,35,1.0,668.375526191,3_D,training,05,1_A,131.0,10110,ignore,1.0,6200.0,3.2147457495
131,3_35_1,35,1.0,670.891306056,3_D,training,05,1_A,132.0,10011,ignore,1.0,6300.0,0.505935189671
132,3_35_1,35,1.0,676.657190719,3_D,training,05,1_A,133.0,00100,kill,1.0,6400.0,3.755083262
133,3_35_1,35,1.0,685.97012889,3_D,training,05,1_A,134.0,00000,kill,1.0,6500.0,7.30422854401
134,3_35_1,35,1.0,689.090984753,3_D,training,05,1_A,135.0,00101,ignore,1.0,6600.0,1.11579449051
135,3_35_1,35,1.0,691.513000777,3_D,training,05,1_A,136.0,10001,ignore,1.0,6700.0,0.462165110239
136,3_35_1,35,1.0,694.106848809,3_D,training,05,1_A,137.0,01011,ignore,1.0,6800.0,0.586014627017
137,3_35_1,35,1.0,696.528861626,3_D,training,05,1_A,138.0,00001,ignore,1.0,6900.0,0.416671450825
138,3_35_1,35,1.0,699.169626698,3_D,training,05,1_A,139.0,01101,ignore,1.0,7000.0,0.662690523099
139,3_35_1,35,1.0,701.747870461,3_D,training,05,1_A,140.0,10101,ignore,1.0,7100.0,0.569688084623
140,3_35_1,35,1.0,704.294878107,3_D,training,05,1_A,141.0,00111,ignore,1.0,7200.0,0.577549713285
141,3_35_1,35,1.0,711.092079711,3_D,training,05,1_A,142.0,11000,kill,1.0,7300.0,4.80149098969
142,3_35_1,35,1.0,713.984096495,3_D,training,05,1_A,143.0,11111,ignore,1.0,7400.0,0.907885330293
143,3_35_1,35,1.0,716.624851624,3_D,training,05,1_A,144.0,00011,ignore,1.0,7500.0,0.662604889334
144,3_35_1,35,1.0,722.828237269,3_D,training,05,1_A,145.0,01100,kill,1.0,7600.0,4.22641086439
145,3_35_1,35,1.0,728.250424881,3_D,training,05,1_A,146.0,01110,kill,1.0,7700.0,3.43751637706
146,3_35_1,35,1.0,731.016182857,3_D,training,05,1_A,147.0,10111,ignore,1.0,7800.0,0.767445313857
147,3_35_1,35,1.0,735.875814042,3_D,training,05,1_A,148.0,01000,kill,1.0,7900.0,2.8626238763
148,3_35_1,35,1.0,739.188460032,3_D,training,05,1_A,149.0,11110,kill,0.0,7800.0,1.36200118732
149,3_35_1,35,1.0,744.907485706,3_D,training,05,1_A,150.0,11010,ignore,0.0,7700.0,3.70432873872
150,3_35_1,35,1.0,747.720123518,3_D,training,05,1_A,151.0,11011,ignore,1.0,7800.0,0.816420450883
151,3_35_1,35,1.0,755.51735944,3_D,training,05,1_A,152.0,10010,kill,1.0,7900.0,5.82204020682
152,3_35_1,35,1.0,758.408145599,3_D,training,05,1_A,153.0,11101,ignore,1.0,8000.0,0.90352378133
153,3_35_1,35,1.0,762.783317388,3_D,training,05,1_A,154.0,10000,kill,1.0,8100.0,2.39390152887
154,3_35_1,35,1.0,765.799074001,3_D,training,05,1_A,155.0,00010,kill,1.0,8200.0,0.99854647107
155,3_35_1,35,1.0,768.596122939,3_D,training,05,1_A,156.0,00110,kill,1.0,8300.0,0.795758017579
156,3_35_1,35,1.0,771.721281658,3_D,training,05,1_A,157.0,11001,ignore,1.0,8400.0,1.1548415631
157,3_35_1,35,1.0,775.065163447,3_D,training,05,1_A,158.0,10100,kill,0.0,8300.0,1.36213076051
158,3_35_1,35,1.0,779.515298777,3_D,training,05,1_A,159.0,01010,ignore,0.0,8200.0,2.50747210729
159,3_35_1,35,1.0,782.577936188,3_D,training,05,1_A,160.0,11100,kill,0.0,8100.0,1.08519629536
160,3_35_1,35,1.0,788.859468897,3_D,training,05,1_A,161.0,11010,kill,1.0,8200.0,4.31196027876
161,3_35_1,35,1.0,790.968963694,3_D,training,05,1_A,162.0,00101,kill,0.0,8100.0,0.144194431625
162,3_35_1,35,1.0,793.781572961,3_D,training,05,1_A,163.0,00001,ignore,1.0,8200.0,0.841856886414
163,3_35_1,35,1.0,796.375464932,3_D,training,05,1_A,164.0,00011,ignore,1.0,8300.0,0.606626064931
164,3_35_1,35,1.0,801.672590043,3_D,training,05,1_A,165.0,10111,ignore,1.0,8400.0,3.31730356913
165,3_35_1,35,1.0,816.735856076,3_D,training,05,1_A,166.0,01000,ignore,0.0,8300.0,13.0766710852
166,3_35_1,35,1.0,819.282812726,3_D,training,05,1_A,167.0,11011,ignore,1.0,8400.0,0.599606982712
167,3_35_1,35,1.0,823.704947739,3_D,training,05,1_A,168.0,11100,kill,0.0,8300.0,2.46281714561
168,3_35_1,35,1.0,829.595831079,3_D,training,05,1_A,169.0,01010,kill,1.0,8400.0,3.93057186357
169,3_35_1,35,1.0,833.3616532,3_D,training,05,1_A,170.0,10110,kill,0.0,8300.0,1.80221101892
170,3_35_1,35,1.0,836.455534106,3_D,training,05,1_A,171.0,01011,ignore,1.0,8400.0,1.12885380007
171,3_35_1,35,1.0,839.00252796,3_D,training,05,1_A,172.0,01111,ignore,1.0,8500.0,0.603680199263
172,3_35_1,35,1.0,841.643299767,3_D,training,05,1_A,173.0,01101,ignore,1.0,8600.0,0.641238142369
173,3_35_1,35,1.0,1098.85885535,3_D,test,05,2,0.0,11000,kill,0.0,0.0,8.26650414426
174,3_35_1,35,1.0,1103.39033923,3_D,test,05,2,1.0,10010,ignore,1.0,100.0,2.57768185228
175,3_35_1,35,1.0,1107.41193946,3_D,test,05,2,2.0,11001,ignore,1.0,200.0,2.05564398676
176,3_35_1,35,1.0,1110.74022532,3_D,test,05,2,3.0,01001,ignore,1.0,300.0,1.38109976205
177,3_35_1,35,1.0,1118.02184367,3_D,test,05,2,4.0,01110,ignore,0.0,200.0,5.30014153626
178,3_35_1,35,1.0,1124.11590386,3_D,test,05,2,5.0,10100,kill,1.0,300.0,4.10633372344
179,3_35_1,35,1.0,1130.97555942,3_D,test,05,2,6.0,01100,kill,0.0,200.0,4.90720891977
180,3_35_1,35,1.0,1134.13197799,3_D,test,05,2,7.0,11111,ignore,0.0,100.0,1.17845499368
181,3_35_1,35,1.0,1138.66346508,3_D,test,05,2,8.0,00000,kill,0.0,0.0,2.5869748798
182,3_35_1,35,1.0,1142.31988894,3_D,test,05,2,9.0,10001,ignore,1.0,100.0,1.68122718638
183,3_35_1,35,1.0,1144.97941133,3_D,test,05,2,10.0,00110,ignore,0.0,0.0,0.691576042944
184,3_35_1,35,1.0,1150.6827888,3_D,test,05,2,11.0,10101,ignore,0.0,0.0,3.7439418922
185,3_35_1,35,1.0,1154.41735941,3_D,test,05,2,12.0,00111,ignore,0.0,0.0,1.76717269701
186,3_35_1,35,1.0,1157.38623651,3_D,test,05,2,13.0,10011,kill,0.0,0.0,0.98995743649
187,3_35_1,35,1.0,1162.69900662,3_D,test,05,2,14.0,00100,kill,1.0,100.0,3.3331695494
188,3_35_1,35,1.0,1168.66804215,3_D,test,05,2,15.0,00010,kill,0.0,0.0,4.00466752129
189,3_35_1,35,1.0,1172.40261885,3_D,test,05,2,16.0,11101,ignore,1.0,100.0,1.7863706967
190,3_35_1,35,1.0,1176.80904985,3_D,test,05,2,17.0,10000,kill,0.0,0.0,2.43170258207
191,3_35_1,35,1.0,1182.12182221,3_D,test,05,2,18.0,11110,kill,1.0,100.0,3.34944349278
192,3_35_1,35,1.0,1185.96573142,3_D,test,05,2,19.0,11001,ignore,1.0,200.0,1.90914321654
193,3_35_1,35,1.0,1197.2319235,3_D,test,05,2,20.0,01110,kill,1.0,300.0,9.29519434214
194,3_35_1,35,1.0,1206.43548394,3_D,test,05,2,21.0,10100,ignore,0.0,200.0,7.23587419726
195,3_35_1,35,1.0,1210.18567196,3_D,test,05,2,22.0,01001,ignore,1.0,300.0,1.75500019404
196,3_35_1,35,1.0,1214.17022774,3_D,test,05,2,23.0,00110,kill,1.0,400.0,1.98641437954
197,3_35_1,35,1.0,1220.17052922,3_D,test,05,2,24.0,11111,kill,1.0,500.0,4.05799394406
198,3_35_1,35,1.0,1232.1398579,3_D,test,05,2,25.0,01100,ignore,1.0,600.0,9.99553581881
199,3_35_1,35,1.0,1237.6682224,3_D,test,05,2,26.0,01000,ignore,1.0,700.0,3.58060205989
200,3_35_1,35,1.0,1240.93406938,3_D,test,05,2,27.0,00011,kill,0.0,600.0,1.28981160251
201,3_35_1,35,1.0,1245.80926987,3_D,test,05,2,28.0,00001,ignore,1.0,700.0,2.89249209973
202,3_35_1,35,1.0,1258.24740493,3_D,test,05,2,29.0,10101,kill,1.0,800.0,10.4861820138
203,3_35_1,35,1.0,1266.87278511,3_D,test,05,2,30.0,00010,kill,0.0,700.0,6.6666758608
204,3_35_1,35,1.0,1270.29482262,3_D,test,05,2,31.0,01010,ignore,1.0,800.0,1.45085183145
205,3_35_1,35,1.0,1273.52937126,3_D,test,05,2,32.0,01111,ignore,0.0,700.0,1.27138142017
206,3_35_1,35,1.0,1276.70140564,3_D,test,05,2,33.0,00111,ignore,0.0,600.0,1.18733877519
207,3_35_1,35,1.0,1282.6923801,3_D,test,05,2,34.0,00100,kill,1.0,700.0,4.03474229208
208,3_35_1,35,1.0,1290.19275744,3_D,test,05,2,35.0,10111,kill,1.0,800.0,5.49180882566
209,3_35_1,35,1.0,1293.7398164,3_D,test,05,2,36.0,11011,ignore,1.0,900.0,1.59566815024
210,3_35_1,35,1.0,1298.38064754,3_D,test,05,2,37.0,00101,kill,1.0,1000.0,2.66672974272
211,3_35_1,35,1.0,1301.92767635,3_D,test,05,2,38.0,11101,ignore,1.0,1100.0,1.5728186883
212,3_35_1,35,1.0,1304.72470508,3_D,test,05,2,39.0,10011,kill,0.0,1000.0,0.85451208158
213,3_35_1,35,1.0,1307.64672383,3_D,test,05,2,40.0,01101,ignore,1.0,1100.0,0.921805788392
214,3_35_1,35,1.0,1310.55313575,3_D,test,05,2,41.0,10110,kill,1.0,1200.0,0.931549756264
215,3_35_1,35,1.0,1313.30322628,3_D,test,05,2,42.0,10001,kill,0.0,1100.0,0.771902118358
216,3_35_1,35,1.0,1318.11599847,3_D,test,05,2,43.0,11100,ignore,1.0,1200.0,2.84446759371
217,3_35_1,35,1.0,1322.55369798,3_D,test,05,2,44.0,11010,kill,0.0,1100.0,2.50583480252
218,3_35_1,35,1.0,1326.33515677,3_D,test,05,2,45.0,01011,ignore,1.0,1200.0,1.8360802956
219,3_35_1,35,1.0,1332.31979112,3_D,test,05,2,46.0,10010,kill,0.0,1100.0,4.01736505225
220,3_35_1,35,1.0,1335.11680478,3_D,test,05,2,47.0,11110,ignore,0.0,1000.0,0.846098163234
221,3_35_1,35,1.0,1339.99202997,3_D,test,05,2,48.0,11000,ignore,1.0,1100.0,2.91526202168
222,3_35_1,35,1.0,1343.74220388,3_D,test,05,2,49.0,10000,kill,0.0,1000.0,1.81307977186
223,3_35_1,35,1.0,1348.03930686,3_D,test,05,2,50.0,00000,ignore,1.0,1100.0,2.31465533692
224,3_35_1,35,1.0,1351.28947516,3_D,test,05,2,51.0,00000,ignore,1.0,1200.0,1.27508451925
225,3_35_1,35,1.0,1360.47741145,3_D,test,05,2,52.0,00110,kill,1.0,1300.0,7.25635413763
226,3_35_1,35,1.0,1364.64946732,3_D,test,05,2,53.0,11011,ignore,1.0,1400.0,2.23326830085
227,3_35_1,35,1.0,1370.00910123,3_D,test,05,2,54.0,00100,kill,1.0,1500.0,3.36511896198
228,3_35_1,35,1.0,1373.75929471,3_D,test,05,2,55.0,01010,kill,0.0,1400.0,1.81217885334
229,3_35_1,35,1.0,1378.21260811,3_D,test,05,2,56.0,10000,ignore,1.0,1500.0,2.48216524494
230,3_35_1,35,1.0,1382.19718987,3_D,test,05,2,57.0,01100,kill,0.0,1400.0,2.06199050716
231,3_35_1,35,1.0,1391.29140689,3_D,test,05,2,58.0,00011,kill,0.0,1300.0,7.10540746758
232,3_35_1,35,1.0,1397.43230362,3_D,test,05,2,59.0,11010,kill,0.0,1200.0,4.1836715974
233,3_35_1,35,1.0,1402.08879901,3_D,test,05,2,60.0,10001,ignore,1.0,1300.0,2.70968197159
234,3_35_1,35,1.0,1408.74534154,3_D,test,05,2,61.0,10011,ignore,1.0,1400.0,4.65334585874
235,3_35_1,35,1.0,1413.96438758,3_D,test,05,2,62.0,00001,kill,0.0,1300.0,3.28869483558
236,3_35_1,35,1.0,1417.65207835,3_D,test,05,2,63.0,11001,ignore,1.0,1400.0,1.69748637637
237,3_35_1,35,1.0,1423.60545574,3_D,test,05,2,64.0,10010,ignore,1.0,1500.0,3.98773609021
238,3_35_1,35,1.0,1427.32441887,3_D,test,05,2,65.0,11000,ignore,1.0,1600.0,1.78637262106
239,3_35_1,35,1.0,1430.40266568,3_D,test,05,2,66.0,01101,ignore,1.0,1700.0,1.11328417036
240,3_35_1,35,1.0,1434.2309626,3_D,test,05,2,67.0,00111,kill,1.0,1800.0,1.90951333401
241,3_35_1,35,1.0,1445.93468998,3_D,test,05,2,68.0,00010,ignore,1.0,1900.0,9.7600240416
242,3_35_1,35,1.0,1459.0290725,3_D,test,05,2,69.0,11110,kill,1.0,2000.0,11.1544836332
243,3_35_1,35,1.0,1463.91990966,3_D,test,05,2,70.0,10111,ignore,0.0,1900.0,2.97354205307
244,3_35_1,35,1.0,1472.46718318,3_D,test,05,2,71.0,10100,kill,1.0,2000.0,6.62949060097
245,3_35_1,35,1.0,1479.63944496,3_D,test,05,2,72.0,01110,ignore,0.0,1900.0,5.23178077499
246,3_35_1,35,1.0,1489.56180625,3_D,test,05,2,73.0,00101,ignore,0.0,1800.0,7.95514875419
247,3_35_1,35,1.0,1505.20320764,3_D,test,05,2,74.0,10110,ignore,0.0,1700.0,13.6862904832
248,3_35_1,35,1.0,1513.95365289,3_D,test,05,2,75.0,01011,ignore,1.0,1800.0,6.85020601816
249,3_35_1,35,1.0,1524.73539616,3_D,test,05,3,0.0,10101,ignore,1.0,1900.0,8.78633926559
250,3_35_1,35,1.0,1528.45433812,3_D,test,05,3,1.0,01001,ignore,1.0,2000.0,1.75504894435
251,3_35_1,35,1.0,1532.45453633,3_D,test,05,3,2.0,01111,kill,0.0,1900.0,2.09336261345
252,3_35_1,35,1.0,1541.31432948,3_D,test,05,3,3.0,01000,ignore,1.0,2000.0,6.84058873694
253,3_35_1,35,1.0,1549.78347871,3_D,test,05,3,4.0,11111,kill,0.0,1900.0,6.57741500849
254,3_35_1,35,1.0,1555.98690509,3_D,test,05,3,5.0,11101,kill,0.0,1800.0,4.22045819517
255,3_35_1,35,1.0,1559.5652114,3_D,test,05,3,6.0,11100,ignore,0.0,1700.0,1.62457580016
256,3_35_1,35,1.0,1563.17476761,3_D,test,05,3,7.0,10011,ignore,0.0,1600.0,1.71231480897
257,3_35_1,35,1.0,1572.34712882,3_D,test,05,3,8.0,01100,ignore,1.0,1700.0,7.20304343043
258,3_35_1,35,1.0,1578.55057796,3_D,test,05,3,9.0,10100,kill,1.0,1800.0,4.27849190922
259,3_35_1,35,1.0,1582.78516541,3_D,test,05,3,10.0,10110,ignore,0.0,1700.0,2.32981732426
260,3_35_1,35,1.0,1585.70718929,3_D,test,05,3,11.0,10010,kill,1.0,1800.0,0.938243943336
261,3_35_1,35,1.0,1588.06668433,3_D,test,05,3,12.0,11011,kill,1.0,1900.0,0.470664983073
262,3_35_1,35,1.0,1590.30120442,3_D,test,05,3,13.0,00110,kill,0.0,1800.0,0.34189425096
263,3_35_1,35,1.0,1597.44213739,3_D,test,05,3,14.0,01111,kill,0.0,1700.0,5.23439950044
264,3_35_1,35,1.0,1604.92688416,3_D,test,05,3,15.0,00100,ignore,1.0,1800.0,5.49947994326
265,3_35_1,35,1.0,1609.89586613,3_D,test,05,3,16.0,01011,ignore,1.0,1900.0,3.02791436238
266,3_35_1,35,1.0,1616.55245453,3_D,test,05,3,17.0,00000,kill,0.0,1800.0,4.76322360131
267,3_35_1,35,1.0,1621.08389222,3_D,test,05,3,18.0,11001,ignore,0.0,1700.0,2.62740716674
268,3_35_1,35,1.0,1625.45913457,3_D,test,05,3,19.0,11000,kill,1.0,1800.0,2.43320646493
269,3_35_1,35,1.0,1634.85021468,3_D,test,05,3,20.0,10000,ignore,0.0,1700.0,7.47930982392
270,3_35_1,35,1.0,1640.83488976,3_D,test,05,3,21.0,01001,kill,0.0,1600.0,4.02322342812
271,3_35_1,35,1.0,1643.56945107,3_D,test,05,3,22.0,11101,ignore,1.0,1700.0,0.829739868997
272,3_35_1,35,1.0,1647.69456489,3_D,test,05,3,23.0,00010,ignore,1.0,1800.0,2.15439960307
273,3_35_1,35,1.0,1650.63224788,3_D,test,05,3,24.0,11010,ignore,0.0,1700.0,1.02052099326
274,3_35_1,35,1.0,1653.38442825,3_D,test,05,3,25.0,00001,kill,0.0,1600.0,0.844827127235
275,3_35_1,35,1.0,1657.9940515,3_D,test,05,3,26.0,00101,ignore,1.0,1700.0,2.6512123913
276,3_35_1,35,1.0,1660.88482387,3_D,test,05,3,27.0,10001,kill,1.0,1800.0,0.985818791894
277,3_35_1,35,1.0,1664.49723005,3_D,test,05,3,28.0,11111,kill,0.0,1700.0,1.64904043678
278,3_35_1,35,1.0,1667.9192836,3_D,test,05,3,29.0,01010,ignore,1.0,1800.0,1.48642961402
279,3_35_1,35,1.0,1670.46626463,3_D,test,05,3,30.0,10111,ignore,1.0,1900.0,0.643687845364
280,3_35_1,35,1.0,1673.23204986,3_D,test,05,3,31.0,01000,kill,0.0,1800.0,0.842869096763
281,3_35_1,35,1.0,1675.90404977,3_D,test,05,3,32.0,01110,ignore,1.0,1900.0,0.812459488334
282,3_35_1,35,1.0,1678.48593249,3_D,test,05,3,33.0,11110,ignore,0.0,1800.0,0.694455839119
283,3_35_1,35,1.0,1681.65794058,3_D,test,05,3,34.0,00111,ignore,1.0,1900.0,1.22663441021
284,3_35_1,35,1.0,1685.04873139,3_D,test,05,3,35.0,00011,ignore,1.0,2000.0,1.49141593667
285,3_35_1,35,1.0,1688.45513897,3_D,test,05,3,36.0,01101,kill,0.0,1900.0,1.48060491435
286,3_35_1,35,1.0,1691.42406097,3_D,test,05,3,37.0,11100,ignore,0.0,1800.0,1.02861482734
287,3_35_1,35,1.0,1695.51803104,3_D,test,05,3,38.0,10101,kill,0.0,1700.0,2.16402297807
288,3_35_1,35,1.0,1702.14334002,3_D,test,05,3,39.0,11100,ignore,0.0,1600.0,4.69254142734
289,3_35_1,35,1.0,1711.30003345,3_D,test,05,3,40.0,11110,kill,1.0,1700.0,7.27258574522
290,3_35_1,35,1.0,1718.14924618,3_D,test,05,3,41.0,10110,ignore,0.0,1600.0,4.87102368271
291,3_35_1,35,1.0,1725.19644257,3_D,test,05,3,42.0,10101,ignore,1.0,1700.0,5.08863255065
292,3_35_1,35,1.0,1730.3216818,3_D,test,05,3,43.0,00110,kill,0.0,1600.0,3.21931288365
293,3_35_1,35,1.0,1734.96251999,3_D,test,05,3,44.0,10111,ignore,1.0,1700.0,2.68871645249
294,3_35_1,35,1.0,1739.27523109,3_D,test,05,3,45.0,11101,kill,0.0,1600.0,2.42143743491
295,3_35_1,35,1.0,1745.74428988,3_D,test,05,3,46.0,10100,ignore,0.0,1500.0,4.49768772797
296,3_35_1,35,1.0,1753.08842825,3_D,test,05,3,47.0,11001,kill,1.0,1600.0,5.41178359097
297,3_35_1,35,1.0,1756.63545706,3_D,test,05,3,48.0,10000,kill,1.0,1700.0,1.64977233285
298,3_35_1,35,1.0,1760.05748431,3_D,test,05,3,49.0,00000,kill,0.0,1600.0,1.47876972182
299,3_35_1,35,1.0,1762.76077262,3_D,test,05,3,50.0,11111,ignore,1.0,1700.0,0.822104031235
300,3_35_1,35,1.0,1767.04220847,3_D,test,05,3,51.0,01100,kill,0.0,1600.0,2.36597209237
301,3_35_1,35,1.0,1770.49550551,3_D,test,05,3,52.0,00100,ignore,1.0,1700.0,1.50231002694
302,3_35_1,35,1.0,1774.76135537,3_D,test,05,3,53.0,11000,kill,1.0,1800.0,2.38052438013
303,3_35_1,35,1.0,1778.37089202,3_D,test,05,3,54.0,01001,ignore,1.0,1900.0,1.71742108303
304,3_35_1,35,1.0,1782.68358741,3_D,test,05,3,55.0,01011,ignore,1.0,2000.0,2.37683988314
305,3_35_1,35,1.0,1785.46497338,3_D,test,05,3,56.0,01111,ignore,1.0,2100.0,0.873871406311
306,3_35_1,35,1.0,1788.38699438,3_D,test,05,3,57.0,00001,ignore,1.0,2200.0,0.974838105678
307,3_35_1,35,1.0,1790.91836504,3_D,test,05,3,58.0,10001,ignore,0.0,2100.0,0.658459509501
308,3_35_1,35,1.0,1793.54349762,3_D,test,05,3,59.0,01101,ignore,1.0,2200.0,0.71433794676
309,3_35_1,35,1.0,1796.65303636,3_D,test,05,3,60.0,10010,kill,1.0,2300.0,1.17337918856
310,3_35_1,35,1.0,1799.27814873,3_D,test,05,3,61.0,11010,kill,1.0,2400.0,0.728383487884
311,3_35_1,35,1.0,1802.48140448,3_D,test,05,3,62.0,01010,ignore,1.0,2500.0,1.27609640887
312,3_35_1,35,1.0,1804.91906679,3_D,test,05,3,63.0,00011,ignore,1.0,2600.0,0.547369423744
313,3_35_1,35,1.0,1807.93484361,3_D,test,05,3,64.0,01110,ignore,1.0,2700.0,1.06069060585
314,3_35_1,35,1.0,1811.01310357,3_D,test,05,3,65.0,10011,kill,1.0,2800.0,1.13792328177
315,3_35_1,35,1.0,1813.7944578,3_D,test,05,3,66.0,00010,ignore,1.0,2900.0,0.870438999733
316,3_35_1,35,1.0,1817.45093843,3_D,test,05,3,67.0,00101,kill,0.0,2800.0,1.69865445942
317,3_35_1,35,1.0,1820.32603757,3_D,test,05,3,68.0,01000,ignore,1.0,2900.0,1.00878307363
318,3_35_1,35,1.0,1823.52931706,3_D,test,05,3,69.0,11011,kill,1.0,3000.0,1.23958210723
319,3_35_1,35,1.0,1826.6388667,3_D,test,05,3,70.0,00111,ignore,1.0,3100.0,1.1331874459
320,3_35_1,35,1.0,1829.85774885,3_D,test,05,3,71.0,10111,kill,0.0,3000.0,1.31252154876
321,3_35_1,35,1.0,1832.48922827,3_D,test,05,3,72.0,11101,ignore,1.0,3100.0,0.707998161601
322,3_35_1,35,1.0,1835.33314838,3_D,test,05,3,73.0,00101,ignore,1.0,3200.0,0.96262519127
323,3_35_1,35,1.0,1838.0676805,3_D,test,05,3,74.0,10110,ignore,0.0,3100.0,0.82144237409
324,3_35_1,35,1.0,1840.59915604,3_D,test,05,3,75.0,01010,kill,0.0,3000.0,0.581114258857
325,3_35_1,35,1.0,1842.94291275,3_D,test,05,3,76.0,10100,ignore,0.0,2900.0,0.447775751145
326,3_35_1,35,1.0,1845.77115322,3_D,test,05,3,77.0,01111,ignore,1.0,3000.0,0.92780015196
327,3_35_1,35,1.0,1848.349422,3_D,test,05,3,78.0,10101,ignore,1.0,3100.0,0.634602648104
328,3_35_1,35,1.0,1851.0839413,3_D,test,05,3,79.0,00000,ignore,1.0,3200.0,0.818544296551
329,3_35_1,35,1.0,1853.58402068,3_D,test,05,3,80.0,10010,ignore,0.0,3100.0,0.561741463644
330,3_35_1,35,1.0,1856.05290627,3_D,test,05,3,81.0,00100,ignore,1.0,3200.0,0.565869203565
331,3_35_1,35,1.0,1858.47491524,3_D,test,05,3,82.0,01011,ignore,1.0,3300.0,0.454202132249
332,3_35_1,35,1.0,1861.00625992,3_D,test,05,3,83.0,11110,ignore,0.0,3200.0,0.597104359978
333,3_35_1,35,1.0,1863.6158062,3_D,test,05,3,84.0,01001,ignore,1.0,3300.0,0.702834798354
334,3_35_1,35,1.0,1866.10027682,3_D,test,05,3,85.0,00010,ignore,1.0,3400.0,0.530797526179
335,3_35_1,35,1.0,1868.53788749,3_D,test,05,3,86.0,11001,ignore,0.0,3300.0,0.559772528493
336,3_35_1,35,1.0,1871.49116994,3_D,test,05,3,87.0,10000,kill,1.0,3400.0,0.993182654256
337,3_35_1,35,1.0,1874.24127971,3_D,test,05,3,88.0,00110,ignore,1.0,3500.0,0.801430051804
338,3_35_1,35,1.0,1876.96015432,3_D,test,05,3,89.0,11011,ignore,0.0,3400.0,0.819185106524
339,3_35_1,35,1.0,1881.47600282,3_D,test,05,3,90.0,01100,ignore,1.0,3500.0,2.57016372085
340,3_35_1,35,1.0,1885.20028583,3_D,test,05,3,91.0,01110,ignore,1.0,3600.0,1.86914230568
341,3_35_1,35,1.0,1887.88798398,3_D,test,05,3,92.0,00011,ignore,1.0,3700.0,0.771283438462
342,3_35_1,35,1.0,1890.79437697,3_D,test,05,3,93.0,01000,ignore,1.0,3800.0,0.964163071061
343,3_35_1,35,1.0,1893.24761885,3_D,test,05,3,94.0,00111,ignore,1.0,3900.0,0.575942877465
344,3_35_1,35,1.0,1896.48214825,3_D,test,05,3,95.0,01101,ignore,1.0,4000.0,1.33938874169
345,3_35_1,35,1.0,1899.85734217,3_D,test,05,3,96.0,11111,ignore,1.0,4100.0,1.4624290675
346,3_35_1,35,1.0,1902.92004917,3_D,test,05,3,97.0,11100,kill,1.0,4200.0,1.14911340188
347,3_35_1,35,1.0,1905.51384429,3_D,test,05,3,98.0,00001,ignore,1.0,4300.0,0.638713068834
348,3_35_1,35,1.0,1908.10773562,3_D,test,05,3,99.0,11010,ignore,0.0,4200.0,0.744491936795
349,3_35_1,35,1.0,1910.59219886,3_D,test,05,3,100.0,10011,ignore,0.0,4100.0,0.589065369993
350,3_35_1,35,1.0,1913.10486255,3_D,test,05,3,101.0,11000,ignore,0.0,4000.0,0.574478443865
351,3_35_1,35,1.0,1915.60496888,3_D,test,05,3,102.0,10001,kill,1.0,4100.0,0.601770919096
352,3_35_1,35,1.0,1918.23031185,3_D,test,05,3,103.0,11111,ignore,1.0,4200.0,0.673546126291
353,3_35_1,35,1.0,1920.82396103,3_D,test,05,3,104.0,11010,ignore,0.0,4100.0,0.730243697017
354,3_35_1,35,1.0,1923.38658481,3_D,test,05,3,105.0,01001,ignore,1.0,4200.0,0.611834009051
355,3_35_1,35,1.0,1926.33988683,3_D,test,05,3,106.0,01100,kill,0.0,4100.0,1.02031797389
356,3_35_1,35,1.0,1928.99622923,3_D,test,05,3,107.0,00000,ignore,1.0,4200.0,0.749305067562
357,3_35_1,35,1.0,1931.44947945,3_D,test,05,3,108.0,11100,ignore,0.0,4100.0,0.527634529204
358,3_35_1,35,1.0,1933.63711906,3_D,test,05,3,109.0,01000,kill,0.0,4000.0,0.326242836189
359,3_35_1,35,1.0,1936.35597507,3_D,test,05,3,110.0,00110,ignore,1.0,4100.0,0.744327404507
360,3_35_1,35,1.0,1938.68421539,3_D,test,05,4,0.0,00111,ignore,0.0,4000.0,0.386808679734
361,3_35_1,35,1.0,1941.23124356,3_D,test,05,4,1.0,00100,ignore,1.0,4100.0,0.629672452451
362,3_35_1,35,1.0,1945.23148442,3_D,test,05,4,2.0,11001,ignore,1.0,4200.0,2.05212787078
363,3_35_1,35,1.0,1948.15345827,3_D,test,05,4,3.0,10001,ignore,1.0,4300.0,1.03578368847
364,3_35_1,35,1.0,1950.8723393,3_D,test,05,4,4.0,10100,ignore,1.0,4400.0,0.794528675928
365,3_35_1,35,1.0,1957.82576223,3_D,test,05,4,5.0,11110,kill,0.0,4300.0,5.02757599676
366,3_35_1,35,1.0,1961.24785298,3_D,test,05,4,6.0,10110,kill,1.0,4400.0,1.54569042464
367,3_35_1,35,1.0,1964.07611431,3_D,test,05,4,7.0,10011,ignore,0.0,4300.0,0.941868785339
368,3_35_1,35,1.0,1968.02940477,3_D,test,05,4,8.0,11011,kill,0.0,4200.0,2.01646669953
369,3_35_1,35,1.0,1971.3889197,3_D,test,05,4,9.0,00101,ignore,1.0,4300.0,1.44003952624
370,3_35_1,35,1.0,1975.27975525,3_D,test,05,4,10.0,10101,kill,0.0,4200.0,1.93325697923
371,3_35_1,35,1.0,1977.81116793,3_D,test,05,4,11.0,11101,ignore,1.0,4300.0,0.650074135749
372,3_35_1,35,1.0,1984.09270096,3_D,test,05,4,12.0,10010,kill,1.0,4400.0,4.3191118207
373,3_35_1,35,1.0,1988.18660848,3_D,test,05,4,13.0,01011,ignore,0.0,4300.0,2.13532508277
374,3_35_1,35,1.0,1992.5306006,3_D,test,05,4,14.0,01010,ignore,0.0,4200.0,2.47531358155
375,3_35_1,35,1.0,1996.89020468,3_D,test,05,4,15.0,01110,kill,1.0,4300.0,2.43248771861
376,3_35_1,35,1.0,2002.921741,3_D,test,05,4,16.0,00001,ignore,1.0,4400.0,4.1601989654
377,3_35_1,35,1.0,2006.56252468,3_D,test,05,4,17.0,01101,ignore,1.0,4500.0,1.68708267571
378,3_35_1,35,1.0,2012.8597165,3_D,test,05,4,18.0,00010,kill,1.0,4600.0,4.37147991504
379,3_35_1,35,1.0,2017.4866801,3_D,test,05,4,19.0,01111,ignore,0.0,4500.0,2.74037061139
380,3_35_1,35,1.0,2023.69009814,3_D,test,05,4,20.0,10000,ignore,1.0,4600.0,4.26960395827
381,3_35_1,35,1.0,2027.34652713,3_D,test,05,4,21.0,11000,ignore,1.0,4700.0,1.80412190271
382,3_35_1,35,1.0,2032.56562289,3_D,test,05,4,22.0,10111,ignore,0.0,4600.0,3.30825301025
383,3_35_1,35,1.0,2047.45693568,3_D,test,05,4,23.0,00011,ignore,0.0,4500.0,12.9666881446
384,3_35_1,35,1.0,2053.78538928,3_D,test,05,4,24.0,10111,kill,1.0,4600.0,4.45749213661
385,3_35_1,35,1.0,2057.84808602,3_D,test,05,4,25.0,01101,ignore,1.0,4700.0,2.19091486689
386,3_35_1,35,1.0,2062.25454172,3_D,test,05,4,26.0,00110,kill,1.0,4800.0,2.47091386623
387,3_35_1,35,1.0,2065.64533381,3_D,test,05,4,27.0,00001,ignore,1.0,4900.0,1.47599640659
388,3_35_1,35,1.0,2068.47361341,3_D,test,05,4,28.0,01000,ignore,1.0,5000.0,0.897135245865
389,3_35_1,35,1.0,2073.67695512,3_D,test,05,4,29.0,01110,ignore,0.0,4900.0,3.35277455003
390,3_35_1,35,1.0,2081.53674474,3_D,test,05,4,30.0,10011,kill,1.0,5000.0,5.97887379732
391,3_35_1,35,1.0,2085.302521,3_D,test,05,4,31.0,11101,ignore,1.0,5100.0,1.84047391714
392,3_35_1,35,1.0,2087.95892658,3_D,test,05,4,32.0,11000,ignore,1.0,5200.0,0.793335576276
393,3_35_1,35,1.0,2092.50602243,3_D,test,05,4,33.0,01111,kill,1.0,5300.0,2.61933321766
394,3_35_1,35,1.0,2096.59992386,3_D,test,05,4,34.0,11110,ignore,1.0,5400.0,2.25284315326
395,3_35_1,35,1.0,2100.05321641,3_D,test,05,4,35.0,10001,ignore,1.0,5500.0,1.49737534113
396,3_35_1,35,1.0,2104.25657961,3_D,test,05,4,36.0,00100,kill,0.0,5400.0,2.26034300332
397,3_35_1,35,1.0,2107.78799646,3_D,test,05,4,37.0,01010,ignore,0.0,5300.0,1.6761943585
398,3_35_1,35,1.0,2110.86624872,3_D,test,05,4,38.0,11001,ignore,1.0,5400.0,1.12948210174
399,3_35_1,35,1.0,2114.17890401,3_D,test,05,4,39.0,01011,ignore,0.0,5300.0,1.45479130538
400,3_35_1,35,1.0,2117.50720558,3_D,test,05,4,40.0,11100,ignore,1.0,5400.0,1.36399834634
401,3_35_1,35,1.0,2120.80424506,3_D,test,05,4,41.0,00011,kill,1.0,5500.0,1.37334333142
402,3_35_1,35,1.0,2124.21065553,3_D,test,05,4,42.0,10000,kill,0.0,5400.0,1.52107632983
403,3_35_1,35,1.0,2129.96092278,3_D,test,05,4,43.0,00000,ignore,1.0,5500.0,3.8196026914
404,3_35_1,35,1.0,2134.57049407,3_D,test,05,4,44.0,11011,kill,0.0,5400.0,2.75611311226
405,3_35_1,35,1.0,2139.33641594,3_D,test,05,4,45.0,01100,kill,0.0,5300.0,2.85402521995
406,3_35_1,35,1.0,2143.44598899,3_D,test,05,4,46.0,11010,ignore,1.0,5400.0,2.18720374967
407,3_35_1,35,1.0,2146.94615977,3_D,test,05,4,47.0,00010,kill,1.0,5500.0,1.64583157602
408,3_35_1,35,1.0,2154.14962111,3_D,test,05,4,48.0,11111,kill,0.0,5400.0,5.31810057253
409,3_35_1,35,1.0,2160.10301165,3_D,test,05,4,49.0,10110,kill,1.0,5500.0,4.03021781445
410,3_35_1,35,1.0,2164.24674231,3_D,test,05,4,50.0,10101,ignore,1.0,5600.0,2.22796734628
411,3_35_1,35,1.0,2168.67363433,3_D,test,05,4,51.0,01001,ignore,1.0,5700.0,2.50658401779
412,3_35_1,35,1.0,2172.34570383,3_D,test,05,4,52.0,10100,kill,0.0,5600.0,1.80013207485
413,3_35_1,35,1.0,2177.79909902,3_D,test,05,4,53.0,00111,kill,1.0,5700.0,3.49450452528
414,3_35_1,35,1.0,2180.53361542,3_D,test,05,4,54.0,10010,kill,1.0,5800.0,0.801373283357
415,3_35_1,35,1.0,2185.5338611,3_D,test,05,4,55.0,00101,ignore,1.0,5900.0,3.09888743457
416,3_35_1,35,1.0,2192.37793195,3_D,test,05,4,56.0,11110,ignore,1.0,6000.0,4.92620357936
417,3_35_1,35,1.0,2198.12822903,3_D,test,05,4,57.0,10011,kill,1.0,6100.0,3.90596642836
418,3_35_1,35,1.0,2203.42531757,3_D,test,05,4,58.0,00100,kill,0.0,6000.0,3.31422235721
419,3_35_1,35,1.0,2208.83185602,3_D,test,05,4,59.0,00010,kill,1.0,6100.0,3.4758530422
420,3_35_1,35,1.0,2216.01970507,3_D,test,05,4,60.0,10001,ignore,1.0,6200.0,5.28882376731
421,3_35_1,35,1.0,2219.55112801,3_D,test,05,4,61.0,00001,ignore,1.0,6300.0,1.59353532425
422,3_35_1,35,1.0,2223.52006316,3_D,test,05,4,62.0,01110,kill,1.0,6400.0,2.1253665494
423,3_35_1,35,1.0,2226.25458886,3_D,test,05,4,63.0,11010,kill,0.0,6300.0,0.833614235602
424,3_35_1,35,1.0,2232.20662369,3_D,test,05,4,64.0,00000,ignore,1.0,6400.0,4.01636438803
425,3_35_1,35,1.0,2236.05056882,3_D,test,05,4,65.0,00111,ignore,0.0,6300.0,1.96835559758
426,3_35_1,35,1.0,2242.03520606,3_D,test,05,4,66.0,10100,ignore,1.0,6400.0,4.09918667167
427,3_35_1,35,1.0,2246.9729532,3_D,test,05,4,67.0,01111,kill,1.0,6500.0,3.029282899
428,3_35_1,35,1.0,2250.36376325,3_D,test,05,4,68.0,11001,ignore,1.0,6600.0,1.48441770162
429,3_35_1,35,1.0,2254.88273081,3_D,test,05,4,69.0,01010,kill,1.0,6700.0,2.60134146737
430,3_35_1,35,1.0,2263.05496629,3_D,test,05,4,70.0,11011,ignore,1.0,6800.0,6.33210409859
431,3_35_1,35,1.0,2266.64890124,3_D,test,05,4,71.0,10000,kill,0.0,6700.0,1.70908862902
432,3_35_1,35,1.0,2271.43040332,3_D,test,05,4,72.0,01011,ignore,0.0,6600.0,2.84012464684
433,3_35_1,35,1.0,2278.30570228,3_D,test,05,4,73.0,10111,kill,1.0,6700.0,4.98363625343
434,3_35_1,35,1.0,2282.02681556,3_D,test,05,4,74.0,11000,ignore,1.0,6800.0,1.78113324582
435,3_35_1,35,1.0,2284.85508297,3_D,test,05,4,75.0,01001,ignore,1.0,6900.0,0.976228772368
436,3_35_1,35,1.0,2290.01157243,3_D,test,05,4,76.0,00101,kill,0.0,6800.0,3.18440830436
437,3_35_1,35,1.0,2295.37747556,3_D,test,05,4,77.0,01000,ignore,1.0,6900.0,3.43148641294
438,3_35_1,35,1.0,2299.59640967,3_D,test,05,4,78.0,10110,kill,1.0,7000.0,2.34243307016
439,3_35_1,35,1.0,2304.26894423,3_D,test,05,4,79.0,00011,kill,1.0,7100.0,2.74423920493
440,3_35_1,35,1.0,2307.83511106,3_D,test,05,4,80.0,11100,ignore,1.0,7200.0,1.72479681224
441,3_35_1,35,1.0,2311.41333879,3_D,test,05,4,81.0,01100,kill,0.0,7100.0,1.6154219676
442,3_35_1,35,1.0,2316.0854439,3_D,test,05,4,82.0,10101,ignore,1.0,7200.0,2.72571633286
443,3_35_1,35,1.0,2320.50752535,3_D,test,05,4,83.0,11101,ignore,1.0,7300.0,2.54572249721
444,3_35_1,35,1.0,2323.13266979,3_D,test,05,4,84.0,01101,ignore,1.0,7400.0,0.690991680694
445,3_35_1,35,1.0,2328.02350791,3_D,test,05,4,85.0,11111,kill,0.0,7300.0,3.04339964124
446,3_35_1,35,1.0,2331.2424449,3_D,test,05,4,86.0,00110,kill,1.0,7400.0,1.29715557987
447,3_35_1,35,1.0,2335.96139809,3_D,test,05,4,87.0,10010,kill,1.0,7500.0,2.78909301655
