,unique_id,pair_id,sbj_id,wall_time,condition,block,rule_id,rule_num,trial,stimulus,choice,correct,points,reaction_time
0,2_19_2,19,2.0,42.5556741072,2_ND,training,05,1_A,1.0,11111,ignore,1.0,100.0,3.24444461778
1,2_19_2,19,2.0,49.5590938145,2_ND,training,05,1_A,2.0,10000,kill,1.0,200.0,4.41395043518
2,2_19_2,19,2.0,53.9281857365,2_ND,training,05,1_A,3.0,00101,kill,0.0,100.0,1.79584799093
3,2_19_2,19,2.0,58.818996084,2_ND,training,05,1_A,4.0,01001,ignore,1.0,200.0,2.28549629477
4,2_19_2,19,2.0,63.5692642621,2_ND,training,05,1_A,5.0,01100,ignore,0.0,100.0,2.14664386314
5,2_19_2,19,2.0,68.2100964702,2_ND,training,05,1_A,6.0,10001,ignore,1.0,200.0,1.89737511808
6,2_19_2,19,2.0,72.0228237751,2_ND,training,05,1_A,7.0,00111,ignore,1.0,300.0,1.23652181695
7,2_19_2,19,2.0,76.632418004,2_ND,training,05,1_A,8.0,10111,ignore,1.0,400.0,1.96828334389
8,2_19_2,19,2.0,80.3357454654,2_ND,training,05,1_A,9.0,10101,ignore,1.0,500.0,1.10022944471
9,2_19_2,19,2.0,83.804671082,2_ND,training,05,1_A,10.0,01011,ignore,1.0,600.0,0.859480409756
10,2_19_2,19,2.0,89.3517688261,2_ND,training,05,1_A,11.0,01101,ignore,1.0,700.0,2.93570950305
11,2_19_2,19,2.0,92.9925755815,2_ND,training,05,1_A,12.0,11101,ignore,1.0,800.0,1.05029556041
12,2_19_2,19,2.0,97.5240658308,2_ND,training,05,1_A,13.0,01010,kill,1.0,900.0,1.93863123855
13,2_19_2,19,2.0,101.602428033,2_ND,training,05,1_A,14.0,01110,kill,1.0,1000.0,1.50880769627
14,2_19_2,19,2.0,105.462013949,2_ND,training,05,1_A,15.0,11110,kill,0.0,900.0,1.29460306148
15,2_19_2,19,2.0,108.790229079,2_ND,training,05,1_A,16.0,01000,kill,1.0,1000.0,0.771639090741
16,2_19_2,19,2.0,113.446735288,2_ND,training,05,1_A,17.0,00010,kill,1.0,1100.0,2.06725821171
17,2_19_2,19,2.0,118.165710065,2_ND,training,05,1_A,18.0,00001,ignore,1.0,1200.0,2.11631192164
18,2_19_2,19,2.0,121.868988674,2_ND,training,05,1_A,19.0,11011,ignore,1.0,1300.0,1.10651259237
19,2_19_2,19,2.0,126.244215953,2_ND,training,05,1_A,20.0,11000,kill,1.0,1400.0,1.73633317884
20,2_19_2,19,2.0,131.744495318,2_ND,training,05,1_A,21.0,11100,kill,0.0,1300.0,2.95603767179
21,2_19_2,19,2.0,136.104106481,2_ND,training,05,1_A,22.0,10011,ignore,1.0,1400.0,1.79419643242
22,2_19_2,19,2.0,141.807486901,2_ND,training,05,1_A,23.0,01111,ignore,1.0,1500.0,3.1499629908
23,2_19_2,19,2.0,147.16708698,2_ND,training,05,1_A,24.0,00110,kill,1.0,1600.0,2.76169361311
24,2_19_2,19,2.0,153.792418431,2_ND,training,05,1_A,25.0,10100,kill,0.0,1500.0,3.91399703023
25,2_19_2,19,2.0,160.152124016,2_ND,training,05,1_A,26.0,11010,kill,1.0,1600.0,3.8202839137
26,2_19_2,19,2.0,166.168067734,2_ND,training,05,1_A,27.0,10010,kill,1.0,1700.0,3.45881100103
27,2_19_2,19,2.0,170.699508309,2_ND,training,05,1_A,28.0,11001,ignore,1.0,1800.0,1.94548337952
28,2_19_2,19,2.0,175.82477346,2_ND,training,05,1_A,29.0,00000,kill,1.0,1900.0,2.49234589046
29,2_19_2,19,2.0,181.543818848,2_ND,training,05,1_A,30.0,00100,kill,1.0,2000.0,3.12075384635
30,2_19_2,19,2.0,187.700344968,2_ND,training,05,1_A,31.0,10110,kill,0.0,1900.0,3.58058460163
31,2_19_2,19,2.0,191.716145822,2_ND,training,05,1_A,32.0,00011,ignore,1.0,2000.0,1.41052662261
32,2_19_2,19,2.0,196.310150208,2_ND,training,05,1_A,33.0,00010,kill,1.0,2100.0,2.01852389341
33,2_19_2,19,2.0,199.841567384,2_ND,training,05,1_A,34.0,01101,ignore,1.0,2200.0,0.966303772642
34,2_19_2,19,2.0,205.451208823,2_ND,training,05,1_A,35.0,11111,ignore,1.0,2300.0,3.05283919863
35,2_19_2,19,2.0,211.857787798,2_ND,training,05,1_A,36.0,11100,ignore,1.0,2400.0,3.84259616952
36,2_19_2,19,2.0,215.436077132,2_ND,training,05,1_A,37.0,01001,ignore,1.0,2500.0,0.972039685024
37,2_19_2,19,2.0,222.65517281,2_ND,training,05,1_A,38.0,10000,ignore,0.0,2400.0,4.63477238831
38,2_19_2,19,2.0,227.499167652,2_ND,training,05,1_A,39.0,10100,kill,0.0,2300.0,2.23791227896
39,2_19_2,19,2.0,231.24938123,2_ND,training,05,1_A,40.0,11011,ignore,1.0,2400.0,1.20626007592
40,2_19_2,19,2.0,236.343358317,2_ND,training,05,1_A,41.0,01000,kill,1.0,2500.0,2.53662145236
41,2_19_2,19,2.0,244.328097719,2_ND,training,05,1_A,42.0,11000,ignore,0.0,2400.0,5.38135853106
42,2_19_2,19,2.0,249.015836159,2_ND,training,05,1_A,43.0,00111,ignore,1.0,2500.0,2.1023309431
43,2_19_2,19,2.0,253.625469799,2_ND,training,05,1_A,44.0,10010,kill,1.0,2600.0,2.00727498593
44,2_19_2,19,2.0,257.000569814,2_ND,training,05,1_A,45.0,00011,ignore,1.0,2700.0,0.812365218168
45,2_19_2,19,2.0,260.813283572,2_ND,training,05,1_A,46.0,10101,ignore,1.0,2800.0,1.21343366117
46,2_19_2,19,2.0,264.641592919,2_ND,training,05,1_A,47.0,10111,ignore,1.0,2900.0,1.24354145379
47,2_19_2,19,2.0,268.21991181,2_ND,training,05,1_A,48.0,00101,ignore,1.0,3000.0,0.982354228305
48,2_19_2,19,2.0,273.345174497,2_ND,training,05,1_A,49.0,01110,kill,1.0,3100.0,2.58040561095
49,2_19_2,19,2.0,276.860941072,2_ND,training,05,1_A,50.0,10001,ignore,1.0,3200.0,0.913529848134
50,2_19_2,19,2.0,280.439222195,2_ND,training,05,1_A,51.0,10011,ignore,1.0,3300.0,0.968320291508
51,2_19_2,19,2.0,286.564556725,2_ND,training,05,1_A,52.0,00100,kill,1.0,3400.0,3.50541303126
52,2_19_2,19,2.0,291.97105031,2_ND,training,05,1_A,53.0,00110,kill,1.0,3500.0,2.81501723607
53,2_19_2,19,2.0,296.002479185,2_ND,training,05,1_A,54.0,01111,ignore,1.0,3600.0,1.43946440733
54,2_19_2,19,2.0,302.53409752,2_ND,training,05,1_A,55.0,11110,kill,0.0,3500.0,3.97396014009
55,2_19_2,19,2.0,306.768652902,2_ND,training,05,1_A,56.0,00001,ignore,1.0,3600.0,1.61764347273
56,2_19_2,19,2.0,314.237794047,2_ND,training,05,1_A,57.0,10110,ignore,1.0,3700.0,4.88510645635
57,2_19_2,19,2.0,318.956758561,2_ND,training,05,1_A,58.0,11010,kill,1.0,3800.0,2.1708847846
58,2_19_2,19,2.0,323.050690489,2_ND,training,05,1_A,59.0,01010,kill,1.0,3900.0,1.53192499962
59,2_19_2,19,2.0,331.629261856,2_ND,training,05,1_A,60.0,00000,kill,1.0,4000.0,5.94999180994
60,2_19_2,19,2.0,335.332547444,2_ND,training,05,1_A,61.0,01011,ignore,1.0,4100.0,1.10714809139
61,2_19_2,19,2.0,338.723336239,2_ND,training,05,1_A,62.0,11101,ignore,1.0,4200.0,0.791079285071
62,2_19_2,19,2.0,344.676788398,2_ND,training,05,1_A,63.0,01100,kill,1.0,4300.0,3.35733272685
63,2_19_2,19,2.0,348.317604596,2_ND,training,05,1_A,64.0,11001,ignore,1.0,4400.0,1.08723414649
64,2_19_2,19,2.0,352.474037114,2_ND,training,05,1_A,65.0,00100,kill,1.0,4500.0,1.55009132219
65,2_19_2,19,2.0,358.130561797,2_ND,training,05,1_A,66.0,11110,ignore,1.0,4600.0,3.10261585028
66,2_19_2,19,2.0,363.115189946,2_ND,training,05,1_A,67.0,01111,ignore,1.0,4700.0,2.43602499465
67,2_19_2,19,2.0,367.1934996,2_ND,training,05,1_A,68.0,00000,kill,1.0,4800.0,1.4807246331
68,2_19_2,19,2.0,371.271779286,2_ND,training,05,1_A,69.0,10011,ignore,1.0,4900.0,1.45357347095
69,2_19_2,19,2.0,377.912762159,2_ND,training,05,1_A,70.0,11100,ignore,1.0,5000.0,4.04357848351
70,2_19_2,19,2.0,382.319215922,2_ND,training,05,1_A,71.0,11010,kill,1.0,5100.0,1.80474456675
71,2_19_2,19,2.0,388.835167646,2_ND,training,05,1_A,72.0,10100,ignore,1.0,5200.0,3.93762708441
72,2_19_2,19,2.0,392.96037368,2_ND,training,05,1_A,73.0,00010,kill,1.0,5300.0,1.51360678129
73,2_19_2,19,2.0,396.819935785,2_ND,training,05,1_A,74.0,10010,kill,1.0,5400.0,1.28689004101
74,2_19_2,19,2.0,400.788870228,2_ND,training,05,1_A,75.0,01100,kill,1.0,5500.0,1.41638897795
75,2_19_2,19,2.0,407.523597417,2_ND,training,05,1_A,76.0,10110,ignore,1.0,5600.0,4.17034658097
76,2_19_2,19,2.0,415.836481339,2_ND,training,05,1_A,77.0,11011,ignore,1.0,5700.0,5.74456100278
77,2_19_2,19,2.0,419.805451908,2_ND,training,05,1_A,78.0,11001,ignore,1.0,5800.0,1.40283618124
78,2_19_2,19,2.0,426.712036425,2_ND,training,05,1_A,79.0,01110,kill,1.0,5900.0,4.27541493201
79,2_19_2,19,2.0,430.477823014,2_ND,training,05,1_A,80.0,10111,ignore,1.0,6000.0,1.18053591288
80,2_19_2,19,2.0,433.962358999,2_ND,training,05,1_A,81.0,11111,ignore,1.0,6100.0,0.871541754295
81,2_19_2,19,2.0,437.69691746,2_ND,training,05,1_A,82.0,01011,ignore,1.0,6200.0,1.12737034362
82,2_19_2,19,2.0,441.290886131,2_ND,training,05,1_A,83.0,00101,ignore,1.0,6300.0,0.965414566639
83,2_19_2,19,2.0,444.509759303,2_ND,training,05,1_A,84.0,00011,ignore,1.0,6400.0,0.626677986322
84,2_19_2,19,2.0,448.806878497,2_ND,training,05,1_A,85.0,11000,kill,1.0,6500.0,1.68896386975
85,2_19_2,19,2.0,456.41663119,2_ND,training,05,1_A,86.0,00111,ignore,1.0,6600.0,4.99354032483
86,2_19_2,19,2.0,460.885583902,2_ND,training,05,1_A,87.0,00110,kill,1.0,6700.0,1.8754910441
87,2_19_2,19,2.0,466.0264508,2_ND,training,05,1_A,88.0,01000,kill,1.0,6800.0,2.49660184549
88,2_19_2,19,2.0,470.998596401,2_ND,training,05,1_A,89.0,00001,kill,0.0,6700.0,2.38828826203
89,2_19_2,19,2.0,474.640085866,2_ND,training,05,1_A,90.0,01101,ignore,1.0,6800.0,1.08007000342
90,2_19_2,19,2.0,478.905026149,2_ND,training,05,1_A,91.0,10000,kill,1.0,6900.0,1.646857133
91,2_19_2,19,2.0,482.380270629,2_ND,training,05,1_A,92.0,11101,ignore,1.0,7000.0,0.886917300148
92,2_19_2,19,2.0,486.317930556,2_ND,training,05,1_A,93.0,01010,kill,1.0,7100.0,1.3810387289
93,2_19_2,19,2.0,489.911851195,2_ND,training,05,1_A,94.0,01001,ignore,1.0,7200.0,0.995992415064
94,2_19_2,19,2.0,493.865208933,2_ND,training,05,1_A,95.0,10101,ignore,1.0,7300.0,1.35796206793
95,2_19_2,19,2.0,499.084151073,2_ND,training,05,1_A,96.0,10001,ignore,1.0,7400.0,2.60508333535
96,2_19_2,19,2.0,504.131282275,2_ND,training,05,1_A,97.0,10100,ignore,1.0,7500.0,2.42728359883
97,2_19_2,19,2.0,508.912751485,2_ND,training,05,1_A,98.0,10101,ignore,1.0,7600.0,2.19669926404
98,2_19_2,19,2.0,515.678761401,2_ND,training,05,1_A,99.0,11100,ignore,1.0,7700.0,4.1671415804
99,2_19_2,19,2.0,519.63208876,2_ND,training,05,1_A,100.0,01110,kill,1.0,7800.0,1.39925431497
100,2_19_2,19,2.0,523.788535236,2_ND,training,05,1_A,101.0,01100,kill,1.0,7900.0,1.54003787541
101,2_19_2,19,2.0,527.304323569,2_ND,training,05,1_A,102.0,00000,kill,1.0,8000.0,0.94104925487
102,2_19_2,19,2.0,531.179528885,2_ND,training,05,1_A,103.0,01101,ignore,1.0,8100.0,1.30258210479
103,2_19_2,19,2.0,534.617204207,2_ND,training,05,1_A,104.0,01010,kill,1.0,8200.0,0.836228863394
104,2_19_2,19,2.0,538.507994849,2_ND,training,05,1_A,105.0,10011,ignore,1.0,8300.0,1.29460100883
105,2_19_2,19,2.0,541.976897886,2_ND,training,05,1_A,106.0,10010,kill,1.0,8400.0,0.843593755195
106,2_19_2,19,2.0,546.305287491,2_ND,training,05,1_A,107.0,10111,ignore,1.0,8500.0,1.71054989961
107,2_19_2,19,2.0,550.649238612,2_ND,training,05,1_A,108.0,01011,ignore,1.0,8600.0,1.72242322182
108,2_19_2,19,2.0,555.883840795,2_ND,training,05,1_A,109.0,10110,ignore,1.0,8700.0,2.62993553462
109,2_19_2,19,2.0,558.977711555,2_ND,training,05,1_A,110.0,00111,ignore,1.0,8800.0,0.473576911187
110,2_19_2,19,2.0,562.337298907,2_ND,training,05,1_A,111.0,00101,ignore,1.0,8900.0,0.747968394186
111,2_19_2,19,2.0,566.306228424,2_ND,training,05,1_A,112.0,10000,kill,1.0,9000.0,1.35653137407
112,2_19_2,19,2.0,570.35328491,2_ND,training,05,1_A,113.0,00110,kill,1.0,9100.0,1.48022419815
113,2_19_2,19,2.0,574.322249732,2_ND,training,05,1_A,114.0,10001,ignore,1.0,9200.0,1.33832769335
114,2_19_2,19,2.0,577.681793569,2_ND,training,05,1_A,115.0,01001,ignore,1.0,9300.0,0.744029367608
115,2_19_2,19,2.0,581.385092293,2_ND,training,05,1_A,116.0,00010,kill,1.0,9400.0,1.11684519893
116,2_19_2,19,2.0,584.978994048,2_ND,training,05,1_A,117.0,11000,kill,1.0,9500.0,0.953719824571
117,2_19_2,19,2.0,588.729170678,2_ND,training,05,1_A,118.0,00100,kill,1.0,9600.0,1.14989073768
118,2_19_2,19,2.0,592.401260981,2_ND,training,05,1_A,119.0,11011,ignore,1.0,9700.0,1.10256042886
119,2_19_2,19,2.0,596.479597731,2_ND,training,05,1_A,120.0,11101,ignore,1.0,9800.0,1.47943516124
120,2_19_2,19,2.0,599.761014598,2_ND,training,05,1_A,121.0,11001,ignore,1.0,9900.0,0.688990964663
121,2_19_2,19,2.0,604.12057034,2_ND,training,05,1_A,122.0,11010,kill,1.0,10000.0,1.80817494779
122,2_19_2,19,2.0,607.855162465,2_ND,training,05,1_A,123.0,11111,ignore,1.0,10100.0,1.15250991325
123,2_19_2,19,2.0,610.949055393,2_ND,training,05,1_A,124.0,00001,ignore,1.0,10200.0,0.466128681983
124,2_19_2,19,2.0,614.027301005,2_ND,training,05,1_A,125.0,00011,ignore,1.0,10300.0,0.479490582667
125,2_19_2,19,2.0,617.480625285,2_ND,training,05,1_A,126.0,01000,kill,1.0,10400.0,0.892849855965
126,2_19_2,19,2.0,621.137032967,2_ND,training,05,1_A,127.0,01111,ignore,1.0,10500.0,1.06985768188
127,2_19_2,19,2.0,625.934120345,2_ND,training,05,1_A,128.0,11110,ignore,1.0,10600.0,2.23085856821
128,2_19_2,19,2.0,630.700025576,2_ND,training,05,1_A,129.0,10110,ignore,1.0,10700.0,2.16591984584
129,2_19_2,19,2.0,634.731458556,2_ND,training,05,1_A,130.0,11011,ignore,1.0,10800.0,1.46536756106
130,2_19_2,19,2.0,638.528504061,2_ND,training,05,1_A,131.0,11001,ignore,1.0,10900.0,1.24512609606
131,2_19_2,19,2.0,642.716193853,2_ND,training,05,1_A,132.0,10011,ignore,1.0,11000.0,1.58795729348
132,2_19_2,19,2.0,647.528943737,2_ND,training,05,1_A,133.0,00110,kill,1.0,11100.0,2.20892564128
133,2_19_2,19,2.0,653.044865492,2_ND,training,05,1_A,134.0,00100,kill,1.0,11200.0,2.93515816249
134,2_19_2,19,2.0,658.76388707,2_ND,training,05,1_A,135.0,01100,kill,1.0,11300.0,3.12610591404
135,2_19_2,19,2.0,663.670376755,2_ND,training,05,1_A,136.0,00010,kill,1.0,11400.0,2.34375858263
136,2_19_2,19,2.0,667.889346401,2_ND,training,05,1_A,137.0,01110,kill,1.0,11500.0,1.61381405742
137,2_19_2,19,2.0,672.030134477,2_ND,training,05,1_A,138.0,11000,kill,1.0,11600.0,1.57968882716
138,2_19_2,19,2.0,677.311736903,2_ND,training,05,1_A,139.0,10111,ignore,1.0,11700.0,2.57911819173
139,2_19_2,19,2.0,681.983796417,2_ND,training,05,1_A,140.0,01010,kill,1.0,11800.0,2.09848756979
140,2_19_2,19,2.0,686.765242637,2_ND,training,05,1_A,141.0,11100,ignore,1.0,11900.0,2.19113207912
141,2_19_2,19,2.0,690.359186266,2_ND,training,05,1_A,142.0,01111,ignore,1.0,12000.0,0.987320398657
142,2_19_2,19,2.0,694.203107213,2_ND,training,05,1_A,143.0,00101,ignore,1.0,12100.0,1.23794430024
143,2_19_2,19,2.0,699.156485887,2_ND,training,05,1_A,144.0,10100,ignore,1.0,12200.0,2.38983431457
144,2_19_2,19,2.0,703.641093715,2_ND,training,05,1_A,145.0,00000,kill,1.0,12300.0,1.87815414628
145,2_19_2,19,2.0,707.969421741,2_ND,training,05,1_A,146.0,01101,ignore,1.0,12400.0,1.76916934776
146,2_19_2,19,2.0,711.235190471,2_ND,training,05,1_A,147.0,10101,ignore,1.0,12500.0,0.667950938489
147,2_19_2,19,2.0,714.516611854,2_ND,training,05,1_A,148.0,01001,ignore,1.0,12600.0,0.660282255165
148,2_19_2,19,2.0,718.344924075,2_ND,training,05,1_A,149.0,10001,ignore,1.0,12700.0,1.25774534963
149,2_19_2,19,2.0,721.782590365,2_ND,training,05,1_A,150.0,11101,ignore,1.0,12800.0,0.846756881801
150,2_19_2,19,2.0,724.985872873,2_ND,training,05,1_A,151.0,00001,ignore,1.0,12900.0,0.598531291143
151,2_19_2,19,2.0,728.595405523,2_ND,training,05,1_A,152.0,11111,ignore,1.0,13000.0,0.979333555293
152,2_19_2,19,2.0,732.048703118,2_ND,training,05,1_A,153.0,01011,ignore,1.0,13100.0,0.85130636513
153,2_19_2,19,2.0,735.173856605,2_ND,training,05,1_A,154.0,00111,ignore,1.0,13200.0,0.525836853278
154,2_19_2,19,2.0,739.595953579,2_ND,training,05,1_A,155.0,10000,kill,1.0,13300.0,1.8106422276
155,2_19_2,19,2.0,743.25237645,2_ND,training,05,1_A,156.0,00011,ignore,1.0,13400.0,1.05384910018
156,2_19_2,19,2.0,747.95574948,2_ND,training,05,1_A,157.0,11110,ignore,1.0,13500.0,2.14201843193
157,2_19_2,19,2.0,753.377893255,2_ND,training,05,1_A,158.0,10010,kill,1.0,13600.0,2.83755487234
158,2_19_2,19,2.0,757.112432422,2_ND,training,05,1_A,159.0,01000,kill,1.0,13700.0,1.17655583339
159,2_19_2,19,2.0,760.737609514,2_ND,training,05,1_A,160.0,11010,kill,1.0,13800.0,1.00129891403
160,2_19_2,19,2.0,764.175250351,2_ND,training,05,1_A,161.0,11010,kill,1.0,13900.0,0.882720461304
161,2_19_2,19,2.0,768.378615376,2_ND,training,05,1_A,162.0,10010,kill,1.0,14000.0,1.64125176887
162,2_19_2,19,2.0,772.019416384,2_ND,training,05,1_A,163.0,11111,ignore,1.0,14100.0,1.09000193359
163,2_19_2,19,2.0,776.379027136,2_ND,training,05,1_A,164.0,01100,kill,1.0,14200.0,1.75313695538
164,2_19_2,19,2.0,780.207307336,2_ND,training,05,1_A,165.0,00110,kill,1.0,14300.0,1.23656204881
165,2_19_2,19,2.0,784.019993177,2_ND,training,05,1_A,166.0,00011,ignore,1.0,14400.0,1.23438952888
166,2_19_2,19,2.0,788.504571036,2_ND,training,05,1_A,167.0,01110,kill,1.0,14500.0,1.87986399993
167,2_19_2,19,2.0,793.55171168,2_ND,training,05,1_A,168.0,00100,kill,1.0,14600.0,2.43541946425
168,2_19_2,19,2.0,797.192511867,2_ND,training,05,1_A,169.0,01111,ignore,1.0,14700.0,1.03057990107
169,2_19_2,19,2.0,801.614624852,2_ND,training,05,1_A,170.0,10110,ignore,1.0,14800.0,1.76579603027
170,2_19_2,19,2.0,805.411629714,2_ND,training,05,1_A,171.0,10101,ignore,1.0,14900.0,1.20249921897
171,2_19_2,19,2.0,808.677422666,2_ND,training,05,1_A,172.0,00101,ignore,1.0,15000.0,0.679125950734
172,2_19_2,19,2.0,811.943250101,2_ND,training,05,1_A,173.0,00001,ignore,1.0,15100.0,0.646060706578
173,2_19_2,19,2.0,816.209091495,2_ND,training,05,1_A,174.0,01010,kill,1.0,15200.0,1.67353947093
174,2_19_2,19,2.0,821.584356543,2_ND,training,05,1_A,175.0,00010,kill,1.0,15300.0,2.77265309759
175,2_19_2,19,2.0,825.912655421,2_ND,training,05,1_A,176.0,01101,ignore,1.0,15400.0,1.72827531394
176,2_19_2,19,2.0,830.194102668,2_ND,training,05,1_A,177.0,11110,ignore,1.0,15500.0,1.73049381312
177,2_19_2,19,2.0,833.928703414,2_ND,training,05,1_A,178.0,10111,ignore,1.0,15600.0,1.1443157527
178,2_19_2,19,2.0,837.491355284,2_ND,training,05,1_A,179.0,10011,ignore,1.0,15700.0,0.979807305859
179,2_19_2,19,2.0,841.007166606,2_ND,training,05,1_A,180.0,11001,ignore,1.0,15800.0,0.940949085772
