,unique_id,pair_id,sbj_id,wall_time,condition,block,rule_id,rule_num,trial,stimulus,choice,correct,points,reaction_time
0,1_4_2,4,2.0,15.9645188213,1_I,training,04,1_B,1.0,00000,kill,0.0,0.0,3.8811240113
1,1_4_2,4,2.0,21.4804204471,1_I,training,04,1_B,2.0,01000,ignore,1.0,100.0,3.36560581933
2,1_4_2,4,2.0,25.6680858646,1_I,training,04,1_B,3.0,01111,ignore,0.0,0.0,2.0358867811
3,1_4_2,4,2.0,30.2779049733,1_I,training,04,1_B,4.0,11011,ignore,1.0,100.0,2.4332022515
4,1_4_2,4,2.0,36.2781882381,1_I,training,04,1_B,5.0,00011,ignore,0.0,0.0,3.89509184144
5,1_4_2,4,2.0,40.1221380501,1_I,training,04,1_B,6.0,00110,ignore,0.0,0.0,1.69540778436
6,1_4_2,4,2.0,44.1848512429,1_I,training,04,1_B,7.0,11001,kill,0.0,0.0,1.92099743707
7,1_4_2,4,2.0,47.9506589602,1_I,training,04,1_B,8.0,11101,ignore,1.0,100.0,1.59933584659
8,1_4_2,4,2.0,51.2008286112,1_I,training,04,1_B,9.0,10110,kill,0.0,0.0,1.10523411839
9,1_4_2,4,2.0,55.1072576146,1_I,training,04,1_B,10.0,11000,kill,0.0,0.0,1.76857098637
10,1_4_2,4,2.0,59.204367369,1_I,training,04,1_B,11.0,11110,kill,0.0,0.0,1.97606494237
11,1_4_2,4,2.0,62.7358099712,1_I,training,04,1_B,12.0,11010,ignore,1.0,100.0,1.43291364979
12,1_4_2,4,2.0,66.1421747268,1_I,training,04,1_B,13.0,01010,ignore,1.0,200.0,1.25013557712
13,1_4_2,4,2.0,70.1642837525,1_I,training,04,1_B,14.0,00001,kill,1.0,300.0,1.88353381505
14,1_4_2,4,2.0,73.8395263648,1_I,training,04,1_B,15.0,00010,ignore,1.0,400.0,1.55527995392
15,1_4_2,4,2.0,79.2366722868,1_I,training,04,1_B,16.0,01011,kill,1.0,500.0,3.29542018233
16,1_4_2,4,2.0,83.7838065293,1_I,training,04,1_B,17.0,10001,kill,0.0,400.0,2.44766107403
17,1_4_2,4,2.0,88.8934292,1_I,training,04,1_B,18.0,10100,ignore,1.0,500.0,2.98614301261
18,1_4_2,4,2.0,92.7373346749,1_I,training,04,1_B,19.0,01110,kill,1.0,600.0,1.72518015028
19,1_4_2,4,2.0,98.1126006463,1_I,training,04,1_B,20.0,00101,ignore,0.0,500.0,3.23742314389
20,1_4_2,4,2.0,101.41765758,1_I,training,04,1_B,21.0,11100,ignore,1.0,600.0,1.20339072115
21,1_4_2,4,2.0,105.121025517,1_I,training,04,1_B,22.0,10011,kill,0.0,500.0,1.57669477557
22,1_4_2,4,2.0,109.189974642,1_I,training,04,1_B,23.0,01101,ignore,0.0,400.0,1.95585666471
23,1_4_2,4,2.0,113.237040121,1_I,training,04,1_B,24.0,00100,ignore,0.0,300.0,1.9260744461
24,1_4_2,4,2.0,116.190298959,1_I,training,04,1_B,25.0,00111,ignore,0.0,200.0,0.806102345636
25,1_4_2,4,2.0,118.971685422,1_I,training,04,1_B,26.0,01100,ignore,0.0,100.0,0.671286757206
26,1_4_2,4,2.0,122.424951034,1_I,training,04,1_B,27.0,10111,kill,0.0,0.0,1.34232883928
27,1_4_2,4,2.0,128.628414008,1_I,training,04,1_B,28.0,10010,ignore,1.0,100.0,4.09329224762
28,1_4_2,4,2.0,132.128588278,1_I,training,04,1_B,29.0,01001,kill,1.0,200.0,1.3821386331
29,1_4_2,4,2.0,136.144392814,1_I,training,04,1_B,30.0,11111,ignore,1.0,300.0,1.91139065382
30,1_4_2,4,2.0,141.347813914,1_I,training,04,1_B,31.0,10000,ignore,1.0,400.0,3.09439903312
31,1_4_2,4,2.0,145.441774913,1_I,training,04,1_B,32.0,10101,kill,0.0,300.0,1.97144649394
32,1_4_2,4,2.0,149.098222698,1_I,training,04,1_B,33.0,11001,kill,0.0,200.0,1.53727334195
33,1_4_2,4,2.0,152.379591302,1_I,training,04,1_B,34.0,00001,kill,1.0,300.0,1.16002533783
34,1_4_2,4,2.0,156.114142592,1_I,training,04,1_B,35.0,11000,ignore,1.0,400.0,1.61247153496
35,1_4_2,4,2.0,159.083041345,1_I,training,04,1_B,36.0,11011,ignore,1.0,500.0,0.854644496474
36,1_4_2,4,2.0,162.7238525,1_I,training,04,1_B,37.0,10110,kill,0.0,400.0,1.49138772264
37,1_4_2,4,2.0,165.755240297,1_I,training,04,1_B,38.0,11111,ignore,1.0,500.0,0.905140764153
38,1_4_2,4,2.0,169.317914695,1_I,training,04,1_B,39.0,00100,ignore,0.0,400.0,1.43575574032
39,1_4_2,4,2.0,172.36495431,1_I,training,04,1_B,40.0,10000,ignore,1.0,500.0,0.927097894277
40,1_4_2,4,2.0,175.427559944,1_I,training,04,1_B,41.0,00000,kill,0.0,400.0,0.946900158997
41,1_4_2,4,2.0,178.805896671,1_I,training,04,1_B,42.0,11100,kill,0.0,300.0,1.28343274287
42,1_4_2,4,2.0,182.324881778,1_I,training,04,1_B,43.0,00011,kill,1.0,400.0,1.41320498562
43,1_4_2,4,2.0,185.750069277,1_I,training,04,1_B,44.0,10011,ignore,1.0,500.0,1.33212514723
44,1_4_2,4,2.0,189.769006968,1_I,training,04,1_B,45.0,01100,ignore,0.0,400.0,1.88982270495
45,1_4_2,4,2.0,193.600520633,1_I,training,04,1_B,46.0,01110,kill,1.0,500.0,1.73897186359
46,1_4_2,4,2.0,198.788237777,1_I,training,04,1_B,47.0,11101,kill,0.0,400.0,3.04134640293
47,1_4_2,4,2.0,201.803973754,1_I,training,04,1_B,48.0,00010,kill,0.0,300.0,0.89695523143
48,1_4_2,4,2.0,204.726037334,1_I,training,04,1_B,49.0,10001,ignore,1.0,400.0,0.834561430085
49,1_4_2,4,2.0,207.913690436,1_I,training,04,1_B,50.0,10111,ignore,1.0,500.0,1.05032343507
50,1_4_2,4,2.0,211.898269334,1_I,training,04,1_B,51.0,00110,ignore,0.0,400.0,1.86169450668
51,1_4_2,4,2.0,215.210925976,1_I,training,04,1_B,52.0,01101,kill,1.0,500.0,1.16513436811
52,1_4_2,4,2.0,219.211088956,1_I,training,04,1_B,53.0,10100,ignore,1.0,600.0,1.85972027392
53,1_4_2,4,2.0,222.930021269,1_I,training,04,1_B,54.0,01111,kill,1.0,700.0,1.59994835548
54,1_4_2,4,2.0,227.148965283,1_I,training,04,1_B,55.0,11110,ignore,1.0,800.0,2.09322122614
55,1_4_2,4,2.0,232.664856645,1_I,training,04,1_B,56.0,10101,ignore,1.0,900.0,3.36960354828
56,1_4_2,4,2.0,236.196273795,1_I,training,04,1_B,57.0,00101,kill,1.0,1000.0,1.38251467743
57,1_4_2,4,2.0,240.508969437,1_I,training,04,1_B,58.0,00111,ignore,0.0,900.0,2.17901188193
58,1_4_2,4,2.0,244.462302582,1_I,training,04,1_B,59.0,01000,kill,0.0,800.0,1.79014304053
59,1_4_2,4,2.0,247.784406312,1_I,training,04,1_B,60.0,01001,kill,1.0,900.0,1.1303798253
60,1_4_2,4,2.0,251.084300847,1_I,training,04,1_B,61.0,01010,ignore,1.0,1000.0,1.18188435159
61,1_4_2,4,2.0,254.30626471,1_I,training,04,1_B,62.0,01011,kill,1.0,1100.0,1.12598059923
62,1_4_2,4,2.0,257.618908626,1_I,training,04,1_B,63.0,10010,kill,0.0,1000.0,1.11028854834
63,1_4_2,4,2.0,261.497234884,1_I,training,04,1_B,64.0,11010,ignore,1.0,1100.0,1.79761055847
64,1_4_2,4,2.0,264.903666555,1_I,training,04,1_B,65.0,10101,ignore,1.0,1200.0,1.26154704475
65,1_4_2,4,2.0,267.997551196,1_I,training,04,1_B,66.0,11010,ignore,1.0,1300.0,0.947184244891
66,1_4_2,4,2.0,271.125839788,1_I,training,04,1_B,67.0,01110,kill,1.0,1400.0,1.04795468419
67,1_4_2,4,2.0,274.691254876,1_I,training,04,1_B,68.0,00101,kill,1.0,1500.0,1.39865174148
68,1_4_2,4,2.0,279.378966067,1_I,training,04,1_B,69.0,10100,kill,0.0,1400.0,2.56511663327
69,1_4_2,4,2.0,282.441637796,1_I,training,04,1_B,70.0,00000,kill,0.0,1300.0,0.944334764848
70,1_4_2,4,2.0,285.551147161,1_I,training,04,1_B,71.0,10010,ignore,1.0,1400.0,0.966235242002
71,1_4_2,4,2.0,288.698262191,1_I,training,04,1_B,72.0,00010,ignore,1.0,1500.0,1.06646994129
72,1_4_2,4,2.0,291.714028137,1_I,training,04,1_B,73.0,01000,ignore,1.0,1600.0,0.868267892998
73,1_4_2,4,2.0,294.717297177,1_I,training,04,1_B,74.0,00100,kill,1.0,1700.0,0.898619925505
74,1_4_2,4,2.0,297.779931138,1_I,training,04,1_B,75.0,01010,ignore,1.0,1800.0,0.955951086318
75,1_4_2,4,2.0,300.889443376,1_I,training,04,1_B,76.0,00110,kill,1.0,1900.0,0.96932693401
76,1_4_2,4,2.0,304.077125625,1_I,training,04,1_B,77.0,00111,kill,1.0,2000.0,1.0585533049
77,1_4_2,4,2.0,307.799308505,1_I,training,04,1_B,78.0,10110,ignore,1.0,2100.0,1.58966296821
78,1_4_2,4,2.0,311.471275509,1_I,training,04,1_B,79.0,00011,ignore,0.0,2000.0,1.55989676023
79,1_4_2,4,2.0,314.846426121,1_I,training,04,1_B,80.0,11111,ignore,1.0,2100.0,1.26268256727
80,1_4_2,4,2.0,319.159101238,1_I,training,04,1_B,81.0,11000,ignore,1.0,2200.0,2.19359427362
81,1_4_2,4,2.0,322.424914497,1_I,training,04,1_B,82.0,11001,kill,0.0,2100.0,1.15445487325
82,1_4_2,4,2.0,325.393777123,1_I,training,04,1_B,83.0,10011,kill,0.0,2000.0,0.874850310956
83,1_4_2,4,2.0,328.518920244,1_I,training,04,1_B,84.0,11011,ignore,1.0,2100.0,0.99217121676
84,1_4_2,4,2.0,331.597200687,1_I,training,04,1_B,85.0,01101,kill,1.0,2200.0,0.943674634622
85,1_4_2,4,2.0,336.253669409,1_I,training,04,1_B,86.0,11100,ignore,1.0,2300.0,2.52969539178
86,1_4_2,4,2.0,340.769568571,1_I,training,04,1_B,87.0,01001,ignore,0.0,2200.0,2.4037599507
87,1_4_2,4,2.0,343.80089561,1_I,training,04,1_B,88.0,11101,ignore,1.0,2300.0,0.912840230834
88,1_4_2,4,2.0,347.051064439,1_I,training,04,1_B,89.0,01100,kill,1.0,2400.0,1.1177778243
89,1_4_2,4,2.0,350.144963449,1_I,training,04,1_B,90.0,10111,ignore,1.0,2500.0,0.960967337101
90,1_4_2,4,2.0,353.113862612,1_I,training,04,1_B,91.0,11110,ignore,1.0,2600.0,0.840881109645
91,1_4_2,4,2.0,356.426542654,1_I,training,04,1_B,92.0,10001,ignore,1.0,2700.0,1.16619353228
92,1_4_2,4,2.0,359.848549787,1_I,training,04,1_B,93.0,10000,ignore,1.0,2800.0,1.31330650939
93,1_4_2,4,2.0,362.86435268,1_I,training,04,1_B,94.0,00001,kill,1.0,2900.0,0.890083390706
94,1_4_2,4,2.0,365.89572775,1_I,training,04,1_B,95.0,01011,kill,1.0,3000.0,0.918631149361
95,1_4_2,4,2.0,369.9271644,1_I,training,04,1_B,96.0,01111,kill,1.0,3100.0,1.89593712013
96,1_4_2,4,2.0,373.646096713,1_I,training,04,1_B,97.0,01011,kill,1.0,3200.0,1.58818917
97,1_4_2,4,2.0,376.708737653,1_I,training,04,1_B,98.0,01101,kill,1.0,3300.0,0.945213706898
98,1_4_2,4,2.0,379.677644616,1_I,training,04,1_B,99.0,10110,ignore,1.0,3400.0,0.840922573047
99,1_4_2,4,2.0,382.677797333,1_I,training,04,1_B,100.0,11011,ignore,1.0,3500.0,0.893108166525
100,1_4_2,4,2.0,386.006048731,1_I,training,04,1_B,101.0,11111,ignore,1.0,3600.0,1.20342807926
101,1_4_2,4,2.0,389.068726207,1_I,training,04,1_B,102.0,00011,kill,1.0,3700.0,0.936641866625
102,1_4_2,4,2.0,392.44387682,1_I,training,04,1_B,103.0,11100,ignore,1.0,3800.0,1.24561606612
103,1_4_2,4,2.0,395.522160137,1_I,training,04,1_B,104.0,11001,ignore,1.0,3900.0,0.946835705981
104,1_4_2,4,2.0,398.506663087,1_I,training,04,1_B,105.0,00001,kill,1.0,4000.0,0.86486830443
105,1_4_2,4,2.0,401.881852289,1_I,training,04,1_B,106.0,10101,ignore,1.0,4100.0,1.23075123066
106,1_4_2,4,2.0,404.881982837,1_I,training,04,1_B,107.0,01110,kill,1.0,4200.0,0.914802968779
107,1_4_2,4,2.0,407.772730464,1_I,training,04,1_B,108.0,00101,kill,1.0,4300.0,0.780300203252
108,1_4_2,4,2.0,410.835382077,1_I,training,04,1_B,109.0,10011,ignore,1.0,4400.0,0.949897429389
109,1_4_2,4,2.0,413.819898164,1_I,training,04,1_B,110.0,00110,kill,1.0,4500.0,0.859410324716
110,1_4_2,4,2.0,417.038810156,1_I,training,04,1_B,111.0,00010,kill,0.0,4400.0,1.09307220421
111,1_4_2,4,2.0,420.3045877,1_I,training,04,1_B,112.0,11000,ignore,1.0,4500.0,1.14613140286
112,1_4_2,4,2.0,423.211005619,1_I,training,04,1_B,113.0,00100,kill,1.0,4600.0,0.770037395065
113,1_4_2,4,2.0,426.117398906,1_I,training,04,1_B,114.0,10111,ignore,1.0,4700.0,0.780476730612
114,1_4_2,4,2.0,429.133145557,1_I,training,04,1_B,115.0,00000,kill,0.0,4600.0,0.888540213138
115,1_4_2,4,2.0,432.164518164,1_I,training,04,1_B,116.0,00111,kill,1.0,4700.0,0.901020697627
116,1_4_2,4,2.0,435.102214679,1_I,training,04,1_B,117.0,01001,kill,1.0,4800.0,0.802134174752
117,1_4_2,4,2.0,437.946103733,1_I,training,04,1_B,118.0,10000,ignore,1.0,4900.0,0.731903379594
118,1_4_2,4,2.0,441.743128467,1_I,training,04,1_B,119.0,10010,ignore,1.0,5000.0,1.65801231012
119,1_4_2,4,2.0,444.633869114,1_I,training,04,1_B,120.0,01000,kill,0.0,4900.0,0.755611825363
120,1_4_2,4,2.0,448.071567477,1_I,training,04,1_B,121.0,10100,ignore,1.0,5000.0,1.30230474945
121,1_4_2,4,2.0,450.852967487,1_I,training,04,1_B,122.0,11110,ignore,1.0,5100.0,0.680641475803
122,1_4_2,4,2.0,454.040616072,1_I,training,04,1_B,123.0,10001,ignore,1.0,5200.0,1.06326330124
123,1_4_2,4,2.0,458.650188043,1_I,training,04,1_B,124.0,01100,kill,1.0,5300.0,2.47614027439
124,1_4_2,4,2.0,461.853454784,1_I,training,04,1_B,125.0,01010,ignore,1.0,5400.0,1.09006508112
125,1_4_2,4,2.0,464.80673497,1_I,training,04,1_B,126.0,11101,ignore,1.0,5500.0,0.840438970183
126,1_4_2,4,2.0,467.603751494,1_I,training,04,1_B,127.0,11010,ignore,1.0,5600.0,0.702736543582
127,1_4_2,4,2.0,471.213276253,1_I,training,04,1_B,128.0,01111,kill,1.0,5700.0,1.48981539754
128,1_4_2,4,2.0,474.260314637,1_I,training,04,1_B,129.0,10000,ignore,1.0,5800.0,0.918099104103
129,1_4_2,4,2.0,477.510487983,1_I,training,04,1_B,130.0,00100,kill,1.0,5900.0,1.10823508354
130,1_4_2,4,2.0,480.495014334,1_I,training,04,1_B,131.0,10110,ignore,1.0,6000.0,0.880332511864
131,1_4_2,4,2.0,483.448273993,1_I,training,04,1_B,132.0,00111,kill,1.0,6100.0,0.829231535339
132,1_4_2,4,2.0,486.870313558,1_I,training,04,1_B,133.0,10001,ignore,1.0,6200.0,1.26633380996
133,1_4_2,4,2.0,489.870415779,1_I,training,04,1_B,134.0,11011,ignore,1.0,6300.0,0.895654265823
134,1_4_2,4,2.0,493.167490393,1_I,training,04,1_B,135.0,01001,kill,1.0,6400.0,1.18165404496
135,1_4_2,4,2.0,496.042608368,1_I,training,04,1_B,136.0,10010,ignore,1.0,6500.0,0.759445753345
136,1_4_2,4,2.0,499.011494394,1_I,training,04,1_B,137.0,11100,ignore,1.0,6600.0,0.841439018212
137,1_4_2,4,2.0,501.964778686,1_I,training,04,1_B,138.0,11111,ignore,1.0,6700.0,0.832274374428
138,1_4_2,4,2.0,505.043095255,1_I,training,04,1_B,139.0,11000,ignore,1.0,6800.0,0.989438737408
139,1_4_2,4,2.0,507.855700376,1_I,training,04,1_B,140.0,10011,ignore,1.0,6900.0,0.687507158596
140,1_4_2,4,2.0,511.043346499,1_I,training,04,1_B,141.0,00110,kill,1.0,7000.0,1.07177807801
141,1_4_2,4,2.0,515.215430298,1_I,training,04,1_B,142.0,01010,ignore,1.0,7100.0,2.03072971895
142,1_4_2,4,2.0,517.90304871,1_I,training,04,1_B,143.0,11010,ignore,1.0,7200.0,0.597213002431
143,1_4_2,4,2.0,521.121912259,1_I,training,04,1_B,144.0,11101,ignore,1.0,7300.0,1.10319502209
144,1_4_2,4,2.0,523.778359634,1_I,training,04,1_B,145.0,01011,ignore,0.0,7200.0,0.531566171281
145,1_4_2,4,2.0,526.934709097,1_I,training,04,1_B,146.0,01101,kill,1.0,7300.0,1.04401319768
146,1_4_2,4,2.0,531.481792845,1_I,training,04,1_B,147.0,00011,kill,1.0,7400.0,2.42800618913
147,1_4_2,4,2.0,534.481980867,1_I,training,04,1_B,148.0,01100,kill,1.0,7500.0,0.875822853559
148,1_4_2,4,2.0,539.497840003,1_I,training,04,1_B,149.0,00000,kill,0.0,7400.0,2.90313409963
149,1_4_2,4,2.0,542.357338591,1_I,training,04,1_B,150.0,10100,ignore,1.0,7500.0,0.742905550062
150,1_4_2,4,2.0,545.123096635,1_I,training,04,1_B,151.0,10101,ignore,1.0,7600.0,0.636846268892
151,1_4_2,4,2.0,548.029503059,1_I,training,04,1_B,152.0,00101,ignore,0.0,7500.0,0.751346842193
152,1_4_2,4,2.0,550.857723462,1_I,training,04,1_B,153.0,11001,ignore,1.0,7600.0,0.711304278575
153,1_4_2,4,2.0,555.467348801,1_I,training,04,1_B,154.0,01000,ignore,1.0,7700.0,2.48947137445
154,1_4_2,4,2.0,558.561236726,1_I,training,04,1_B,155.0,01111,kill,1.0,7800.0,0.956349299209
155,1_4_2,4,2.0,562.358278292,1_I,training,04,1_B,156.0,00010,ignore,1.0,7900.0,1.6659745152
156,1_4_2,4,2.0,566.108476064,1_I,training,04,1_B,157.0,11110,ignore,1.0,8000.0,1.64941501706
157,1_4_2,4,2.0,569.483622982,1_I,training,04,1_B,158.0,01110,kill,1.0,8100.0,1.25426878056
158,1_4_2,4,2.0,573.921340229,1_I,training,04,1_B,159.0,00001,kill,1.0,8200.0,2.35389425519
159,1_4_2,4,2.0,576.968381897,1_I,training,04,1_B,160.0,10111,ignore,1.0,8300.0,0.773271540547
160,1_4_2,4,2.0,579.952907837,1_I,training,04,1_B,161.0,00001,kill,1.0,8400.0,0.850836431797
161,1_4_2,4,2.0,583.234312978,1_I,training,04,1_B,162.0,00011,kill,1.0,8500.0,1.16903439122
162,1_4_2,4,2.0,586.53130138,1_I,training,04,1_B,163.0,00010,ignore,1.0,8600.0,1.17232313703
163,1_4_2,4,2.0,589.39084759,1_I,training,04,1_B,164.0,10000,ignore,1.0,8700.0,0.757015423154
164,1_4_2,4,2.0,592.469119822,1_I,training,04,1_B,165.0,10010,ignore,1.0,8800.0,0.965347678852
165,1_4_2,4,2.0,595.375506541,1_I,training,04,1_B,166.0,11110,ignore,1.0,8900.0,0.798886071294
166,1_4_2,4,2.0,598.406926769,1_I,training,04,1_B,167.0,10101,ignore,1.0,9000.0,0.919137331312
167,1_4_2,4,2.0,601.235148815,1_I,training,04,1_B,168.0,10100,ignore,1.0,9100.0,0.681575839237
168,1_4_2,4,2.0,604.235306458,1_I,training,04,1_B,169.0,10110,ignore,1.0,9200.0,0.840961983806
169,1_4_2,4,2.0,607.422966128,1_I,training,04,1_B,170.0,00100,kill,1.0,9300.0,1.05017441314
170,1_4_2,4,2.0,610.235622565,1_I,training,04,1_B,171.0,11111,ignore,1.0,9400.0,0.689127515569
171,1_4_2,4,2.0,613.079494787,1_I,training,04,1_B,172.0,11011,ignore,1.0,9500.0,0.741887028234
172,1_4_2,4,2.0,616.126508539,1_I,training,04,1_B,173.0,00101,kill,1.0,9600.0,0.854809939559
173,1_4_2,4,2.0,619.611042895,1_I,training,04,1_B,174.0,00111,kill,1.0,9700.0,1.3130425394
174,1_4_2,4,2.0,622.351868706,1_I,training,04,1_B,175.0,10001,ignore,1.0,9800.0,0.640399805736
175,1_4_2,4,2.0,625.514573155,1_I,training,04,1_B,176.0,01001,kill,1.0,9900.0,1.04541679547
176,1_4_2,4,2.0,628.596028216,1_I,training,04,1_B,177.0,01110,kill,1.0,10000.0,1.01082235887
177,1_4_2,4,2.0,631.611788826,1_I,training,04,1_B,178.0,11000,ignore,1.0,10100.0,0.866760431432
178,1_4_2,4,2.0,634.518196892,1_I,training,04,1_B,179.0,11100,ignore,1.0,10200.0,0.792155041927
179,1_4_2,4,2.0,637.643321949,1_I,training,04,1_B,180.0,00110,kill,1.0,10300.0,1.00800941589
180,1_4_2,4,2.0,640.630996234,1_I,training,04,1_B,181.0,01111,kill,1.0,10400.0,0.86515074821
181,1_4_2,4,2.0,643.334243065,1_I,training,04,1_B,182.0,11010,ignore,1.0,10500.0,0.649672008058
182,1_4_2,4,2.0,646.353186093,1_I,training,04,1_B,183.0,10111,ignore,1.0,10600.0,0.919926778093
183,1_4_2,4,2.0,649.415843043,1_I,training,04,1_B,184.0,01011,kill,1.0,10700.0,0.952657414167
184,1_4_2,4,2.0,652.197240179,1_I,training,04,1_B,185.0,10011,ignore,1.0,10800.0,0.690295059328
185,1_4_2,4,2.0,655.103601856,1_I,training,04,1_B,186.0,11101,ignore,1.0,10900.0,0.776132515395
186,1_4_2,4,2.0,658.134980621,1_I,training,04,1_B,187.0,11001,ignore,1.0,11000.0,0.946018343246
187,1_4_2,4,2.0,661.291397001,1_I,training,04,1_B,188.0,01010,ignore,1.0,11100.0,1.06030872583
188,1_4_2,4,2.0,664.260271121,1_I,training,04,1_B,189.0,00000,kill,0.0,11000.0,0.823294468577
189,1_4_2,4,2.0,667.557317819,1_I,training,04,1_B,190.0,01000,ignore,1.0,11100.0,1.21415150071
190,1_4_2,4,2.0,670.479330904,1_I,training,04,1_B,191.0,01101,kill,1.0,11200.0,0.802449460833
191,1_4_2,4,2.0,673.448233762,1_I,training,04,1_B,192.0,01100,kill,1.0,11300.0,0.846992651124
192,1_4_2,4,2.0,676.354622533,1_I,training,04,1_B,193.0,01111,kill,1.0,11400.0,0.815317894991
193,1_4_2,4,2.0,679.5266505,1_I,training,04,1_B,194.0,00001,kill,1.0,11500.0,1.03825512145
194,1_4_2,4,2.0,682.4955472,1_I,training,04,1_B,195.0,11011,ignore,1.0,11600.0,0.886777402691
195,1_4_2,4,2.0,685.573835443,1_I,training,04,1_B,196.0,00111,kill,1.0,11700.0,0.915110865342
196,1_4_2,4,2.0,689.449042503,1_I,training,04,1_B,197.0,00101,kill,1.0,11800.0,1.67876535942
197,1_4_2,4,2.0,692.558526826,1_I,training,04,1_B,198.0,10001,ignore,1.0,11900.0,0.903268342528
198,1_4_2,4,2.0,695.871216721,1_I,training,04,1_B,199.0,10000,ignore,1.0,12000.0,1.09776824257
199,1_4_2,4,2.0,698.82447556,1_I,training,04,1_B,200.0,01101,kill,1.0,12100.0,0.838198304271
200,1_4_2,4,2.0,702.105871259,1_I,training,04,1_B,201.0,00000,ignore,1.0,12200.0,1.11582863381
201,1_4_2,4,2.0,704.996616012,1_I,training,04,1_B,202.0,00010,ignore,1.0,12300.0,0.755981711762
202,1_4_2,4,2.0,708.528046298,1_I,training,04,1_B,203.0,01001,kill,1.0,12400.0,1.42054195542
203,1_4_2,4,2.0,712.465723928,1_I,training,04,1_B,204.0,01011,kill,1.0,12500.0,1.84274901545
204,1_4_2,4,2.0,715.950252537,1_I,training,04,1_B,205.0,10110,ignore,1.0,12600.0,1.41506714403
205,1_4_2,4,2.0,718.856661424,1_I,training,04,1_B,206.0,11100,ignore,1.0,12700.0,0.804835453921
206,1_4_2,4,2.0,721.919284301,1_I,training,04,1_B,207.0,10101,ignore,1.0,12800.0,0.941005376695
207,1_4_2,4,2.0,725.700786532,1_I,training,04,1_B,208.0,10011,ignore,1.0,12900.0,1.71290739334
208,1_4_2,4,2.0,729.325902763,1_I,training,04,1_B,209.0,01100,kill,1.0,13000.0,1.52389913637
209,1_4_2,4,2.0,732.185401351,1_I,training,04,1_B,210.0,11001,ignore,1.0,13100.0,0.734649406393
210,1_4_2,4,2.0,735.310584293,1_I,training,04,1_B,211.0,11010,ignore,1.0,13200.0,1.01906618668
211,1_4_2,4,2.0,738.388871305,1_I,training,04,1_B,212.0,00100,kill,1.0,13300.0,0.956227372168
212,1_4_2,4,2.0,742.529676507,1_I,training,04,1_B,213.0,00110,kill,1.0,13400.0,2.01583327278
213,1_4_2,4,2.0,745.311081033,1_I,training,04,1_B,214.0,11101,ignore,1.0,13500.0,0.661598278737
214,1_4_2,4,2.0,748.029955051,1_I,training,04,1_B,215.0,01010,ignore,1.0,13600.0,0.605399356209
215,1_4_2,4,2.0,750.576970651,1_I,training,04,1_B,216.0,11000,ignore,1.0,13700.0,0.454210649688
216,1_4_2,4,2.0,753.248956128,1_I,training,04,1_B,217.0,00011,ignore,0.0,13600.0,0.542341319349
217,1_4_2,4,2.0,755.764679174,1_I,training,04,1_B,218.0,10100,ignore,1.0,13700.0,0.429371607748
218,1_4_2,4,2.0,759.186705601,1_I,training,04,1_B,219.0,01000,ignore,1.0,13800.0,1.2492299507
219,1_4_2,4,2.0,761.718106329,1_I,training,04,1_B,220.0,11111,ignore,1.0,13900.0,0.400229813993
220,1_4_2,4,2.0,764.249496794,1_I,training,04,1_B,221.0,10111,ignore,1.0,14000.0,0.422524809277
221,1_4_2,4,2.0,766.905895727,1_I,training,04,1_B,222.0,10010,ignore,1.0,14100.0,0.527604158327
222,1_4_2,4,2.0,770.874794069,1_I,training,04,1_B,223.0,01110,kill,1.0,14200.0,1.89651391302
223,1_4_2,4,2.0,773.515544055,1_I,training,04,1_B,224.0,11110,ignore,1.0,14300.0,0.539362522748
224,1_4_2,4,2.0,777.625105968,1_I,training,04,1_B,225.0,00001,kill,1.0,14400.0,1.97740901349
225,1_4_2,4,2.0,780.500250628,1_I,training,04,1_B,226.0,01001,kill,1.0,14500.0,0.779087501331
226,1_4_2,4,2.0,783.015999126,1_I,training,04,1_B,227.0,11111,ignore,1.0,14600.0,0.417368568196
227,1_4_2,4,2.0,785.562996252,1_I,training,04,1_B,228.0,10110,ignore,1.0,14700.0,0.461834168553
228,1_4_2,4,2.0,788.25063437,1_I,training,04,1_B,229.0,10010,ignore,1.0,14800.0,0.567458699781
229,1_4_2,4,2.0,791.016375992,1_I,training,04,1_B,230.0,11010,ignore,1.0,14900.0,0.657536917824
230,1_4_2,4,2.0,794.094640835,1_I,training,04,1_B,231.0,01101,kill,1.0,15000.0,0.969568324916
231,1_4_2,4,2.0,797.204194536,1_I,training,04,1_B,232.0,00000,ignore,1.0,15100.0,0.982935551499
232,1_4_2,4,2.0,799.938657563,1_I,training,04,1_B,233.0,10000,ignore,1.0,15200.0,0.603822925816
233,1_4_2,4,2.0,802.563816489,1_I,training,04,1_B,234.0,11011,ignore,1.0,15300.0,0.52920439939
234,1_4_2,4,2.0,805.142069631,1_I,training,04,1_B,235.0,10011,ignore,1.0,15400.0,0.456700917082
235,1_4_2,4,2.0,808.329702617,1_I,training,04,1_B,236.0,00100,kill,1.0,15500.0,1.09173141731
236,1_4_2,4,2.0,811.736151942,1_I,training,04,1_B,237.0,00101,kill,1.0,15600.0,1.25844714217
237,1_4_2,4,2.0,814.486273766,1_I,training,04,1_B,238.0,11101,ignore,1.0,15700.0,0.631489689775
238,1_4_2,4,2.0,817.970820438,1_I,training,04,1_B,239.0,00010,ignore,1.0,15800.0,1.2371263316
239,1_4_2,4,2.0,822.252274432,1_I,training,04,1_B,240.0,01011,kill,1.0,15900.0,2.14536001935
240,1_4_2,4,2.0,825.439941081,1_I,training,04,1_B,241.0,00111,kill,1.0,16000.0,1.06167866027
241,1_4_2,4,2.0,828.64322178,1_I,training,04,1_B,242.0,01100,kill,1.0,16100.0,1.04513065693
242,1_4_2,4,2.0,831.783981825,1_I,training,04,1_B,243.0,10100,ignore,1.0,16200.0,1.00498094531
243,1_4_2,4,2.0,834.612227681,1_I,training,04,1_B,244.0,10001,ignore,1.0,16300.0,0.712414348309
244,1_4_2,4,2.0,837.909326105,1_I,training,04,1_B,245.0,01000,ignore,1.0,16400.0,1.17729587176
245,1_4_2,4,2.0,841.206349812,1_I,training,04,1_B,246.0,01010,ignore,1.0,16500.0,1.20756867222
246,1_4_2,4,2.0,938.226576153,1_I,test,04,2,0.0,11100,ignore,0.0,0.0,3.06522234442
247,1_4_2,4,2.0,941.605605852,1_I,test,04,2,1.0,10101,ignore,0.0,0.0,1.23578677629
248,1_4_2,4,2.0,945.808961678,1_I,test,04,2,2.0,01110,ignore,1.0,100.0,2.16717674864
249,1_4_2,4,2.0,949.121640489,1_I,test,04,2,3.0,11000,kill,1.0,200.0,1.21965751229
250,1_4_2,4,2.0,952.278056869,1_I,test,04,2,4.0,00011,ignore,1.0,300.0,1.02830144141
251,1_4_2,4,2.0,955.700082065,1_I,test,04,2,5.0,10111,kill,0.0,200.0,1.30643466866
252,1_4_2,4,2.0,959.30962694,1_I,test,04,2,6.0,11001,kill,1.0,300.0,1.48536772907
253,1_4_2,4,2.0,963.450417775,1_I,test,04,2,7.0,00110,ignore,1.0,400.0,2.06209534694
254,1_4_2,4,2.0,967.825606566,1_I,test,04,2,8.0,11110,kill,0.0,300.0,2.24386721365
255,1_4_2,4,2.0,971.794559098,1_I,test,04,2,9.0,01111,ignore,1.0,400.0,1.83304781059
256,1_4_2,4,2.0,975.341608361,1_I,test,04,2,10.0,00010,ignore,1.0,500.0,1.45910579449
257,1_4_2,4,2.0,978.888680614,1_I,test,04,2,11.0,11011,kill,0.0,400.0,1.4467595529
258,1_4_2,4,2.0,982.904546729,1_I,test,04,2,12.0,11010,kill,0.0,300.0,1.93969086364
259,1_4_2,4,2.0,986.060896603,1_I,test,04,2,13.0,11000,ignore,0.0,200.0,1.02182863463
260,1_4_2,4,2.0,988.623536516,1_I,test,04,2,14.0,11111,kill,0.0,100.0,0.455201255561
261,1_4_2,4,2.0,991.529871509,1_I,test,04,2,15.0,01001,kill,1.0,200.0,0.789682837807
262,1_4_2,4,2.0,1006.34313676,1_I,test,04,2,16.0,11001,ignore,0.0,100.0,12.7099347547
263,1_4_2,4,2.0,1010.81209196,1_I,test,04,2,17.0,11110,kill,0.0,0.0,2.3930628031
264,1_4_2,4,2.0,1016.87489793,1_I,test,04,2,18.0,01011,ignore,1.0,100.0,3.96661990744
265,1_4_2,4,2.0,1020.42188931,1_I,test,04,2,19.0,10110,kill,0.0,0.0,1.43525243207
266,1_4_2,4,2.0,1024.65651224,1_I,test,04,2,20.0,00000,kill,1.0,100.0,2.1295386519
267,1_4_2,4,2.0,1028.54730666,1_I,test,04,2,21.0,01000,kill,1.0,200.0,1.7945422666
268,1_4_2,4,2.0,1031.79745168,1_I,test,04,2,22.0,01110,kill,0.0,100.0,1.13431063807
269,1_4_2,4,2.0,1035.76642597,1_I,test,04,2,23.0,01111,ignore,1.0,200.0,1.80521519301
270,1_4_2,4,2.0,1039.29783738,1_I,test,04,2,24.0,10001,kill,1.0,300.0,1.40573746769
271,1_4_2,4,2.0,1042.57921132,1_I,test,04,2,25.0,10100,ignore,0.0,200.0,1.18709355088
272,1_4_2,4,2.0,1046.95443336,1_I,test,04,2,26.0,00111,ignore,1.0,300.0,2.26319737032
273,1_4_2,4,2.0,1050.42335531,1_I,test,04,2,27.0,00011,ignore,1.0,400.0,1.36924351457
274,1_4_2,4,2.0,1053.45475091,1_I,test,04,2,28.0,01010,ignore,1.0,500.0,0.946829137523
275,1_4_2,4,2.0,1056.75179596,1_I,test,04,2,29.0,00101,kill,0.0,400.0,1.15540894205
276,1_4_2,4,2.0,1060.31443505,1_I,test,04,2,30.0,10111,kill,0.0,300.0,1.4585019067
277,1_4_2,4,2.0,1063.40836608,1_I,test,04,2,31.0,11101,ignore,0.0,200.0,0.965174435718
278,1_4_2,4,2.0,1067.00226119,1_I,test,04,2,32.0,10101,kill,1.0,300.0,1.45361702512
279,1_4_2,4,2.0,1070.64307317,1_I,test,04,2,33.0,01100,ignore,1.0,400.0,1.53079191406
280,1_4_2,4,2.0,1081.11237157,1_I,test,04,2,34.0,10000,ignore,0.0,300.0,8.34636433687
281,1_4_2,4,2.0,1084.20624841,1_I,test,04,2,35.0,11100,ignore,0.0,200.0,0.929371813014
282,1_4_2,4,2.0,1087.55016394,1_I,test,04,2,36.0,00001,ignore,0.0,100.0,1.19254249896
283,1_4_2,4,2.0,1090.59720684,1_I,test,04,2,37.0,01101,kill,0.0,0.0,0.916466841798
284,1_4_2,4,2.0,1093.5191838,1_I,test,04,2,38.0,10011,kill,0.0,0.0,0.805539510722
285,1_4_2,4,2.0,1096.06615794,1_I,test,04,2,39.0,00110,kill,0.0,0.0,0.411714766266
286,1_4_2,4,2.0,1098.48818314,1_I,test,04,2,40.0,10010,ignore,1.0,100.0,0.328408219935
287,1_4_2,4,2.0,1100.72265909,1_I,test,04,2,41.0,00100,ignore,1.0,200.0,0.130519815608
288,1_4_2,4,2.0,1103.11338311,1_I,test,04,2,42.0,01110,ignore,1.0,300.0,0.274348973249
289,1_4_2,4,2.0,1105.19159171,1_I,test,04,2,43.0,00010,ignore,1.0,400.0,0.0109771282114
290,1_4_2,4,2.0,1107.5667296,1_I,test,04,2,44.0,01111,ignore,1.0,500.0,0.270689519981
291,1_4_2,4,2.0,1110.30126119,1_I,test,04,2,45.0,01000,ignore,0.0,400.0,0.610241542803
292,1_4_2,4,2.0,1113.16075567,1_I,test,04,2,46.0,10110,ignore,1.0,500.0,0.741137813267
293,1_4_2,4,2.0,1116.61405741,1_I,test,04,2,47.0,01011,kill,0.0,400.0,1.34121179055
294,1_4_2,4,2.0,1119.62984716,1_I,test,04,2,48.0,11111,ignore,1.0,500.0,0.900466483818
295,1_4_2,4,2.0,1122.47371815,1_I,test,04,2,49.0,11001,ignore,0.0,400.0,0.713432459605
296,1_4_2,4,2.0,1125.33318349,1_I,test,04,2,50.0,10111,ignore,1.0,500.0,0.730474329022
297,1_4_2,4,2.0,1128.59901604,1_I,test,04,2,51.0,10011,kill,0.0,400.0,1.16523494765
298,1_4_2,4,2.0,1131.78664698,1_I,test,04,2,52.0,00000,kill,1.0,500.0,1.04643572783
299,1_4_2,4,2.0,1135.20866027,1_I,test,04,2,53.0,00100,ignore,1.0,600.0,1.32742910887
300,1_4_2,4,2.0,1137.88071184,1_I,test,04,2,54.0,11101,ignore,0.0,500.0,0.529713044511
301,1_4_2,4,2.0,1141.56836309,1_I,test,04,2,55.0,00011,ignore,1.0,600.0,1.55942465217
302,1_4_2,4,2.0,1144.55288288,1_I,test,04,2,56.0,10010,ignore,1.0,700.0,0.875973107082
303,1_4_2,4,2.0,1147.69366468,1_I,test,04,2,57.0,11000,kill,1.0,800.0,1.01690762652
304,1_4_2,4,2.0,1151.89700039,1_I,test,04,2,58.0,00001,kill,1.0,900.0,2.08862453574
305,1_4_2,4,2.0,1155.02212422,1_I,test,04,2,59.0,10101,kill,1.0,1000.0,0.990916230377
306,1_4_2,4,2.0,1160.67866232,1_I,test,04,2,60.0,01101,kill,0.0,900.0,3.51645214487
307,1_4_2,4,2.0,1164.4288646,1_I,test,04,2,61.0,11100,ignore,0.0,800.0,1.67936596298
308,1_4_2,4,2.0,1167.94464964,1_I,test,04,2,62.0,10001,kill,1.0,900.0,1.428782499
309,1_4_2,4,2.0,1170.77288523,1_I,test,04,2,63.0,00110,ignore,1.0,1000.0,0.684011506299
310,1_4_2,4,2.0,1174.31997268,1_I,test,04,2,64.0,11010,kill,0.0,900.0,1.45699403461
311,1_4_2,4,2.0,1177.11697565,1_I,test,04,2,65.0,01001,kill,1.0,1000.0,0.656896492976
312,1_4_2,4,2.0,1180.27335467,1_I,test,04,2,66.0,01100,ignore,1.0,1100.0,0.974431858998
313,1_4_2,4,2.0,1183.39850641,1_I,test,04,2,67.0,10000,kill,1.0,1200.0,1.01276744408
314,1_4_2,4,2.0,1186.86748173,1_I,test,04,2,68.0,00101,kill,0.0,1100.0,1.32436286965
315,1_4_2,4,2.0,1192.02390345,1_I,test,04,2,69.0,00111,ignore,1.0,1200.0,3.05054594166
316,1_4_2,4,2.0,1195.18033502,1_I,test,04,2,70.0,10100,ignore,0.0,1100.0,0.988561026948
317,1_4_2,4,2.0,1198.96173626,1_I,test,04,2,71.0,11011,ignore,1.0,1200.0,1.7128454035
318,1_4_2,4,2.0,1201.89939459,1_I,test,04,2,72.0,11110,ignore,1.0,1300.0,0.788803074694
319,1_4_2,4,2.0,1204.94643092,1_I,test,04,2,73.0,01010,ignore,1.0,1400.0,0.920765898856
320,1_4_2,4,2.0,1207.96215746,1_I,test,04,2,74.0,10011,ignore,1.0,1500.0,0.861040944907
321,1_4_2,4,2.0,1210.85292479,1_I,test,04,2,75.0,11110,ignore,1.0,1600.0,0.768615323475
322,1_4_2,4,2.0,1214.00936293,1_I,test,04,2,76.0,00100,kill,0.0,1500.0,1.0405278086
323,1_4_2,4,2.0,1217.80635769,1_I,test,04,2,77.0,00101,kill,0.0,1400.0,1.63455264477
324,1_4_2,4,2.0,1220.80654572,1_I,test,04,2,78.0,11010,ignore,1.0,1500.0,0.833342570229
325,1_4_2,4,2.0,1224.13482462,1_I,test,04,2,79.0,01100,kill,0.0,1400.0,1.23330800371
326,1_4_2,4,2.0,1227.72877885,1_I,test,04,2,80.0,11101,kill,1.0,1500.0,1.42537593144
327,1_4_2,4,2.0,1230.86952206,1_I,test,04,2,81.0,01001,kill,1.0,1600.0,1.05017030785
328,1_4_2,4,2.0,1233.85402747,1_I,test,04,2,82.0,01110,ignore,1.0,1700.0,0.883179118209
329,1_4_2,4,2.0,1237.10416715,1_I,test,04,2,83.0,10100,ignore,0.0,1600.0,1.11497309189
330,1_4_2,4,2.0,1240.3387322,1_I,test,04,2,84.0,01111,ignore,1.0,1700.0,1.15661384393
331,1_4_2,4,2.0,1245.69836729,1_I,test,04,2,85.0,11000,ignore,0.0,1600.0,3.26725216277
332,1_4_2,4,2.0,1249.41729755,1_I,test,04,2,86.0,11100,ignore,0.0,1500.0,1.6316871541
333,1_4_2,4,2.0,1253.08931874,1_I,test,04,2,87.0,00011,ignore,1.0,1600.0,1.56815906183
334,1_4_2,4,2.0,1256.26136559,1_I,test,04,2,88.0,01010,ignore,1.0,1700.0,1.08195878045
335,1_4_2,4,2.0,1259.49592365,1_I,test,04,2,89.0,10000,kill,1.0,1800.0,1.15854291852
336,1_4_2,4,2.0,1262.48043276,1_I,test,04,2,90.0,11011,ignore,1.0,1900.0,0.845121461087
337,1_4_2,4,2.0,1265.41806647,1_I,test,04,2,91.0,00110,ignore,1.0,2000.0,0.797330577865
338,1_4_2,4,2.0,1269.18388937,1_I,test,04,2,92.0,00001,kill,1.0,2100.0,1.66090982203
339,1_4_2,4,2.0,1272.23087973,1_I,test,04,2,93.0,10111,ignore,1.0,2200.0,0.92687908245
340,1_4_2,4,2.0,1275.69981317,1_I,test,04,2,94.0,10101,kill,1.0,2300.0,1.3674761883
341,1_4_2,4,2.0,1278.60622575,1_I,test,04,2,95.0,00010,ignore,1.0,2400.0,0.749196082077
342,1_4_2,4,2.0,1282.16889317,1_I,test,04,2,96.0,10001,kill,1.0,2500.0,1.43508739952
343,1_4_2,4,2.0,1286.29404614,1_I,test,04,3,0.0,11001,ignore,1.0,2600.0,2.02165374938
344,1_4_2,4,2.0,1289.30983015,1_I,test,04,3,1.0,01000,ignore,1.0,2700.0,0.884730095822
345,1_4_2,4,2.0,1292.49750912,1_I,test,04,3,2.0,00111,ignore,0.0,2600.0,1.08760601392
346,1_4_2,4,2.0,1295.71636979,1_I,test,04,3,3.0,10110,ignore,0.0,2500.0,1.10138992719
347,1_4_2,4,2.0,1299.6228497,1_I,test,04,3,4.0,01011,ignore,1.0,2600.0,1.79559486231
348,1_4_2,4,2.0,1302.43547699,1_I,test,04,3,5.0,10010,ignore,0.0,2500.0,0.737619581894
349,1_4_2,4,2.0,1308.85762452,1_I,test,04,3,6.0,01101,ignore,1.0,2600.0,4.32949201583
350,1_4_2,4,2.0,1311.82655776,1_I,test,04,3,7.0,00000,ignore,0.0,2500.0,0.819293455392
351,1_4_2,4,2.0,1315.18606559,1_I,test,04,3,8.0,11111,ignore,1.0,2600.0,1.24887114857
352,1_4_2,4,2.0,1318.5299766,1_I,test,04,3,9.0,01111,ignore,1.0,2700.0,1.23236337706
353,1_4_2,4,2.0,1322.7177151,1_I,test,04,3,10.0,01100,ignore,1.0,2800.0,2.06831937331
354,1_4_2,4,2.0,1325.81156689,1_I,test,04,3,11.0,00000,kill,1.0,2900.0,0.940100571333
355,1_4_2,4,2.0,1329.31173377,1_I,test,04,3,12.0,11100,ignore,1.0,3000.0,1.38449424705
356,1_4_2,4,2.0,1332.62442736,1_I,test,04,3,13.0,10001,kill,0.0,2900.0,1.20346584791
357,1_4_2,4,2.0,1335.90583209,1_I,test,04,3,14.0,11010,ignore,1.0,3000.0,1.17740178818
358,1_4_2,4,2.0,1338.65595802,1_I,test,04,3,15.0,01011,ignore,1.0,3100.0,0.705751466718
359,1_4_2,4,2.0,1341.78112331,1_I,test,04,3,16.0,01001,ignore,1.0,3200.0,0.968921742136
360,1_4_2,4,2.0,1344.51562657,1_I,test,04,3,17.0,11110,ignore,1.0,3300.0,0.624556680265
361,1_4_2,4,2.0,1347.42201781,1_I,test,04,3,18.0,01110,ignore,1.0,3400.0,0.802038932081
362,1_4_2,4,2.0,1350.50029004,1_I,test,04,3,19.0,00110,ignore,0.0,3300.0,0.954310202913
363,1_4_2,4,2.0,1353.42229573,1_I,test,04,3,20.0,00010,ignore,0.0,3200.0,0.819531562065
364,1_4_2,4,2.0,1356.85994319,1_I,test,04,3,21.0,11101,ignore,1.0,3300.0,1.27800185806
365,1_4_2,4,2.0,1359.67258854,1_I,test,04,3,22.0,10010,ignore,0.0,3200.0,0.683538166653
366,1_4_2,4,2.0,1363.09461415,1_I,test,04,3,23.0,01000,ignore,1.0,3300.0,1.29740344672
367,1_4_2,4,2.0,1366.54791302,1_I,test,04,3,24.0,00101,kill,0.0,3200.0,1.30391525373
368,1_4_2,4,2.0,1369.86054051,1_I,test,04,3,25.0,10110,ignore,0.0,3100.0,1.2255338208
369,1_4_2,4,2.0,1373.0950879,1_I,test,04,3,26.0,11000,ignore,1.0,3200.0,1.13084700702
370,1_4_2,4,2.0,1376.2671171,1_I,test,04,3,27.0,11001,ignore,1.0,3300.0,1.05670058866
371,1_4_2,4,2.0,1379.8767059,1_I,test,04,3,28.0,01101,ignore,1.0,3400.0,1.52607042292
372,1_4_2,4,2.0,1382.93931071,1_I,test,04,3,29.0,10101,kill,0.0,3300.0,0.962259681601
373,1_4_2,4,2.0,1385.89257982,1_I,test,04,3,30.0,00011,ignore,0.0,3200.0,0.818689978132
374,1_4_2,4,2.0,1388.72086426,1_I,test,04,3,31.0,10111,ignore,0.0,3100.0,0.70102587029
375,1_4_2,4,2.0,1391.62725714,1_I,test,04,3,32.0,10011,ignore,0.0,3000.0,0.759184657065
376,1_4_2,4,2.0,1394.78367598,1_I,test,04,3,33.0,00100,kill,1.0,3100.0,1.06312495305
377,1_4_2,4,2.0,1397.86195232,1_I,test,04,3,34.0,11011,ignore,1.0,3200.0,0.959977552287
378,1_4_2,4,2.0,1401.00269841,1_I,test,04,3,35.0,00001,kill,0.0,3100.0,1.00517553594
379,1_4_2,4,2.0,1403.89345506,1_I,test,04,3,36.0,11111,ignore,1.0,3200.0,0.790253883293
380,1_4_2,4,2.0,1407.17490618,1_I,test,04,3,37.0,00111,ignore,0.0,3100.0,1.14164760787
381,1_4_2,4,2.0,1410.04998393,1_I,test,04,3,38.0,10000,ignore,0.0,3000.0,0.785583297722
382,1_4_2,4,2.0,1412.89390008,1_I,test,04,3,39.0,01010,ignore,1.0,3100.0,0.713981336543
383,1_4_2,4,2.0,1415.7065561,1_I,test,04,3,40.0,10100,kill,1.0,3200.0,0.680066325021
384,1_4_2,4,2.0,1418.75360106,1_I,test,04,3,41.0,11101,ignore,1.0,3300.0,0.943667655632
385,1_4_2,4,2.0,1421.83181705,1_I,test,04,3,42.0,10110,ignore,0.0,3200.0,0.949868281848
386,1_4_2,4,2.0,1425.22260429,1_I,test,04,3,43.0,01010,ignore,1.0,3300.0,1.32283241847
387,1_4_2,4,2.0,1428.08212546,1_I,test,04,3,44.0,11010,ignore,1.0,3400.0,0.734179350977
388,1_4_2,4,2.0,1431.30100255,1_I,test,04,3,45.0,00000,kill,1.0,3500.0,1.09210417742
389,1_4_2,4,2.0,1434.12926319,1_I,test,04,3,46.0,00011,ignore,0.0,3400.0,0.721466507217
390,1_4_2,4,2.0,1436.92629408,1_I,test,04,3,47.0,00010,kill,1.0,3500.0,0.712503022518
391,1_4_2,4,2.0,1440.1452463,1_I,test,04,3,48.0,01100,ignore,1.0,3600.0,1.06787353908
392,1_4_2,4,2.0,1443.06723763,1_I,test,04,3,49.0,00111,ignore,0.0,3500.0,0.768586175938
393,1_4_2,4,2.0,1448.41124061,1_I,test,04,3,50.0,11100,ignore,1.0,3600.0,3.20137133023
394,1_4_2,4,2.0,1451.25510051,1_I,test,04,3,51.0,11001,ignore,1.0,3700.0,0.759537711787
395,1_4_2,4,2.0,1454.06773848,1_I,test,04,3,52.0,10011,ignore,0.0,3600.0,0.680315926504
396,1_4_2,4,2.0,1457.63041287,1_I,test,04,3,53.0,01110,ignore,1.0,3700.0,1.46002455783
397,1_4_2,4,2.0,1460.38056713,1_I,test,04,3,54.0,11000,ignore,1.0,3800.0,0.658906031204
398,1_4_2,4,2.0,1463.28697314,1_I,test,04,3,55.0,10111,ignore,0.0,3700.0,0.775601291196
399,1_4_2,4,2.0,1466.20896447,1_I,test,04,3,56.0,10010,ignore,0.0,3600.0,0.85592124088
400,1_4_2,4,2.0,1469.78725826,1_I,test,04,3,57.0,01000,ignore,1.0,3700.0,1.44939925276
401,1_4_2,4,2.0,1473.20930767,1_I,test,04,3,58.0,00001,kill,0.0,3600.0,1.299849377
402,1_4_2,4,2.0,1476.08442811,1_I,test,04,3,59.0,00100,kill,1.0,3700.0,0.743403931963
403,1_4_2,4,2.0,1479.33455917,1_I,test,04,3,60.0,01111,ignore,1.0,3800.0,1.10684995954
404,1_4_2,4,2.0,1482.22534662,1_I,test,04,3,61.0,01001,ignore,1.0,3900.0,0.804501283521
405,1_4_2,4,2.0,1486.00677947,1_I,test,04,3,62.0,10000,kill,1.0,4000.0,1.64187935135
406,1_4_2,4,2.0,1489.05380636,1_I,test,04,3,63.0,11110,ignore,1.0,4100.0,0.935723103285
407,1_4_2,4,2.0,1492.02268623,1_I,test,04,3,64.0,00110,kill,1.0,4200.0,0.864026309966
408,1_4_2,4,2.0,1495.08532101,1_I,test,04,3,65.0,10101,kill,0.0,4100.0,0.939940875651
409,1_4_2,4,2.0,1498.10113663,1_I,test,04,3,66.0,01011,ignore,1.0,4200.0,0.94336632753
410,1_4_2,4,2.0,1501.03877485,1_I,test,04,3,67.0,10001,ignore,1.0,4300.0,0.791936230104
411,1_4_2,4,2.0,1504.07018276,1_I,test,04,3,68.0,11011,ignore,1.0,4400.0,0.915546436343
412,1_4_2,4,2.0,1507.58596698,1_I,test,04,3,69.0,10100,kill,1.0,4500.0,1.43650741846
413,1_4_2,4,2.0,1511.25798858,1_I,test,04,3,70.0,00101,ignore,1.0,4600.0,1.55031584029
414,1_4_2,4,2.0,1514.21129176,1_I,test,04,3,71.0,11111,ignore,1.0,4700.0,0.847342421617
415,1_4_2,4,2.0,1518.13335452,1_I,test,04,3,72.0,01101,ignore,1.0,4800.0,1.78117380843
416,1_4_2,4,2.0,1522.78979861,1_I,test,04,3,73.0,00010,kill,1.0,4900.0,2.52521405995
417,1_4_2,4,2.0,1525.64933989,1_I,test,04,3,74.0,01110,ignore,1.0,5000.0,0.801766340992
418,1_4_2,4,2.0,1529.75889154,1_I,test,04,3,75.0,00001,ignore,1.0,5100.0,1.93598789433
419,1_4_2,4,2.0,1532.68087384,1_I,test,04,4,0.0,11000,ignore,0.0,5000.0,0.78444408044
420,1_4_2,4,2.0,1536.08730469,1_I,test,04,4,1.0,01100,ignore,1.0,5100.0,1.30589236019
421,1_4_2,4,2.0,1541.57195112,1_I,test,04,4,2.0,10100,kill,0.0,5000.0,3.27628913211
422,1_4_2,4,2.0,1544.91586911,1_I,test,04,4,3.0,01111,ignore,1.0,5100.0,1.23519766754
423,1_4_2,4,2.0,1548.58792109,1_I,test,04,4,4.0,10001,ignore,0.0,5000.0,1.50618810509
424,1_4_2,4,2.0,1551.90058143,1_I,test,04,4,5.0,00000,ignore,1.0,5100.0,1.1686070308
425,1_4_2,4,2.0,1554.74443764,1_I,test,04,4,6.0,10000,ignore,0.0,5000.0,0.719114588017
426,1_4_2,4,2.0,1557.91648367,1_I,test,04,4,7.0,01101,ignore,1.0,5100.0,1.03733225282
427,1_4_2,4,2.0,1561.13540593,1_I,test,04,4,8.0,01001,ignore,1.0,5200.0,1.1368099371
428,1_4_2,4,2.0,1564.97933604,1_I,test,04,4,9.0,00110,kill,0.0,5100.0,1.73014303232
429,1_4_2,4,2.0,1568.18260319,1_I,test,04,4,10.0,10010,ignore,0.0,5000.0,1.06290778334
430,1_4_2,4,2.0,1570.99526537,1_I,test,04,4,11.0,11001,ignore,0.0,4900.0,0.74779741063
431,1_4_2,4,2.0,1574.66728451,1_I,test,04,4,12.0,01010,kill,0.0,4800.0,1.56762209022
432,1_4_2,4,2.0,1577.68311737,1_I,test,04,4,13.0,11101,ignore,0.0,4700.0,0.886281894491
433,1_4_2,4,2.0,1580.65194757,1_I,test,04,4,14.0,00101,ignore,1.0,4800.0,0.82781767433
434,1_4_2,4,2.0,1584.2458669,1_I,test,04,4,15.0,00111,ignore,1.0,4900.0,1.45001915117
435,1_4_2,4,2.0,1586.85535594,1_I,test,04,4,16.0,10110,ignore,1.0,5000.0,0.549193454692
436,1_4_2,4,2.0,1590.15240182,1_I,test,04,4,17.0,11111,ignore,0.0,4900.0,1.16824330233
437,1_4_2,4,2.0,1593.73072147,1_I,test,04,4,18.0,10111,ignore,1.0,5000.0,1.46462453246
438,1_4_2,4,2.0,1598.76215935,1_I,test,04,4,19.0,11100,ignore,0.0,4900.0,2.94726922434
439,1_4_2,4,2.0,1601.8248163,1_I,test,04,4,20.0,01011,ignore,1.0,5000.0,0.935278500652
440,1_4_2,4,2.0,1604.71564767,1_I,test,04,4,21.0,00011,ignore,1.0,5100.0,0.798724733497
441,1_4_2,4,2.0,1607.76263638,1_I,test,04,4,22.0,11010,ignore,0.0,5000.0,0.917404078933
442,1_4_2,4,2.0,1611.82532987,1_I,test,04,4,23.0,00100,kill,0.0,4900.0,1.91826536824
443,1_4_2,4,2.0,1616.04428907,1_I,test,04,4,24.0,10101,ignore,1.0,5000.0,2.1102979905
444,1_4_2,4,2.0,1621.35700524,1_I,test,04,4,25.0,11110,kill,1.0,5100.0,3.20466377079
445,1_4_2,4,2.0,1626.12288439,1_I,test,04,4,26.0,10011,kill,1.0,5200.0,2.68664874298
446,1_4_2,4,2.0,1629.24802135,1_I,test,04,4,27.0,01000,ignore,1.0,5300.0,0.99822528422
447,1_4_2,4,2.0,1633.65450065,1_I,test,04,4,28.0,11011,kill,1.0,5400.0,2.28083081166
448,1_4_2,4,2.0,1636.95151204,1_I,test,04,4,29.0,00011,kill,0.0,5300.0,1.18535373004
449,1_4_2,4,2.0,1640.17043347,1_I,test,04,4,30.0,10110,ignore,1.0,5400.0,1.07318537056
450,1_4_2,4,2.0,1643.27996254,1_I,test,04,4,31.0,11111,ignore,0.0,5300.0,1.06186791402
451,1_4_2,4,2.0,1650.03030482,1_I,test,04,4,32.0,01000,ignore,1.0,5400.0,4.62290430205
452,1_4_2,4,2.0,1653.42105388,1_I,test,04,4,33.0,01011,kill,0.0,5300.0,1.23468573819
453,1_4_2,4,2.0,1657.54626515,1_I,test,04,4,34.0,01111,ignore,1.0,5400.0,2.07787935627
454,1_4_2,4,2.0,1661.03078966,1_I,test,04,4,35.0,00001,ignore,1.0,5500.0,1.38974942557
455,1_4_2,4,2.0,1665.31225063,1_I,test,04,4,36.0,10101,ignore,1.0,5600.0,1.97279343877
456,1_4_2,4,2.0,1668.87490081,1_I,test,04,4,37.0,00010,ignore,1.0,5700.0,1.34862347658
457,1_4_2,4,2.0,1673.31264843,1_I,test,04,4,38.0,11001,ignore,0.0,5600.0,2.3323903488
458,1_4_2,4,2.0,1678.23476784,1_I,test,04,4,39.0,11110,kill,1.0,5700.0,2.87004548248
459,1_4_2,4,2.0,1681.46932098,1_I,test,04,4,40.0,10111,ignore,1.0,5800.0,1.05431746927
460,1_4_2,4,2.0,1685.11010627,1_I,test,04,4,41.0,10000,kill,1.0,5900.0,1.50937175554
461,1_4_2,4,2.0,1688.28211782,1_I,test,04,4,42.0,01001,ignore,1.0,6000.0,1.09010941823
462,1_4_2,4,2.0,1693.14169728,1_I,test,04,4,43.0,11011,kill,1.0,6100.0,2.7509728505
463,1_4_2,4,2.0,1697.39192769,1_I,test,04,4,44.0,01110,kill,0.0,6000.0,2.17848804725
464,1_4_2,4,2.0,1705.18922871,1_I,test,04,4,45.0,11101,kill,1.0,6100.0,5.61580051259
465,1_4_2,4,2.0,1708.01745363,1_I,test,04,4,46.0,10010,ignore,0.0,6000.0,0.707453108378
466,1_4_2,4,2.0,1712.15826951,1_I,test,04,4,47.0,10100,kill,0.0,5900.0,2.02731329871
467,1_4_2,4,2.0,1715.78353517,1_I,test,04,4,48.0,11100,ignore,0.0,5800.0,1.52940391636
468,1_4_2,4,2.0,1719.00233139,1_I,test,04,4,49.0,00000,ignore,1.0,5900.0,1.12668506657
469,1_4_2,4,2.0,1721.94001436,1_I,test,04,4,50.0,00111,ignore,1.0,6000.0,0.8099502316
470,1_4_2,4,2.0,1725.29949673,1_I,test,04,4,51.0,11010,kill,1.0,6100.0,1.14607598148
471,1_4_2,4,2.0,1728.40905865,1_I,test,04,4,52.0,11000,ignore,0.0,6000.0,1.02685679074
472,1_4_2,4,2.0,1737.86262107,1_I,test,04,4,53.0,00110,ignore,1.0,6100.0,7.36437382255
473,1_4_2,4,2.0,1742.01911093,1_I,test,04,4,54.0,01101,kill,0.0,6000.0,2.00484998664
474,1_4_2,4,2.0,1745.12861619,1_I,test,04,4,55.0,00101,ignore,1.0,6100.0,0.979441541323
475,1_4_2,4,2.0,1748.26938075,1_I,test,04,4,56.0,10001,ignore,0.0,6000.0,1.01994348661
476,1_4_2,4,2.0,1751.00387211,1_I,test,04,4,57.0,01010,ignore,1.0,6100.0,0.684114549018
477,1_4_2,4,2.0,1753.81653675,1_I,test,04,4,58.0,01100,kill,0.0,6000.0,0.742056576612
478,1_4_2,4,2.0,1756.53538696,1_I,test,04,4,59.0,10011,ignore,0.0,5900.0,0.604121380216
479,1_4_2,4,2.0,1759.33245111,1_I,test,04,4,60.0,00100,ignore,1.0,6000.0,0.697529807465
480,1_4_2,4,2.0,1761.70753562,1_I,test,04,4,61.0,01101,ignore,1.0,6100.0,0.241746832668
481,1_4_2,4,2.0,1763.9732327,1_I,test,04,4,62.0,00011,ignore,1.0,6200.0,0.191699683441
482,1_4_2,4,2.0,1766.16085953,1_I,test,04,4,63.0,01111,ignore,1.0,6300.0,0.0322322541761
483,1_4_2,4,2.0,1768.31722254,1_I,test,04,4,64.0,11101,ignore,0.0,6200.0,0.00096433202998
484,1_4_2,4,2.0,1770.53607829,1_I,test,04,4,65.0,01000,ignore,1.0,6300.0,0.124352442213
485,1_4_2,4,2.0,1772.69246019,1_I,test,04,4,66.0,00100,ignore,1.0,6400.0,0.000927384444367
486,1_4_2,4,2.0,1774.78629967,1_I,test,04,4,67.0,01010,ignore,1.0,6500.0,0.000921226514038
487,1_4_2,4,2.0,1776.94263764,1_I,test,04,4,68.0,11100,ignore,0.0,6400.0,0.00093477396149
488,1_4_2,4,2.0,1779.53649005,1_I,test,04,4,69.0,11111,ignore,0.0,6300.0,0.462629362741
489,1_4_2,4,2.0,1781.84911591,1_I,test,04,4,70.0,10000,ignore,0.0,6200.0,0.200116754375
490,1_4_2,4,2.0,1784.17734226,1_I,test,04,4,71.0,00001,ignore,1.0,6300.0,0.188750034384
491,1_4_2,4,2.0,1786.33373853,1_I,test,04,4,72.0,10010,ignore,0.0,6200.0,0.0606950333822
492,1_4_2,4,2.0,1789.3494548,1_I,test,04,4,73.0,01100,ignore,1.0,6300.0,0.908789954196
493,1_4_2,4,2.0,1792.52151314,1_I,test,04,4,74.0,11000,ignore,0.0,6200.0,1.03952119211
494,1_4_2,4,2.0,1795.50603416,1_I,test,04,4,75.0,11010,kill,1.0,6300.0,0.932600211094
495,1_4_2,4,2.0,1798.22489052,1_I,test,04,4,76.0,10100,ignore,1.0,6400.0,0.610772356471
496,1_4_2,4,2.0,1800.61565519,1_I,test,04,4,77.0,01001,ignore,1.0,6500.0,0.238940047613
497,1_4_2,4,2.0,1802.78761624,1_I,test,04,4,78.0,11011,ignore,0.0,6400.0,0.00644448029925
498,1_4_2,4,2.0,1805.00647855,1_I,test,04,4,79.0,10111,ignore,1.0,6500.0,0.0592672143939
499,1_4_2,4,2.0,1807.74094856,1_I,test,04,4,80.0,00000,ignore,1.0,6600.0,0.631524584718
500,1_4_2,4,2.0,1811.33489006,1_I,test,04,4,81.0,00111,kill,0.0,6500.0,1.42971029397
501,1_4_2,4,2.0,1813.52252674,1_I,test,04,4,82.0,11001,ignore,0.0,6400.0,0.0831813350633
502,1_4_2,4,2.0,1815.78824065,1_I,test,04,4,83.0,10001,ignore,0.0,6300.0,0.139934471401
503,1_4_2,4,2.0,1818.38214561,1_I,test,04,4,84.0,00101,ignore,1.0,6400.0,0.4250869192
504,1_4_2,4,2.0,1821.83856409,1_I,test,04,4,85.0,10011,kill,1.0,6500.0,1.35996884908
505,1_4_2,4,2.0,1824.70121841,1_I,test,04,4,86.0,10101,ignore,1.0,6600.0,0.723745352301
506,1_4_2,4,2.0,1827.38883559,1_I,test,04,4,87.0,00110,ignore,1.0,6700.0,0.545091861968
507,1_4_2,4,2.0,1830.48273419,1_I,test,04,4,88.0,11110,kill,1.0,6800.0,1.00277763751
508,1_4_2,4,2.0,1833.62353734,1_I,test,04,4,89.0,01011,ignore,1.0,6900.0,1.00152757747
509,1_4_2,4,2.0,1836.45177375,1_I,test,04,4,90.0,01110,ignore,1.0,7000.0,0.746381907506
510,1_4_2,4,2.0,1839.35819824,1_I,test,04,4,91.0,00010,ignore,1.0,7100.0,0.777023773309
511,1_4_2,4,2.0,1842.18642357,1_I,test,04,4,92.0,10110,ignore,1.0,7200.0,0.687926718976
512,1_4_2,4,2.0,1845.63975445,1_I,test,04,4,93.0,10101,kill,0.0,7100.0,1.37691301265
513,1_4_2,4,2.0,1848.26487069,1_I,test,04,4,94.0,01010,ignore,1.0,7200.0,0.549249286603
514,1_4_2,4,2.0,1851.12435162,1_I,test,04,4,95.0,00001,kill,0.0,7100.0,0.733426030725
515,1_4_2,4,2.0,1854.03074245,1_I,test,04,4,96.0,00110,ignore,1.0,7200.0,0.768677313321
516,1_4_2,4,2.0,1856.85902935,1_I,test,04,4,97.0,00011,ignore,1.0,7300.0,0.697149657844
517,1_4_2,4,2.0,1859.42167091,1_I,test,04,4,98.0,11101,kill,1.0,7400.0,0.472995624175
518,1_4_2,4,2.0,1862.04676949,1_I,test,04,4,99.0,10110,ignore,1.0,7500.0,0.526145960212
519,1_4_2,4,2.0,1864.56252907,1_I,test,04,4,100.0,10000,kill,1.0,7600.0,0.373182948439
520,1_4_2,4,2.0,1867.000117,1_I,test,04,4,101.0,11111,ignore,0.0,7500.0,0.300054230847
521,1_4_2,4,2.0,1869.85965336,1_I,test,04,4,102.0,00100,ignore,1.0,7600.0,0.708655957613
522,1_4_2,4,2.0,1873.28167568,1_I,test,04,4,103.0,01101,kill,0.0,7500.0,1.34014893162
523,1_4_2,4,2.0,1876.18807595,1_I,test,04,4,104.0,11100,kill,1.0,7600.0,0.760163768129
524,1_4_2,4,2.0,1880.0320311,1_I,test,04,4,105.0,10100,ignore,1.0,7700.0,1.70247503677
525,1_4_2,4,2.0,1883.21962919,1_I,test,04,4,106.0,01000,ignore,1.0,7800.0,1.08543308525
526,1_4_2,4,2.0,1886.48546626,1_I,test,04,4,107.0,01110,kill,0.0,7700.0,1.13836707264
527,1_4_2,4,2.0,1889.1574308,1_I,test,04,4,108.0,11011,ignore,0.0,7600.0,0.621406282648
528,1_4_2,4,2.0,1891.7044427,1_I,test,04,4,109.0,10111,ignore,1.0,7700.0,0.387979225605
529,1_4_2,4,2.0,1894.42332986,1_I,test,04,4,110.0,00000,kill,0.0,7600.0,0.593396727181
530,1_4_2,4,2.0,1897.64224554,1_I,test,04,4,111.0,01001,ignore,1.0,7700.0,1.11439958323
531,1_4_2,4,2.0,1900.12675157,1_I,test,04,4,112.0,10001,ignore,0.0,7600.0,0.345586795425
532,1_4_2,4,2.0,1902.22058531,1_I,test,04,4,113.0,10011,ignore,0.0,7500.0,0.00106942739149
533,1_4_2,4,2.0,1904.36129732,1_I,test,04,4,114.0,01100,ignore,1.0,7600.0,0.00376660126858
534,1_4_2,4,2.0,1907.33019484,1_I,test,04,4,115.0,01111,ignore,1.0,7700.0,0.844352130214
535,1_4_2,4,2.0,1910.29920238,1_I,test,04,4,116.0,11000,kill,1.0,7800.0,0.887451901428
536,1_4_2,4,2.0,1913.29004431,1_I,test,04,4,117.0,11110,ignore,0.0,7700.0,0.909331031089
537,1_4_2,4,2.0,1916.04336128,1_I,test,04,4,118.0,00101,ignore,1.0,7800.0,0.619797009953
538,1_4_2,4,2.0,1919.16849044,1_I,test,04,4,119.0,11001,ignore,0.0,7700.0,1.00069748834
539,1_4_2,4,2.0,1921.96548849,1_I,test,04,4,120.0,11010,ignore,0.0,7600.0,0.679314646884
540,1_4_2,4,2.0,1924.60626927,1_I,test,04,4,121.0,10010,ignore,0.0,7500.0,0.559288767152
541,1_4_2,4,2.0,1927.02825628,1_I,test,04,4,122.0,01011,ignore,1.0,7600.0,0.314662075314
542,1_4_2,4,2.0,1929.98155617,1_I,test,04,4,123.0,00111,kill,0.0,7500.0,0.816384038149
543,1_4_2,4,2.0,1932.73167513,1_I,test,04,4,124.0,00010,kill,0.0,7400.0,0.650601855672
544,1_4_2,4,2.0,1935.341181,1_I,test,04,4,125.0,01001,ignore,1.0,7500.0,0.468154669172
545,1_4_2,4,2.0,1937.77880424,1_I,test,04,4,126.0,00101,ignore,1.0,7600.0,0.363767882121
546,1_4_2,4,2.0,1940.18512876,1_I,test,04,4,127.0,11100,ignore,0.0,7500.0,0.26635474692
547,1_4_2,4,2.0,1942.32588142,1_I,test,04,4,128.0,01011,ignore,1.0,7600.0,0.000923689683987
548,1_4_2,4,2.0,1946.49796439,1_I,test,04,4,129.0,11101,kill,1.0,7700.0,2.07056209186
549,1_4_2,4,2.0,1948.68555756,1_I,test,04,4,130.0,10001,ignore,0.0,7600.0,0.072173827728
550,1_4_2,4,2.0,1950.77938308,1_I,test,04,4,131.0,11010,kill,1.0,7700.0,0.000933542374696
551,1_4_2,4,2.0,1953.04511711,1_I,test,04,5,0.0,00110,ignore,1.0,7800.0,0.162766027759
552,1_4_2,4,2.0,1955.2796296,1_I,test,04,5,1.0,01000,ignore,0.0,7700.0,0.110339864437
553,1_4_2,4,2.0,1957.46725356,1_I,test,04,5,2.0,01110,ignore,1.0,7800.0,0.0946457608989
554,1_4_2,4,2.0,1959.56106759,1_I,test,04,5,3.0,11000,kill,1.0,7900.0,0.0302535056071
555,1_4_2,4,2.0,1961.71744127,1_I,test,04,5,4.0,10111,ignore,1.0,8000.0,0.0737925425819
556,1_4_2,4,2.0,1963.85812414,1_I,test,04,5,5.0,10110,kill,0.0,7900.0,0.0248579262625
557,1_4_2,4,2.0,1966.01452615,1_I,test,04,5,6.0,00010,kill,0.0,7800.0,0.00144752436609
558,1_4_2,4,2.0,1968.53028532,1_I,test,04,5,7.0,00000,kill,1.0,7900.0,0.442099230546
559,1_4_2,4,2.0,1970.70225048,1_I,test,04,5,8.0,00001,ignore,0.0,7800.0,0.0495701148211
560,1_4_2,4,2.0,1973.37425114,1_I,test,04,5,9.0,11011,ignore,1.0,7900.0,0.546142405034
561,1_4_2,4,2.0,1976.35872166,1_I,test,04,5,10.0,11110,kill,0.0,7800.0,0.895659192171
562,1_4_2,4,2.0,1979.20266737,1_I,test,04,5,11.0,01111,ignore,1.0,7900.0,0.713744461453
563,1_4_2,4,2.0,1982.04656792,1_I,test,04,5,12.0,01101,ignore,1.0,8000.0,0.753788667193
564,1_4_2,4,2.0,1985.04670298,1_I,test,04,5,13.0,10011,ignore,1.0,8100.0,0.852628389788
565,1_4_2,4,2.0,1987.79681742,1_I,test,04,5,14.0,00111,ignore,1.0,8200.0,0.608339973634
566,1_4_2,4,2.0,1990.90634033,1_I,test,04,5,15.0,11111,ignore,1.0,8300.0,1.00430890975
567,1_4_2,4,2.0,1993.53148242,1_I,test,04,5,16.0,00011,ignore,1.0,8400.0,0.486800063878
568,1_4_2,4,2.0,1996.14098501,1_I,test,04,5,17.0,10101,ignore,0.0,8300.0,0.497966856372
569,1_4_2,4,2.0,1999.23485159,1_I,test,04,5,18.0,11001,kill,1.0,8400.0,0.940770554251
570,1_4_2,4,2.0,2001.95375845,1_I,test,04,5,19.0,10100,ignore,0.0,8300.0,0.596221164971
571,1_4_2,4,2.0,2004.06324442,1_I,test,04,5,20.0,01010,ignore,1.0,8400.0,0.0108178430601
572,1_4_2,4,2.0,2007.15712618,1_I,test,04,5,21.0,10000,ignore,0.0,8300.0,0.949300520591
573,1_4_2,4,2.0,2009.46974957,1_I,test,04,5,22.0,01100,kill,0.0,8200.0,0.214192964111
574,1_4_2,4,2.0,2013.20429676,1_I,test,04,5,23.0,10010,kill,0.0,8100.0,1.59672406269
575,1_4_2,4,2.0,2016.01691707,1_I,test,04,5,24.0,00100,kill,0.0,8000.0,0.666382991301
576,1_4_2,4,2.0,2018.34515451,1_I,test,04,5,25.0,01111,ignore,1.0,8100.0,0.232365429703
577,1_4_2,4,2.0,2020.53277395,1_I,test,04,5,26.0,00001,ignore,0.0,8000.0,0.0642493912892
578,1_4_2,4,2.0,2022.70476168,1_I,test,04,5,27.0,11101,ignore,0.0,7900.0,0.0222904794682
579,1_4_2,4,2.0,2025.00173202,1_I,test,04,5,28.0,00000,ignore,0.0,7800.0,0.147553884977
580,1_4_2,4,2.0,2027.17371278,1_I,test,04,5,29.0,10101,ignore,0.0,7700.0,0.000953658283834
581,1_4_2,4,2.0,2029.2988013,1_I,test,04,5,30.0,11010,ignore,1.0,7800.0,0.0684839953319
582,1_4_2,4,2.0,2031.67389772,1_I,test,04,5,31.0,01000,ignore,0.0,7700.0,0.245506044419
583,1_4_2,4,2.0,2033.98653096,1_I,test,04,5,32.0,11011,ignore,1.0,7800.0,0.209785116938
584,1_4_2,4,2.0,2036.51787175,1_I,test,04,5,33.0,11111,ignore,1.0,7900.0,0.450502343505
585,1_4_2,4,2.0,2039.28365648,1_I,test,04,5,34.0,11100,ignore,0.0,7800.0,0.637877517107
586,1_4_2,4,2.0,2042.65880709,1_I,test,04,5,35.0,00110,ignore,1.0,7900.0,1.30335570304
587,1_4_2,4,2.0,2045.81520623,1_I,test,04,5,36.0,10001,kill,1.0,8000.0,0.94467919847
588,1_4_2,4,2.0,2048.75288263,1_I,test,04,5,37.0,01101,ignore,1.0,8100.0,0.794632172401
589,1_4_2,4,2.0,2051.37798408,1_I,test,04,5,38.0,10011,kill,0.0,8000.0,0.513702423312
590,1_4_2,4,2.0,2053.92496561,1_I,test,04,5,39.0,11110,ignore,1.0,8100.0,0.421724278222
591,1_4_2,4,2.0,2056.05009641,1_I,test,04,5,40.0,01110,ignore,1.0,8200.0,0.090625863395
592,1_4_2,4,2.0,2058.39398444,1_I,test,04,5,41.0,10010,ignore,1.0,8300.0,0.205808324947
593,1_4_2,4,2.0,2060.53465047,1_I,test,04,5,42.0,11000,ignore,0.0,8200.0,0.000989784810372
594,1_4_2,4,2.0,2062.64415368,1_I,test,04,5,43.0,01001,kill,1.0,8300.0,0.000975416307483
595,1_4_2,4,2.0,2065.20680386,1_I,test,04,5,44.0,00011,kill,0.0,8200.0,0.407909985825
596,1_4_2,4,2.0,2067.9256787,1_I,test,04,5,45.0,01100,ignore,1.0,8300.0,0.645495288565
597,1_4_2,4,2.0,2070.72265417,1_I,test,04,5,46.0,11001,ignore,0.0,8200.0,0.663971955961
598,1_4_2,4,2.0,2074.22283829,1_I,test,04,5,47.0,00101,ignore,1.0,8300.0,1.33512405973
599,1_4_2,4,2.0,2077.61361116,1_I,test,04,5,48.0,00010,ignore,1.0,8400.0,1.30121069033
600,1_4_2,4,2.0,2081.12941878,1_I,test,04,5,49.0,01011,ignore,1.0,8500.0,1.40950242684
601,1_4_2,4,2.0,2085.05151109,1_I,test,04,5,50.0,10110,ignore,1.0,8600.0,1.80253567187
602,1_4_2,4,2.0,2087.78598521,1_I,test,04,5,51.0,00111,ignore,1.0,8700.0,0.600813339555
603,1_4_2,4,2.0,2090.92676044,1_I,test,04,5,52.0,10000,kill,1.0,8800.0,0.982523791168
604,1_4_2,4,2.0,2094.17689971,1_I,test,04,5,53.0,10100,kill,1.0,8900.0,1.06367506157
605,1_4_2,4,2.0,2097.0833049,1_I,test,04,5,54.0,01010,ignore,1.0,9000.0,0.773174245234
606,1_4_2,4,2.0,2100.0209735,1_I,test,04,5,55.0,00100,kill,0.0,8900.0,0.764277266193
607,1_4_2,4,2.0,2102.55233728,1_I,test,04,5,56.0,10111,ignore,1.0,9000.0,0.425943692695
608,1_4_2,4,2.0,2105.34934354,1_I,test,04,5,57.0,01110,ignore,1.0,9100.0,0.695844997481
609,1_4_2,4,2.0,2107.97447373,1_I,test,04,5,58.0,10011,ignore,1.0,9200.0,0.53515952942
610,1_4_2,4,2.0,2110.7402289,1_I,test,04,5,59.0,00010,ignore,1.0,9300.0,0.600785423601
611,1_4_2,4,2.0,2113.86539583,1_I,test,04,5,60.0,01010,kill,0.0,9200.0,0.991628908287
612,1_4_2,4,2.0,2116.72490633,1_I,test,04,5,61.0,00000,kill,1.0,9300.0,0.736945083157
613,1_4_2,4,2.0,2119.67814095,1_I,test,04,5,62.0,10110,ignore,1.0,9400.0,0.845383788957
614,1_4_2,4,2.0,2122.38140214,1_I,test,04,5,63.0,00111,ignore,1.0,9500.0,0.621393966787
615,1_4_2,4,2.0,2125.7253107,1_I,test,04,5,64.0,10100,kill,1.0,9600.0,1.20652962396
616,1_4_2,4,2.0,2128.78793604,1_I,test,04,5,65.0,11100,ignore,0.0,9500.0,0.88539309975
617,1_4_2,4,2.0,2131.4599679,1_I,test,04,5,66.0,11101,ignore,0.0,9400.0,0.581185960084
618,1_4_2,4,2.0,2134.61637854,1_I,test,04,5,67.0,00001,kill,1.0,9500.0,1.05552360274
619,1_4_2,4,2.0,2137.28836196,1_I,test,04,5,68.0,11001,kill,1.0,9600.0,0.531104326437
620,1_4_2,4,2.0,2140.55415469,1_I,test,04,5,69.0,11111,ignore,1.0,9700.0,1.06931490552
621,1_4_2,4,2.0,2143.30428883,1_I,test,04,5,70.0,00100,kill,0.0,9600.0,0.59685912665
622,1_4_2,4,2.0,2146.3825352,1_I,test,04,5,71.0,11110,ignore,1.0,9700.0,0.991224947997
623,1_4_2,4,2.0,2149.14833758,1_I,test,04,5,72.0,01011,ignore,1.0,9800.0,0.660947180138
624,1_4_2,4,2.0,2152.27346593,1_I,test,04,5,73.0,00101,kill,0.0,9700.0,0.979888196602
625,1_4_2,4,2.0,2155.14859499,1_I,test,04,5,74.0,10010,ignore,1.0,9800.0,0.726154745527
626,1_4_2,4,2.0,2157.9456111,1_I,test,04,5,75.0,11000,kill,1.0,9900.0,0.661059254489
627,1_4_2,4,2.0,2160.66449251,1_I,test,04,5,76.0,01100,kill,0.0,9800.0,0.641890435625
628,1_4_2,4,2.0,2163.66464769,1_I,test,04,5,77.0,11011,ignore,1.0,9900.0,0.842600404041
629,1_4_2,4,2.0,2166.80539665,1_I,test,04,5,78.0,10101,kill,1.0,10000.0,0.967873251713
630,1_4_2,4,2.0,2169.8680577,1_I,test,04,5,79.0,10000,ignore,0.0,9900.0,0.953433313505
631,1_4_2,4,2.0,2172.68070593,1_I,test,04,5,80.0,01001,kill,1.0,10000.0,0.673198179058
632,1_4_2,4,2.0,2175.36830546,1_I,test,04,5,81.0,01111,kill,0.0,9900.0,0.60061176994
633,1_4_2,4,2.0,2178.25911713,1_I,test,04,5,82.0,10111,ignore,1.0,10000.0,0.713540839191
634,1_4_2,4,2.0,2181.10295322,1_I,test,04,5,83.0,00110,ignore,1.0,10100.0,0.688547848975
635,1_4_2,4,2.0,2183.96250025,1_I,test,04,5,84.0,00011,ignore,1.0,10200.0,0.737635181988
