,unique_id,pair_id,sbj_id,wall_time,condition,block,rule_id,rule_num,trial,stimulus,choice,correct,points,reaction_time
0,1_34_1,34,1.0,23.9299269516,1_I,training,05,1_B,1.0,00111,ignore,1.0,100.0,3.53657552506
1,1_34_1,34,1.0,27.9457544295,1_I,training,05,1_B,2.0,01001,ignore,0.0,0.0,1.89598939297
2,1_34_1,34,1.0,31.7271842362,1_I,training,05,1_B,3.0,11000,kill,1.0,100.0,1.67674856283
3,1_34_1,34,1.0,36.0555037762,1_I,training,05,1_B,4.0,01101,ignore,0.0,0.0,2.20226932467
4,1_34_1,34,1.0,39.5087747263,1_I,training,05,1_B,5.0,10001,kill,1.0,100.0,1.33807183736
5,1_34_1,34,1.0,42.7276743046,1_I,training,05,1_B,6.0,01110,ignore,1.0,200.0,1.10904214717
6,1_34_1,34,1.0,45.6496876776,1_I,training,05,1_B,7.0,01100,kill,1.0,300.0,0.817937017228
7,1_34_1,34,1.0,48.6654455581,1_I,training,05,1_B,8.0,01111,ignore,1.0,400.0,0.898663601387
8,1_34_1,34,1.0,51.6968535555,1_I,training,05,1_B,9.0,01000,kill,1.0,500.0,0.919485094608
9,1_34_1,34,1.0,54.7594973207,1_I,training,05,1_B,10.0,00110,ignore,1.0,600.0,0.955718405661
10,1_34_1,34,1.0,57.6971290586,1_I,training,05,1_B,11.0,11010,ignore,1.0,700.0,0.839102648807
11,1_34_1,34,1.0,60.6347713805,1_I,training,05,1_B,12.0,10010,ignore,1.0,800.0,0.831569771246
12,1_34_1,34,1.0,64.7131059946,1_I,training,05,1_B,13.0,11111,ignore,1.0,900.0,1.97564154702
13,1_34_1,34,1.0,68.2445476681,1_I,training,05,1_B,14.0,01010,ignore,1.0,1000.0,1.46678792225
14,1_34_1,34,1.0,70.8071324198,1_I,training,05,1_B,15.0,01011,ignore,1.0,1100.0,0.49006649279
15,1_34_1,34,1.0,74.7917074522,1_I,training,05,1_B,16.0,00101,kill,1.0,1200.0,1.91315397514
16,1_34_1,34,1.0,78.1824751149,1_I,training,05,1_B,17.0,11110,ignore,1.0,1300.0,1.34379838945
17,1_34_1,34,1.0,81.026375495,1_I,training,05,1_B,18.0,00000,kill,0.0,1200.0,0.76501989139
18,1_34_1,34,1.0,84.9172063406,1_I,training,05,1_B,19.0,10011,kill,0.0,1100.0,1.81663711717
19,1_34_1,34,1.0,88.4018195394,1_I,training,05,1_B,20.0,00011,ignore,1.0,1200.0,1.44277681489
20,1_34_1,34,1.0,94.0738819833,1_I,training,05,1_B,21.0,11011,ignore,1.0,1300.0,3.64510707738
21,1_34_1,34,1.0,98.9335062471,1_I,training,05,1_B,22.0,11001,kill,1.0,1400.0,2.81300041181
22,1_34_1,34,1.0,102.855566767,1_I,training,05,1_B,23.0,11100,kill,1.0,1500.0,1.8877720874
23,1_34_1,34,1.0,111.590336479,1_I,training,05,1_B,24.0,10110,kill,0.0,1400.0,6.67049730398
24,1_34_1,34,1.0,116.074926907,1_I,training,05,1_B,25.0,00100,kill,0.0,1300.0,2.41798538262
25,1_34_1,34,1.0,119.293885498,1_I,training,05,1_B,26.0,10100,kill,0.0,1200.0,1.17160733461
26,1_34_1,34,1.0,122.575218446,1_I,training,05,1_B,27.0,00010,ignore,1.0,1300.0,1.21616507352
27,1_34_1,34,1.0,127.044174151,1_I,training,05,1_B,28.0,10000,kill,0.0,1200.0,2.41879361064
28,1_34_1,34,1.0,130.341245095,1_I,training,05,1_B,29.0,00001,ignore,0.0,1100.0,1.21902017106
29,1_34_1,34,1.0,140.794922083,1_I,training,05,1_B,30.0,11101,kill,1.0,1200.0,8.38876024237
30,1_34_1,34,1.0,144.404387267,1_I,training,05,1_B,31.0,10111,ignore,1.0,1300.0,1.56350234707
31,1_34_1,34,1.0,147.998299835,1_I,training,05,1_B,32.0,10101,kill,1.0,1400.0,1.53601361415
32,1_34_1,34,1.0,155.248635955,1_I,training,05,1_B,33.0,11001,ignore,0.0,1300.0,5.20544258181
33,1_34_1,34,1.0,158.655083883,1_I,training,05,1_B,34.0,00100,ignore,1.0,1400.0,1.3407640064
34,1_34_1,34,1.0,161.73331394,1_I,training,05,1_B,35.0,01010,ignore,1.0,1500.0,1.04292171863
35,1_34_1,34,1.0,165.186603813,1_I,training,05,1_B,36.0,01110,ignore,1.0,1600.0,1.42168976103
36,1_34_1,34,1.0,168.655548934,1_I,training,05,1_B,37.0,01111,ignore,1.0,1700.0,1.41597924522
37,1_34_1,34,1.0,172.046349311,1_I,training,05,1_B,38.0,01100,ignore,0.0,1600.0,1.33837203634
38,1_34_1,34,1.0,178.655990253,1_I,training,05,1_B,39.0,11000,kill,1.0,1700.0,4.56891715406
39,1_34_1,34,1.0,182.234307868,1_I,training,05,1_B,40.0,01011,ignore,1.0,1800.0,1.53094454914
40,1_34_1,34,1.0,185.359471919,1_I,training,05,1_B,41.0,10010,ignore,1.0,1900.0,1.09788250674
41,1_34_1,34,1.0,189.125302284,1_I,training,05,1_B,42.0,11100,kill,1.0,2000.0,1.70459714965
42,1_34_1,34,1.0,195.234977864,1_I,training,05,1_B,43.0,11011,ignore,1.0,2100.0,4.07188129824
43,1_34_1,34,1.0,197.985093645,1_I,training,05,1_B,44.0,01001,ignore,0.0,2000.0,0.727089622224
44,1_34_1,34,1.0,201.047752164,1_I,training,05,1_B,45.0,11111,ignore,1.0,2100.0,1.03868397386
45,1_34_1,34,1.0,209.09503639,1_I,training,05,1_B,46.0,10110,kill,0.0,2000.0,6.02603007378
46,1_34_1,34,1.0,212.376437972,1_I,training,05,1_B,47.0,00001,ignore,0.0,1900.0,1.23278057379
47,1_34_1,34,1.0,215.517201786,1_I,training,05,1_B,48.0,11101,ignore,0.0,1800.0,1.10727719527
48,1_34_1,34,1.0,218.845501762,1_I,training,05,1_B,49.0,00111,ignore,1.0,1900.0,1.31617206533
49,1_34_1,34,1.0,222.830016177,1_I,training,05,1_B,50.0,00101,ignore,0.0,1800.0,1.95567157975
50,1_34_1,34,1.0,225.76766331,1_I,training,05,1_B,51.0,10001,ignore,0.0,1700.0,0.904663090792
51,1_34_1,34,1.0,229.220937147,1_I,training,05,1_B,52.0,01101,kill,1.0,1800.0,1.42500734461
52,1_34_1,34,1.0,232.47111996,1_I,training,05,1_B,53.0,11010,ignore,1.0,1900.0,1.24459032461
53,1_34_1,34,1.0,236.518189941,1_I,training,05,1_B,54.0,00011,ignore,1.0,2000.0,2.02383791564
54,1_34_1,34,1.0,240.971551336,1_I,training,05,1_B,55.0,10100,kill,0.0,1900.0,2.4017871461
55,1_34_1,34,1.0,244.831123321,1_I,training,05,1_B,56.0,01000,kill,1.0,2000.0,1.83679053937
56,1_34_1,34,1.0,248.03437599,1_I,training,05,1_B,57.0,10111,ignore,1.0,2100.0,1.1837487155
57,1_34_1,34,1.0,254.456563838,1_I,training,05,1_B,58.0,10011,ignore,1.0,2200.0,4.38822334804
58,1_34_1,34,1.0,257.941133739,1_I,training,05,1_B,59.0,00000,kill,0.0,2100.0,1.47093778825
59,1_34_1,34,1.0,264.519556552,1_I,training,05,1_B,60.0,11110,ignore,1.0,2200.0,4.55288441185
60,1_34_1,34,1.0,267.347787251,1_I,training,05,1_B,61.0,00010,ignore,1.0,2300.0,0.796080543129
61,1_34_1,34,1.0,271.254245763,1_I,training,05,1_B,62.0,00110,ignore,1.0,2400.0,1.8969493241
62,1_34_1,34,1.0,275.895078854,1_I,training,05,1_B,63.0,10101,ignore,0.0,2300.0,2.60129630794
63,1_34_1,34,1.0,279.535915151,1_I,training,05,1_B,64.0,10000,kill,0.0,2200.0,1.62869523774
64,1_34_1,34,1.0,282.20789549,1_I,training,05,1_B,65.0,11001,ignore,0.0,2100.0,0.656238814701
65,1_34_1,34,1.0,285.708057777,1_I,training,05,1_B,66.0,00011,kill,0.0,2000.0,1.47463478998
66,1_34_1,34,1.0,289.036344282,1_I,training,05,1_B,67.0,00100,kill,0.0,1900.0,1.30793744059
67,1_34_1,34,1.0,292.270869602,1_I,training,05,1_B,68.0,11111,ignore,1.0,2000.0,1.22029345092
68,1_34_1,34,1.0,297.4273929,1_I,training,05,1_B,69.0,11101,ignore,0.0,1900.0,3.12746653872
69,1_34_1,34,1.0,301.115043882,1_I,training,05,1_B,70.0,10000,kill,0.0,1800.0,1.64465934472
70,1_34_1,34,1.0,304.646438088,1_I,training,05,1_B,71.0,00001,ignore,0.0,1700.0,1.48626204805
71,1_34_1,34,1.0,307.474735498,1_I,training,05,1_B,72.0,01010,kill,0.0,1600.0,0.816117542012
72,1_34_1,34,1.0,310.256071653,1_I,training,05,1_B,73.0,10011,ignore,1.0,1700.0,0.747528810763
73,1_34_1,34,1.0,312.912466019,1_I,training,05,1_B,74.0,11100,ignore,0.0,1600.0,0.634786454611
74,1_34_1,34,1.0,315.521980274,1_I,training,05,1_B,75.0,00111,kill,0.0,1500.0,0.581783053639
75,1_34_1,34,1.0,318.30336999,1_I,training,05,1_B,76.0,10101,ignore,0.0,1400.0,0.738939463721
76,1_34_1,34,1.0,322.037910705,1_I,training,05,1_B,77.0,01101,ignore,0.0,1300.0,1.71451205479
77,1_34_1,34,1.0,324.819294006,1_I,training,05,1_B,78.0,10111,ignore,1.0,1400.0,0.761453424898
78,1_34_1,34,1.0,328.19444138,1_I,training,05,1_B,79.0,10010,ignore,1.0,1500.0,1.34390326665
79,1_34_1,34,1.0,331.163405745,1_I,training,05,1_B,80.0,11110,ignore,1.0,1600.0,0.959162355048
80,1_34_1,34,1.0,334.351061216,1_I,training,05,1_B,81.0,01000,kill,1.0,1700.0,1.17401726529
81,1_34_1,34,1.0,338.648146271,1_I,training,05,1_B,82.0,01001,kill,1.0,1800.0,2.30851506704
82,1_34_1,34,1.0,342.570177926,1_I,training,05,1_B,83.0,00000,kill,0.0,1700.0,1.89183567826
83,1_34_1,34,1.0,345.429704368,1_I,training,05,1_B,84.0,10110,ignore,1.0,1800.0,0.835648756933
84,1_34_1,34,1.0,349.820540987,1_I,training,05,1_B,85.0,01110,ignore,1.0,1900.0,2.40065209889
85,1_34_1,34,1.0,353.523823804,1_I,training,05,1_B,86.0,11010,ignore,1.0,2000.0,1.70135108784
86,1_34_1,34,1.0,356.867726108,1_I,training,05,1_B,87.0,01011,ignore,1.0,2100.0,1.35060289961
87,1_34_1,34,1.0,360.852307876,1_I,training,05,1_B,88.0,01111,ignore,1.0,2200.0,1.97333649355
88,1_34_1,34,1.0,365.3993971,1_I,training,05,1_B,89.0,00010,ignore,1.0,2300.0,2.53093749318
89,1_34_1,34,1.0,369.618344146,1_I,training,05,1_B,90.0,10001,kill,1.0,2400.0,2.20092035362
90,1_34_1,34,1.0,373.524793036,1_I,training,05,1_B,91.0,00110,ignore,1.0,2500.0,1.90141510463
91,1_34_1,34,1.0,377.181206325,1_I,training,05,1_B,92.0,01100,kill,1.0,2600.0,1.64522382143
92,1_34_1,34,1.0,380.290725712,1_I,training,05,1_B,93.0,11011,ignore,1.0,2700.0,1.09618458645
93,1_34_1,34,1.0,383.306490328,1_I,training,05,1_B,94.0,10100,kill,0.0,2600.0,0.984965355242
94,1_34_1,34,1.0,387.60358757,1_I,training,05,1_B,95.0,00101,kill,1.0,2700.0,2.28661337066
95,1_34_1,34,1.0,391.838137907,1_I,training,05,1_B,96.0,11000,ignore,0.0,2600.0,2.22285059456
96,1_34_1,34,1.0,397.91652095,1_I,training,05,1_B,97.0,10001,kill,1.0,2700.0,4.05797721054
97,1_34_1,34,1.0,400.979203844,1_I,training,05,1_B,98.0,11010,ignore,1.0,2800.0,1.06725579647
98,1_34_1,34,1.0,404.041855627,1_I,training,05,1_B,99.0,01001,kill,1.0,2900.0,1.03723910592
99,1_34_1,34,1.0,408.635832019,1_I,training,05,1_B,100.0,00000,kill,0.0,2800.0,2.58475746104
100,1_34_1,34,1.0,411.964106337,1_I,training,05,1_B,101.0,11011,ignore,1.0,2900.0,1.30883835824
101,1_34_1,34,1.0,415.292395408,1_I,training,05,1_B,102.0,00111,ignore,1.0,3000.0,1.308645923
102,1_34_1,34,1.0,418.776904371,1_I,training,05,1_B,103.0,00101,kill,1.0,3100.0,1.4693867602
103,1_34_1,34,1.0,424.027173781,1_I,training,05,1_B,104.0,10100,kill,0.0,3000.0,3.24692039467
104,1_34_1,34,1.0,427.355475039,1_I,training,05,1_B,105.0,01000,kill,1.0,3100.0,1.34596392737
105,1_34_1,34,1.0,431.293163866,1_I,training,05,1_B,106.0,00110,ignore,1.0,3200.0,1.92125229158
106,1_34_1,34,1.0,435.277701695,1_I,training,05,1_B,107.0,10101,kill,1.0,3300.0,1.96003569032
107,1_34_1,34,1.0,438.121603678,1_I,training,05,1_B,108.0,00011,ignore,1.0,3400.0,0.846689087511
108,1_34_1,34,1.0,440.887354182,1_I,training,05,1_B,109.0,01011,ignore,1.0,3500.0,0.762928120305
109,1_34_1,34,1.0,443.981232753,1_I,training,05,1_B,110.0,11000,kill,1.0,3600.0,1.08954043898
110,1_34_1,34,1.0,447.872066806,1_I,training,05,1_B,111.0,11001,kill,1.0,3700.0,1.88345736854
111,1_34_1,34,1.0,451.325330059,1_I,training,05,1_B,112.0,00001,kill,1.0,3800.0,1.44408633671
112,1_34_1,34,1.0,454.137962919,1_I,training,05,1_B,113.0,10010,ignore,1.0,3900.0,0.841082807451
113,1_34_1,34,1.0,459.2475859,1_I,training,05,1_B,114.0,11101,kill,1.0,4000.0,3.09254082514
114,1_34_1,34,1.0,462.919636798,1_I,training,05,1_B,115.0,10000,kill,0.0,3900.0,1.65993517498
115,1_34_1,34,1.0,466.607330115,1_I,training,05,1_B,116.0,11100,kill,1.0,4000.0,1.68696462912
116,1_34_1,34,1.0,469.482472998,1_I,training,05,1_B,117.0,10111,ignore,1.0,4100.0,0.864016918907
117,1_34_1,34,1.0,477.57659083,1_I,training,05,1_B,118.0,00100,ignore,1.0,4200.0,6.08293285421
118,1_34_1,34,1.0,480.545480787,1_I,training,05,1_B,119.0,01010,ignore,1.0,4300.0,0.935602187604
119,1_34_1,34,1.0,483.311269778,1_I,training,05,1_B,120.0,10110,ignore,1.0,4400.0,0.751242810939
120,1_34_1,34,1.0,485.968215471,1_I,training,05,1_B,121.0,00010,ignore,1.0,4500.0,0.655035452986
121,1_34_1,34,1.0,488.530856991,1_I,training,05,1_B,122.0,11111,ignore,1.0,4600.0,0.554016893248
122,1_34_1,34,1.0,493.124816705,1_I,training,05,1_B,123.0,01101,kill,1.0,4700.0,2.57716653218
123,1_34_1,34,1.0,495.999977549,1_I,training,05,1_B,124.0,01110,ignore,1.0,4800.0,0.887360917429
124,1_34_1,34,1.0,502.062781036,1_I,training,05,1_B,125.0,01100,ignore,0.0,4700.0,4.05701888303
125,1_34_1,34,1.0,504.672266746,1_I,training,05,1_B,126.0,11110,ignore,1.0,4800.0,0.626537076498
126,1_34_1,34,1.0,507.312989507,1_I,training,05,1_B,127.0,10011,ignore,1.0,4900.0,0.614404675919
127,1_34_1,34,1.0,509.938122769,1_I,training,05,1_B,128.0,01111,ignore,1.0,5000.0,0.644154202208
128,1_34_1,34,1.0,512.503654666,1_I,training,05,1_B,129.0,11010,ignore,1.0,5100.0,0.576759852363
129,1_34_1,34,1.0,517.05077468,1_I,training,05,1_B,130.0,00100,kill,0.0,5000.0,2.52702111528
130,1_34_1,34,1.0,519.707123504,1_I,training,05,1_B,131.0,00111,ignore,1.0,5100.0,0.670639385336
131,1_34_1,34,1.0,522.488516106,1_I,training,05,1_B,132.0,11111,ignore,1.0,5200.0,0.794550362227
132,1_34_1,34,1.0,524.988658188,1_I,training,05,1_B,133.0,10010,ignore,1.0,5300.0,0.488153686482
133,1_34_1,34,1.0,527.816886962,1_I,training,05,1_B,134.0,10011,ignore,1.0,5400.0,0.801385662035
134,1_34_1,34,1.0,531.89524082,1_I,training,05,1_B,135.0,11100,ignore,0.0,5300.0,2.06246896982
135,1_34_1,34,1.0,534.491265364,1_I,training,05,1_B,136.0,00010,ignore,1.0,5400.0,0.609026752347
136,1_34_1,34,1.0,538.803994763,1_I,training,05,1_B,137.0,00101,kill,1.0,5500.0,2.2687393439
137,1_34_1,34,1.0,541.413485605,1_I,training,05,1_B,138.0,01010,ignore,1.0,5600.0,0.598651606257
138,1_34_1,34,1.0,547.101252048,1_I,training,05,1_B,139.0,01000,ignore,0.0,5500.0,3.70114935156
139,1_34_1,34,1.0,550.523310964,1_I,training,05,1_B,140.0,01101,kill,1.0,5600.0,1.4036178467
140,1_34_1,34,1.0,553.335909827,1_I,training,05,1_B,141.0,00000,kill,0.0,5500.0,0.816787858105
141,1_34_1,34,1.0,555.945440119,1_I,training,05,1_B,142.0,10110,ignore,1.0,5600.0,0.572427493608
142,1_34_1,34,1.0,559.289339857,1_I,training,05,1_B,143.0,10100,ignore,1.0,5700.0,1.32242973869
143,1_34_1,34,1.0,562.555091644,1_I,training,05,1_B,144.0,00001,kill,1.0,5800.0,1.25094517777
144,1_34_1,34,1.0,565.274027144,1_I,training,05,1_B,145.0,00110,ignore,1.0,5900.0,0.70191331947
145,1_34_1,34,1.0,569.196121019,1_I,training,05,1_B,146.0,10000,kill,0.0,5800.0,1.94320466258
146,1_34_1,34,1.0,572.040080412,1_I,training,05,1_B,147.0,01110,ignore,1.0,5900.0,0.847372232621
147,1_34_1,34,1.0,574.571427472,1_I,training,05,1_B,148.0,01111,ignore,1.0,6000.0,0.522452061174
148,1_34_1,34,1.0,577.68095199,1_I,training,05,1_B,149.0,01001,kill,1.0,6100.0,1.11630208741
149,1_34_1,34,1.0,580.149828476,1_I,training,05,1_B,150.0,01011,ignore,1.0,6200.0,0.477076472482
150,1_34_1,34,1.0,583.696874403,1_I,training,05,1_B,151.0,11001,kill,1.0,6300.0,1.5522878626
151,1_34_1,34,1.0,586.212599569,1_I,training,05,1_B,152.0,11110,ignore,1.0,6400.0,0.519596322178
152,1_34_1,34,1.0,588.806475574,1_I,training,05,1_B,153.0,00011,ignore,1.0,6500.0,0.584537443408
153,1_34_1,34,1.0,594.603628944,1_I,training,05,1_B,154.0,11000,kill,1.0,6600.0,3.84064501727
154,1_34_1,34,1.0,597.244392437,1_I,training,05,1_B,155.0,11011,ignore,1.0,6700.0,0.617476583838
155,1_34_1,34,1.0,600.869544621,1_I,training,05,1_B,156.0,01100,ignore,0.0,6600.0,1.59805281193
156,1_34_1,34,1.0,604.197830806,1_I,training,05,1_B,157.0,10001,kill,1.0,6700.0,1.33897275502
157,1_34_1,34,1.0,607.510486759,1_I,training,05,1_B,158.0,11101,kill,1.0,6800.0,1.31483015024
158,1_34_1,34,1.0,611.151298681,1_I,training,05,1_B,159.0,10101,kill,1.0,6900.0,1.65232981348
159,1_34_1,34,1.0,613.995183346,1_I,training,05,1_B,160.0,10111,ignore,1.0,7000.0,0.81452385748
160,1_34_1,34,1.0,616.807820697,1_I,training,05,1_B,161.0,01011,ignore,1.0,7100.0,0.819438974295
161,1_34_1,34,1.0,619.511072403,1_I,training,05,1_B,162.0,11110,ignore,1.0,7200.0,0.745797855758
162,1_34_1,34,1.0,621.964294924,1_I,training,05,1_B,163.0,11010,ignore,1.0,7300.0,0.450255810582
163,1_34_1,34,1.0,625.276951197,1_I,training,05,1_B,164.0,00001,kill,1.0,7400.0,1.34288913292
164,1_34_1,34,1.0,630.074051968,1_I,training,05,1_B,165.0,01100,ignore,0.0,7300.0,2.78279417255
165,1_34_1,34,1.0,632.652321475,1_I,training,05,1_B,166.0,11011,ignore,1.0,7400.0,0.579514242132
166,1_34_1,34,1.0,635.793078233,1_I,training,05,1_B,167.0,00101,kill,1.0,7500.0,1.15480260634
167,1_34_1,34,1.0,638.933876364,1_I,training,05,1_B,168.0,11000,kill,1.0,7600.0,1.15468265504
168,1_34_1,34,1.0,641.918366404,1_I,training,05,1_B,169.0,01111,ignore,1.0,7700.0,0.969383232219
169,1_34_1,34,1.0,644.466314211,1_I,training,05,1_B,170.0,10110,ignore,1.0,7800.0,0.560379764536
170,1_34_1,34,1.0,647.247663515,1_I,training,05,1_B,171.0,10001,kill,1.0,7900.0,0.767583770268
171,1_34_1,34,1.0,649.68841944,1_I,training,05,1_B,172.0,00111,ignore,1.0,8000.0,0.487740912887
172,1_34_1,34,1.0,652.313507479,1_I,training,05,1_B,173.0,11111,ignore,1.0,8100.0,0.643105430137
173,1_34_1,34,1.0,655.188684679,1_I,training,05,1_B,174.0,10101,kill,1.0,8200.0,0.87950474866
174,1_34_1,34,1.0,658.11065283,1_I,training,05,1_B,175.0,01101,kill,1.0,8300.0,0.939139468083
175,1_34_1,34,1.0,660.892046716,1_I,training,05,1_B,176.0,00110,ignore,1.0,8400.0,0.762819394394
176,1_34_1,34,1.0,663.845336909,1_I,training,05,1_B,177.0,01001,kill,1.0,8500.0,0.970328089259
177,1_34_1,34,1.0,666.595472255,1_I,training,05,1_B,178.0,00010,ignore,1.0,8600.0,0.744815473846
178,1_34_1,34,1.0,669.033090844,1_I,training,05,1_B,179.0,01110,ignore,1.0,8700.0,0.433173013394
179,1_34_1,34,1.0,671.486301818,1_I,training,05,1_B,180.0,10011,ignore,1.0,8800.0,0.445903246126
180,1_34_1,34,1.0,674.911745991,1_I,training,05,1_B,181.0,11101,kill,1.0,8900.0,1.44179892313
181,1_34_1,34,1.0,677.7087576,1_I,training,05,1_B,182.0,10111,ignore,1.0,9000.0,0.814807058012
182,1_34_1,34,1.0,680.240124865,1_I,training,05,1_B,183.0,00011,ignore,1.0,9100.0,0.523141300067
183,1_34_1,34,1.0,683.677784506,1_I,training,05,1_B,184.0,00000,kill,0.0,9000.0,1.44428903517
184,1_34_1,34,1.0,686.568598674,1_I,training,05,1_B,185.0,00100,kill,0.0,8900.0,0.904775986134
185,1_34_1,34,1.0,693.622024791,1_I,training,05,1_B,186.0,10100,kill,0.0,8800.0,5.05763050637
186,1_34_1,34,1.0,696.450349783,1_I,training,05,1_B,187.0,01010,ignore,1.0,8900.0,0.86805773827
187,1_34_1,34,1.0,700.403610791,1_I,training,05,1_B,188.0,11001,kill,1.0,9000.0,1.96747363317
188,1_34_1,34,1.0,703.263119273,1_I,training,05,1_B,189.0,10000,kill,0.0,8900.0,0.878374833062
189,1_34_1,34,1.0,706.419510432,1_I,training,05,1_B,190.0,01000,ignore,0.0,8800.0,1.19451386368
190,1_34_1,34,1.0,709.216531663,1_I,training,05,1_B,191.0,10010,ignore,1.0,8900.0,0.817388897513
191,1_34_1,34,1.0,712.341638945,1_I,training,05,1_B,192.0,11100,kill,1.0,9000.0,1.12620191845
192,1_34_1,34,1.0,714.873026416,1_I,training,05,1_B,193.0,11111,ignore,1.0,9100.0,0.55979540285
193,1_34_1,34,1.0,717.357507155,1_I,training,05,1_B,194.0,10110,ignore,1.0,9200.0,0.495620173884
194,1_34_1,34,1.0,719.795147874,1_I,training,05,1_B,195.0,11011,ignore,1.0,9300.0,0.484509283717
195,1_34_1,34,1.0,723.264058998,1_I,training,05,1_B,196.0,11000,ignore,0.0,9200.0,1.47092977012
196,1_34_1,34,1.0,726.732988725,1_I,training,05,1_B,197.0,01101,ignore,0.0,9100.0,1.4733788293
197,1_34_1,34,1.0,729.170599295,1_I,training,05,1_B,198.0,00111,ignore,1.0,9200.0,0.460504590863
198,1_34_1,34,1.0,733.514532389,1_I,training,05,1_B,199.0,11001,kill,1.0,9300.0,2.3437461112
199,1_34_1,34,1.0,737.608469973,1_I,training,05,1_B,200.0,00100,ignore,1.0,9400.0,2.05816707997
200,1_34_1,34,1.0,740.139879253,1_I,training,05,1_B,201.0,01010,ignore,1.0,9500.0,0.536166600169
201,1_34_1,34,1.0,743.499378755,1_I,training,05,1_B,202.0,00000,ignore,1.0,9600.0,1.36061498455
202,1_34_1,34,1.0,746.483870078,1_I,training,05,1_B,203.0,11010,ignore,1.0,9700.0,1.01720338994
203,1_34_1,34,1.0,749.280890667,1_I,training,05,1_B,204.0,01000,ignore,0.0,9600.0,0.81484971449
204,1_34_1,34,1.0,752.359190322,1_I,training,05,1_B,205.0,01001,kill,1.0,9700.0,1.10107276233
205,1_34_1,34,1.0,755.218668656,1_I,training,05,1_B,206.0,01011,ignore,1.0,9800.0,0.895056082044
206,1_34_1,34,1.0,759.640786585,1_I,training,05,1_B,207.0,10100,kill,0.0,9700.0,2.42554840837
207,1_34_1,34,1.0,763.000351194,1_I,training,05,1_B,208.0,00010,ignore,1.0,9800.0,1.38242110476
208,1_34_1,34,1.0,765.750470504,1_I,training,05,1_B,209.0,01111,ignore,1.0,9900.0,0.789774119513
209,1_34_1,34,1.0,768.219301447,1_I,training,05,1_B,210.0,00011,ignore,1.0,10000.0,0.451294640166
210,1_34_1,34,1.0,772.969542953,1_I,training,05,1_B,211.0,00101,kill,1.0,10100.0,2.75130567312
211,1_34_1,34,1.0,775.829054643,1_I,training,05,1_B,212.0,00110,ignore,1.0,10200.0,0.853346384719
212,1_34_1,34,1.0,779.235481082,1_I,training,05,1_B,213.0,01100,kill,1.0,10300.0,1.45034465152
213,1_34_1,34,1.0,781.78246158,1_I,training,05,1_B,214.0,11110,ignore,1.0,10400.0,0.533455187606
214,1_34_1,34,1.0,785.345152171,1_I,training,05,1_B,215.0,10011,ignore,1.0,10500.0,1.54934167904
215,1_34_1,34,1.0,788.329669153,1_I,training,05,1_B,216.0,10111,ignore,1.0,10600.0,1.00507868677
216,1_34_1,34,1.0,791.50168028,1_I,training,05,1_B,217.0,10000,kill,0.0,10500.0,1.17058069259
217,1_34_1,34,1.0,794.204943854,1_I,training,05,1_B,218.0,00001,kill,1.0,10600.0,0.738498466291
218,1_34_1,34,1.0,796.783197004,1_I,training,05,1_B,219.0,01110,ignore,1.0,10700.0,0.594880837683
219,1_34_1,34,1.0,799.080155051,1_I,training,05,1_B,220.0,10101,ignore,0.0,10600.0,0.28153789114
220,1_34_1,34,1.0,801.4396398,1_I,training,05,1_B,221.0,11100,kill,1.0,10700.0,0.388869930454
221,1_34_1,34,1.0,803.752264001,1_I,training,05,1_B,222.0,11101,ignore,0.0,10600.0,0.324475966762
222,1_34_1,34,1.0,806.518013863,1_I,training,05,1_B,223.0,10010,ignore,1.0,10700.0,0.799139942756
223,1_34_1,34,1.0,810.846362589,1_I,training,05,1_B,224.0,10001,kill,1.0,10800.0,2.357916401
224,1_34_1,34,1.0,814.083626904,1_I,training,05,1_B,225.0,10101,kill,1.0,10900.0,1.2357665273
225,1_34_1,34,1.0,816.927506116,1_I,training,05,1_B,226.0,00100,ignore,1.0,11000.0,0.856564222696
226,1_34_1,34,1.0,819.740175219,1_I,training,05,1_B,227.0,11010,ignore,1.0,11100.0,0.845541852741
227,1_34_1,34,1.0,822.162133748,1_I,training,05,1_B,228.0,11111,ignore,1.0,11200.0,0.475166552703
228,1_34_1,34,1.0,825.584207738,1_I,training,05,1_B,229.0,11100,kill,1.0,11300.0,1.43928411524
229,1_34_1,34,1.0,828.709329453,1_I,training,05,1_B,230.0,00000,ignore,1.0,11400.0,1.13915056518
230,1_34_1,34,1.0,831.193827832,1_I,training,05,1_B,231.0,00111,ignore,1.0,11500.0,0.52456179288
231,1_34_1,34,1.0,834.006444656,1_I,training,05,1_B,232.0,01010,ignore,1.0,11600.0,0.855778445457
232,1_34_1,34,1.0,836.512842807,1_I,training,05,1_B,233.0,11110,ignore,1.0,11700.0,0.532023790127
233,1_34_1,34,1.0,839.325489138,1_I,training,05,1_B,234.0,01011,ignore,1.0,11800.0,0.830091868585
234,1_34_1,34,1.0,850.466687214,1_I,training,05,1_B,235.0,01101,kill,1.0,11900.0,9.15489978614
235,1_34_1,34,1.0,943.080627159,1_I,test,05,2,0.0,11101,kill,0.0,0.0,6.24191098459
236,1_34_1,34,1.0,946.143235003,1_I,test,05,2,1.0,10010,ignore,1.0,100.0,1.04880670906
237,1_34_1,34,1.0,948.659018221,1_I,test,05,2,2.0,10111,ignore,0.0,0.0,0.516419216327
238,1_34_1,34,1.0,953.45611835,1_I,test,05,2,3.0,01001,kill,0.0,0.0,2.83103031112
239,1_34_1,34,1.0,961.550224636,1_I,test,05,2,4.0,10001,ignore,1.0,100.0,6.11433379561
240,1_34_1,34,1.0,964.878528781,1_I,test,05,2,5.0,10110,ignore,0.0,0.0,1.37778630195
241,1_34_1,34,1.0,969.222485288,1_I,test,05,2,6.0,01100,ignore,1.0,100.0,2.34347734332
242,1_34_1,34,1.0,972.2069625,1_I,test,05,2,7.0,00011,ignore,1.0,200.0,0.991552734312
243,1_34_1,34,1.0,975.129000568,1_I,test,05,2,8.0,10011,ignore,1.0,300.0,0.966979716043
244,1_34_1,34,1.0,978.191617072,1_I,test,05,2,9.0,01111,kill,1.0,400.0,1.07044733496
245,1_34_1,34,1.0,980.957396762,1_I,test,05,2,10.0,00101,kill,1.0,500.0,0.810577331385
246,1_34_1,34,1.0,984.035703473,1_I,test,05,2,11.0,00001,ignore,1.0,600.0,1.10503468325
247,1_34_1,34,1.0,986.848295922,1_I,test,05,2,12.0,10100,kill,1.0,700.0,0.818887005875
248,1_34_1,34,1.0,991.676666457,1_I,test,05,2,13.0,01110,kill,1.0,800.0,2.89817289152
249,1_34_1,34,1.0,994.364286649,1_I,test,05,2,14.0,00110,kill,1.0,900.0,0.716050895273
250,1_34_1,34,1.0,997.208172917,1_I,test,05,2,15.0,11001,ignore,1.0,1000.0,0.878504406126
251,1_34_1,34,1.0,1000.21632832,1_I,test,05,3,0.0,00010,ignore,1.0,1100.0,1.05858819243
252,1_34_1,34,1.0,1002.76330497,1_I,test,05,3,1.0,11000,ignore,0.0,1000.0,0.567808085616
253,1_34_1,34,1.0,1008.96669138,1_I,test,05,3,2.0,01000,ignore,1.0,1100.0,4.2567102169
254,1_34_1,34,1.0,1012.73251501,1_I,test,05,3,3.0,10000,ignore,0.0,1000.0,1.76975989213
255,1_34_1,34,1.0,1015.68576896,1_I,test,05,3,4.0,11011,ignore,0.0,900.0,0.968574683476
256,1_34_1,34,1.0,1019.10780703,1_I,test,05,3,5.0,11110,kill,1.0,1000.0,1.47336792464
257,1_34_1,34,1.0,1022.40483789,1_I,test,05,3,6.0,11000,kill,1.0,1100.0,1.34140770228
258,1_34_1,34,1.0,1030.51460648,1_I,test,05,3,7.0,11010,kill,1.0,1200.0,6.16781860541
259,1_34_1,34,1.0,1034.29603468,1_I,test,05,3,8.0,00011,kill,0.0,1100.0,1.7696306398
260,1_34_1,34,1.0,1038.15559127,1_I,test,05,3,9.0,00101,ignore,1.0,1200.0,1.86461892049
261,1_34_1,34,1.0,1040.57757289,1_I,test,05,3,10.0,01000,ignore,1.0,1300.0,0.476683263137
262,1_34_1,34,1.0,1043.10894465,1_I,test,05,3,11.0,00000,ignore,1.0,1400.0,0.536077438507
263,1_34_1,34,1.0,1045.70279179,1_I,test,05,3,12.0,10011,ignore,0.0,1300.0,0.66761334115
264,1_34_1,34,1.0,1048.60921887,1_I,test,05,3,13.0,11100,kill,1.0,1400.0,0.960710817299
265,1_34_1,34,1.0,1051.4843502,1_I,test,05,3,14.0,11101,kill,0.0,1300.0,0.888701549617
266,1_34_1,34,1.0,1054.00009301,1_I,test,05,3,15.0,01100,ignore,1.0,1400.0,0.589773606353
267,1_34_1,34,1.0,1056.50024311,1_I,test,05,3,16.0,00111,kill,0.0,1300.0,0.550256708613
268,1_34_1,34,1.0,1058.73468472,1_I,test,05,3,17.0,01101,ignore,1.0,1400.0,0.288249070217
269,1_34_1,34,1.0,1061.10977949,1_I,test,05,3,18.0,01001,ignore,1.0,1500.0,0.40440779337
270,1_34_1,34,1.0,1063.50054138,1_I,test,05,3,19.0,00110,ignore,1.0,1600.0,0.35246214478
271,1_34_1,34,1.0,1065.72253436,1_I,test,05,3,20.0,11011,ignore,0.0,1500.0,0.307066029663
272,1_34_1,34,1.0,1068.37893129,1_I,test,05,3,21.0,10100,kill,1.0,1600.0,0.68709644726
273,1_34_1,34,1.0,1071.34782061,1_I,test,05,3,22.0,01111,kill,0.0,1500.0,0.986339984323
274,1_34_1,34,1.0,1073.61357945,1_I,test,05,3,23.0,10010,ignore,0.0,1400.0,0.281548154353
275,1_34_1,34,1.0,1076.31681159,1_I,test,05,3,24.0,00001,kill,0.0,1300.0,0.700145481043
276,1_34_1,34,1.0,1078.83252746,1_I,test,05,3,25.0,10000,ignore,0.0,1200.0,0.57583969118
277,1_34_1,34,1.0,1081.41081941,1_I,test,05,3,26.0,11001,kill,1.0,1300.0,0.558452204859
278,1_34_1,34,1.0,1084.20781146,1_I,test,05,3,27.0,10101,kill,0.0,1200.0,0.806213862265
279,1_34_1,34,1.0,1086.6922659,1_I,test,05,3,28.0,10001,ignore,0.0,1100.0,0.500799247707
280,1_34_1,34,1.0,1089.58306211,1_I,test,05,3,29.0,00010,kill,0.0,1000.0,0.911187607684
281,1_34_1,34,1.0,1091.89565648,1_I,test,05,3,30.0,01010,ignore,1.0,1100.0,0.379464337259
282,1_34_1,34,1.0,1094.3645381,1_I,test,05,3,31.0,10111,ignore,1.0,1200.0,0.466289835699
283,1_34_1,34,1.0,1096.59899959,1_I,test,05,3,32.0,11111,ignore,1.0,1300.0,0.270974479238
284,1_34_1,34,1.0,1099.53666276,1_I,test,05,3,33.0,00100,kill,0.0,1200.0,0.971703039066
285,1_34_1,34,1.0,1101.91178352,1_I,test,05,3,34.0,01011,ignore,1.0,1300.0,0.403938572105
286,1_34_1,34,1.0,1104.31815736,1_I,test,05,3,35.0,01110,ignore,1.0,1400.0,0.484660024657
287,1_34_1,34,1.0,1107.05261244,1_I,test,05,3,36.0,10110,ignore,0.0,1300.0,0.776603210076
288,1_34_1,34,1.0,1109.91212605,1_I,test,05,3,37.0,01001,ignore,1.0,1400.0,0.889017143414
289,1_34_1,34,1.0,1112.47478617,1_I,test,05,3,38.0,00100,ignore,1.0,1500.0,0.613208690888
290,1_34_1,34,1.0,1115.63433327,1_I,test,05,3,39.0,10010,ignore,0.0,1400.0,1.22062636388
291,1_34_1,34,1.0,1118.71257295,1_I,test,05,3,40.0,11011,kill,1.0,1500.0,1.12306201675
292,1_34_1,34,1.0,1121.83772834,1_I,test,05,3,41.0,00110,ignore,1.0,1600.0,1.17406024249
293,1_34_1,34,1.0,1124.80662952,1_I,test,05,3,42.0,00010,ignore,1.0,1700.0,1.00606363449
294,1_34_1,34,1.0,1127.22858933,1_I,test,05,3,43.0,01010,ignore,1.0,1800.0,0.486415354793
295,1_34_1,34,1.0,1129.89125773,1_I,test,05,3,44.0,11000,ignore,0.0,1700.0,0.673009225346
296,1_34_1,34,1.0,1133.07888754,1_I,test,05,3,45.0,00011,ignore,1.0,1800.0,1.20481299785
297,1_34_1,34,1.0,1135.93838993,1_I,test,05,3,46.0,10101,ignore,1.0,1900.0,0.899991083834
298,1_34_1,34,1.0,1139.12602841,1_I,test,05,3,47.0,01100,ignore,1.0,2000.0,1.20646184715
299,1_34_1,34,1.0,1141.7199259,1_I,test,05,3,48.0,01011,ignore,1.0,2100.0,0.670413273926
300,1_34_1,34,1.0,1144.34503543,1_I,test,05,3,49.0,01000,ignore,1.0,2200.0,0.634401584127
301,1_34_1,34,1.0,1146.89202908,1_I,test,05,3,50.0,11111,ignore,1.0,2300.0,0.584313897801
302,1_34_1,34,1.0,1149.31404405,1_I,test,05,3,51.0,10100,ignore,0.0,2200.0,0.464818347546
303,1_34_1,34,1.0,1151.98604203,1_I,test,05,3,52.0,00101,ignore,1.0,2300.0,0.692560645966
304,1_34_1,34,1.0,1154.51736022,1_I,test,05,3,53.0,00001,ignore,1.0,2400.0,0.618466663161
305,1_34_1,34,1.0,1157.22061995,1_I,test,05,3,54.0,01101,ignore,1.0,2500.0,0.753793540078
306,1_34_1,34,1.0,1159.78327815,1_I,test,05,3,55.0,00000,ignore,1.0,2600.0,0.59423489672
307,1_34_1,34,1.0,1162.97092239,1_I,test,05,3,56.0,10111,kill,0.0,2500.0,1.25920642272
308,1_34_1,34,1.0,1165.42419687,1_I,test,05,3,57.0,00111,ignore,1.0,2600.0,0.521368330034
309,1_34_1,34,1.0,1168.03368932,1_I,test,05,3,58.0,10001,ignore,0.0,2500.0,0.636092127731
310,1_34_1,34,1.0,1170.8931529,1_I,test,05,3,59.0,10000,kill,1.0,2600.0,0.905802628152
311,1_34_1,34,1.0,1174.37775295,1_I,test,05,3,60.0,11001,kill,1.0,2700.0,1.51679703085
312,1_34_1,34,1.0,1179.56548732,1_I,test,05,3,61.0,01110,kill,0.0,2600.0,3.28048655327
313,1_34_1,34,1.0,1181.78434488,1_I,test,05,3,62.0,10110,ignore,0.0,2500.0,0.292239856418
314,1_34_1,34,1.0,1184.51884486,1_I,test,05,3,63.0,01111,kill,0.0,2400.0,0.776469146857
315,1_34_1,34,1.0,1186.92519208,1_I,test,05,3,64.0,11110,ignore,0.0,2300.0,0.47425184385
316,1_34_1,34,1.0,1190.36313011,1_I,test,05,3,65.0,10011,ignore,0.0,2200.0,1.4786422539
317,1_34_1,34,1.0,1195.06651428,1_I,test,05,3,66.0,11101,kill,0.0,2100.0,2.78067995069
318,1_34_1,34,1.0,1211.73916686,1_I,test,05,3,67.0,11100,ignore,0.0,2000.0,14.7059743445
319,1_34_1,34,1.0,1214.58303132,1_I,test,05,3,68.0,11010,kill,1.0,2100.0,0.882849273173
320,1_34_1,34,1.0,1217.36442103,1_I,test,05,3,69.0,11000,kill,1.0,2200.0,0.855921809713
321,1_34_1,34,1.0,1219.97393304,1_I,test,05,3,70.0,01100,kill,0.0,2100.0,0.661759461078
322,1_34_1,34,1.0,1222.31778948,1_I,test,05,3,71.0,01011,ignore,1.0,2200.0,0.436637168483
323,1_34_1,34,1.0,1224.91168185,1_I,test,05,3,72.0,11100,ignore,0.0,2100.0,0.610032867939
324,1_34_1,34,1.0,1227.38054743,1_I,test,05,3,73.0,10001,kill,1.0,2200.0,0.488569346605
325,1_34_1,34,1.0,1229.57124562,1_I,test,05,3,74.0,10110,kill,1.0,2300.0,0.270148611324
326,1_34_1,34,1.0,1232.24323654,1_I,test,05,3,75.0,01001,kill,0.0,2200.0,0.72348915884
327,1_34_1,34,1.0,1234.43083877,1_I,test,05,3,76.0,10011,ignore,0.0,2100.0,0.288780512211
328,1_34_1,34,1.0,1239.27481388,1_I,test,05,3,77.0,10010,ignore,0.0,2000.0,2.90196162072
329,1_34_1,34,1.0,1241.58739799,1_I,test,05,3,78.0,11111,kill,0.0,1900.0,0.359447864802
330,1_34_1,34,1.0,1244.11880118,1_I,test,05,3,79.0,11001,ignore,0.0,1800.0,0.626677233499
331,1_34_1,34,1.0,1246.58766965,1_I,test,05,3,80.0,00010,kill,0.0,1700.0,0.480714460739
332,1_34_1,34,1.0,1249.00964197,1_I,test,05,3,81.0,01110,ignore,1.0,1800.0,0.477217270934
333,1_34_1,34,1.0,1251.72851172,1_I,test,05,3,82.0,01101,ignore,1.0,1900.0,0.795499388697
334,1_34_1,34,1.0,1254.72866246,1_I,test,05,3,83.0,11011,kill,1.0,2000.0,1.05176219366
335,1_34_1,34,1.0,1257.2600278,1_I,test,05,3,84.0,10000,kill,1.0,2100.0,0.635343875363
336,1_34_1,34,1.0,1259.83829185,1_I,test,05,3,85.0,01000,kill,0.0,2000.0,0.592544994567
337,1_34_1,34,1.0,1262.61967644,1_I,test,05,3,86.0,11101,ignore,1.0,2100.0,0.833040938674
338,1_34_1,34,1.0,1265.44795781,1_I,test,05,3,87.0,00011,kill,0.0,2000.0,0.920766071871
339,1_34_1,34,1.0,1268.01051851,1_I,test,05,3,88.0,00110,ignore,1.0,2100.0,0.611586782521
340,1_34_1,34,1.0,1270.85444006,1_I,test,05,3,89.0,10100,ignore,0.0,2000.0,0.949725972215
341,1_34_1,34,1.0,1273.87020275,1_I,test,05,3,90.0,10101,kill,0.0,1900.0,1.01373442397
342,1_34_1,34,1.0,1276.65160594,1_I,test,05,3,91.0,00100,kill,0.0,1800.0,0.811415707591
343,1_34_1,34,1.0,1279.77673535,1_I,test,05,3,92.0,00001,ignore,1.0,1900.0,1.20389508174
344,1_34_1,34,1.0,1282.33934031,1_I,test,05,3,93.0,00000,ignore,1.0,2000.0,0.594746453738
345,1_34_1,34,1.0,1285.91764156,1_I,test,05,3,94.0,10111,kill,0.0,1900.0,1.67640089649
346,1_34_1,34,1.0,1288.57399905,1_I,test,05,3,95.0,11110,ignore,0.0,1800.0,0.729998280913
347,1_34_1,34,1.0,1291.35542084,1_I,test,05,3,96.0,11010,ignore,0.0,1700.0,0.844866084315
348,1_34_1,34,1.0,1294.04304424,1_I,test,05,3,97.0,00111,kill,0.0,1600.0,0.789025867145
349,1_34_1,34,1.0,1296.51192361,1_I,test,05,3,98.0,01111,kill,0.0,1500.0,0.558881656175
350,1_34_1,34,1.0,1299.59018317,1_I,test,05,3,99.0,00101,ignore,1.0,1600.0,1.11207171933
351,1_34_1,34,1.0,1302.12155076,1_I,test,05,3,100.0,01010,ignore,1.0,1700.0,0.604049414805
352,1_34_1,34,1.0,1304.59040864,1_I,test,05,3,101.0,00011,ignore,1.0,1800.0,0.507432811236
353,1_34_1,34,1.0,1307.10928782,1_I,test,05,3,102.0,00100,ignore,1.0,1900.0,0.624487961893
354,1_34_1,34,1.0,1310.78134578,1_I,test,05,3,103.0,10000,ignore,0.0,1800.0,1.76191559021
355,1_34_1,34,1.0,1313.50019468,1_I,test,05,3,104.0,01101,kill,0.0,1700.0,0.754155639059
356,1_34_1,34,1.0,1315.76597758,1_I,test,05,3,105.0,00101,ignore,1.0,1800.0,0.340585683075
357,1_34_1,34,1.0,1318.85984813,1_I,test,05,3,106.0,11000,ignore,0.0,1700.0,1.15944478584
358,1_34_1,34,1.0,1352.29900973,1_I,test,05,3,107.0,10101,,,1600.0,
359,1_34_1,34,1.0,1356.83046327,1_I,test,05,3,108.0,01010,ignore,1.0,1700.0,2.54762066652
360,1_34_1,34,1.0,1359.65870263,1_I,test,05,3,109.0,10010,ignore,0.0,1600.0,0.891878014017
361,1_34_1,34,1.0,1365.86213875,1_I,test,05,3,110.0,00110,kill,0.0,1500.0,4.27359608869
362,1_34_1,34,1.0,1368.2216344,1_I,test,05,3,111.0,11001,ignore,0.0,1400.0,0.40302899486
363,1_34_1,34,1.0,1382.37853263,1_I,test,05,3,112.0,01100,kill,0.0,1300.0,12.2609829207
364,1_34_1,34,1.0,1384.95677744,1_I,test,05,3,113.0,11111,ignore,1.0,1400.0,0.60064780117
365,1_34_1,34,1.0,1387.30067012,1_I,test,05,3,114.0,01001,ignore,1.0,1500.0,0.40859550497
366,1_34_1,34,1.0,1389.56638567,1_I,test,05,3,115.0,10001,ignore,0.0,1400.0,0.345963606647
367,1_34_1,34,1.0,1392.22275213,1_I,test,05,3,116.0,10110,kill,1.0,1500.0,0.700060168086
368,1_34_1,34,1.0,1394.5041287,1_I,test,05,3,117.0,00010,kill,0.0,1400.0,0.36931722693
369,1_34_1,34,1.0,1396.66044128,1_I,test,05,3,118.0,10111,ignore,1.0,1500.0,0.236198223694
370,1_34_1,34,1.0,1399.12931071,1_I,test,05,3,119.0,00001,ignore,1.0,1600.0,0.506249975946
371,1_34_1,34,1.0,1401.97320403,1_I,test,05,3,120.0,11110,kill,1.0,1700.0,0.977659230542
372,1_34_1,34,1.0,1404.20768349,1_I,test,05,3,121.0,11101,ignore,1.0,1800.0,0.31616436792
373,1_34_1,34,1.0,1406.94222356,1_I,test,05,3,122.0,01011,ignore,1.0,1900.0,0.783282316613
374,1_34_1,34,1.0,1409.16112378,1_I,test,05,3,123.0,11011,ignore,0.0,1800.0,0.297091469602
375,1_34_1,34,1.0,1412.11438607,1_I,test,05,3,124.0,00000,kill,0.0,1700.0,0.980737552967
376,1_34_1,34,1.0,1415.11589509,1_I,test,05,3,125.0,01110,ignore,1.0,1800.0,1.11957541088
377,1_34_1,34,1.0,1418.16292241,1_I,test,05,3,126.0,00111,kill,0.0,1700.0,1.07287201902
378,1_34_1,34,1.0,1420.60057179,1_I,test,05,4,0.0,11100,ignore,1.0,1800.0,0.493860032868
379,1_34_1,34,1.0,1423.22568517,1_I,test,05,4,1.0,01000,ignore,1.0,1900.0,0.707841928561
380,1_34_1,34,1.0,1425.75708611,1_I,test,05,4,2.0,11010,kill,0.0,1800.0,0.591662999706
381,1_34_1,34,1.0,1428.13216036,1_I,test,05,4,3.0,01111,ignore,0.0,1700.0,0.482464017817
382,1_34_1,34,1.0,1431.64797308,1_I,test,05,4,4.0,10100,ignore,1.0,1800.0,1.52550472557
383,1_34_1,34,1.0,1434.17930763,1_I,test,05,4,5.0,10011,ignore,0.0,1700.0,0.592097261903
384,1_34_1,34,1.0,1436.83570905,1_I,test,05,4,6.0,11010,kill,0.0,1600.0,0.771319900498
385,1_34_1,34,1.0,1439.30457399,1_I,test,05,4,7.0,11011,ignore,1.0,1700.0,0.516208499736
386,1_34_1,34,1.0,1441.8202905,1_I,test,05,4,8.0,10011,ignore,0.0,1600.0,0.617477546015
387,1_34_1,34,1.0,1444.41420884,1_I,test,05,4,9.0,10110,kill,1.0,1700.0,0.690232820985
388,1_34_1,34,1.0,1447.08621612,1_I,test,05,4,10.0,01101,kill,0.0,1600.0,0.726988272996
389,1_34_1,34,1.0,1449.47691643,1_I,test,05,4,11.0,01010,ignore,0.0,1500.0,0.525220242135
390,1_34_1,34,1.0,1451.77390399,1_I,test,05,4,12.0,01000,kill,0.0,1400.0,0.402554000536
391,1_34_1,34,1.0,1454.05525521,1_I,test,05,4,13.0,00101,ignore,1.0,1500.0,0.322012474935
392,1_34_1,34,1.0,1456.44600395,1_I,test,05,4,14.0,01001,ignore,1.0,1600.0,0.478842707282
393,1_34_1,34,1.0,1458.89924957,1_I,test,05,4,15.0,10010,ignore,0.0,1500.0,0.500170946641
394,1_34_1,34,1.0,1461.18059598,1_I,test,05,4,16.0,00010,kill,1.0,1600.0,0.410730894709
395,1_34_1,34,1.0,1463.44632179,1_I,test,05,4,17.0,01011,kill,1.0,1700.0,0.364820336043
396,1_34_1,34,1.0,1465.69644463,1_I,test,05,4,18.0,11101,kill,0.0,1600.0,0.31018412204
397,1_34_1,34,1.0,1467.86844934,1_I,test,05,4,19.0,00110,ignore,0.0,1500.0,0.268525420054
398,1_34_1,34,1.0,1470.0247616,1_I,test,05,4,20.0,01110,kill,1.0,1600.0,0.226647341892
399,1_34_1,34,1.0,1474.18119446,1_I,test,05,4,21.0,01100,kill,0.0,1500.0,2.28566562709
400,1_34_1,34,1.0,1480.33777709,1_I,test,05,4,22.0,00011,ignore,0.0,1400.0,4.16746324166
401,1_34_1,34,1.0,1482.6503689,1_I,test,05,4,23.0,00001,kill,0.0,1300.0,0.356883665198
402,1_34_1,34,1.0,1485.52862025,1_I,test,05,4,24.0,00111,ignore,0.0,1200.0,0.968590399021
403,1_34_1,34,1.0,1488.04436466,1_I,test,05,4,25.0,11100,ignore,1.0,1300.0,0.577839734799
404,1_34_1,34,1.0,1491.51331235,1_I,test,05,4,26.0,01111,ignore,0.0,1200.0,1.5987051674
405,1_34_1,34,1.0,1494.04464786,1_I,test,05,4,27.0,11001,kill,0.0,1100.0,0.564907445063
406,1_34_1,34,1.0,1496.43541104,1_I,test,05,4,28.0,00000,ignore,1.0,1200.0,0.413572842513
407,1_34_1,34,1.0,1498.59179578,1_I,test,05,4,29.0,00100,ignore,1.0,1300.0,0.246415572886
408,1_34_1,34,1.0,1500.99810868,1_I,test,05,4,30.0,10000,ignore,1.0,1400.0,0.460409335419
409,1_34_1,34,1.0,1503.21697619,1_I,test,05,4,31.0,11111,ignore,1.0,1500.0,0.357978301002
410,1_34_1,34,1.0,1505.37962727,1_I,test,05,4,32.0,10111,ignore,0.0,1400.0,0.257431849059
411,1_34_1,34,1.0,1507.6140862,1_I,test,05,4,33.0,11000,kill,0.0,1300.0,0.304492208297
412,1_34_1,34,1.0,1509.98922074,1_I,test,05,4,34.0,10100,ignore,1.0,1400.0,0.487010621143
413,1_34_1,34,1.0,1512.44242722,1_I,test,05,4,35.0,10101,ignore,1.0,1500.0,0.549837199785
414,1_34_1,34,1.0,1514.75503346,1_I,test,05,4,36.0,10001,ignore,1.0,1600.0,0.359168192251
415,1_34_1,34,1.0,1517.20827459,1_I,test,05,4,37.0,11110,ignore,1.0,1700.0,0.555099341486
416,1_34_1,34,1.0,1520.11463816,1_I,test,05,4,38.0,10101,ignore,1.0,1800.0,0.957172253917
417,1_34_1,34,1.0,1522.52104504,1_I,test,05,4,39.0,11000,ignore,1.0,1900.0,0.530142735633
418,1_34_1,34,1.0,1524.91176299,1_I,test,05,4,40.0,11111,ignore,1.0,2000.0,0.435902386582
419,1_34_1,34,1.0,1528.17881275,1_I,test,05,4,41.0,01111,kill,1.0,2100.0,1.32324406049
420,1_34_1,34,1.0,1530.85083607,1_I,test,05,4,42.0,01001,kill,0.0,2000.0,0.783946538924
421,1_34_1,34,1.0,1533.57251666,1_I,test,05,4,43.0,11010,ignore,1.0,2100.0,0.801878937707
422,1_34_1,34,1.0,1535.99452458,1_I,test,05,4,44.0,11100,ignore,1.0,2200.0,0.548695096621
423,1_34_1,34,1.0,1538.38522424,1_I,test,05,4,45.0,11001,ignore,1.0,2300.0,0.422005996282
424,1_34_1,34,1.0,1540.74470771,1_I,test,05,4,46.0,10110,ignore,0.0,2200.0,0.413507735255
425,1_34_1,34,1.0,1543.6354712,1_I,test,05,4,47.0,01100,ignore,1.0,2300.0,1.0075636672
426,1_34_1,34,1.0,1546.15122042,1_I,test,05,4,48.0,11110,ignore,1.0,2400.0,0.608598583934
427,1_34_1,34,1.0,1548.62024637,1_I,test,05,4,49.0,11011,ignore,1.0,2500.0,0.628392152234
428,1_34_1,34,1.0,1551.66710467,1_I,test,05,4,50.0,00011,kill,1.0,2600.0,1.13286017784
429,1_34_1,34,1.0,1554.62049718,1_I,test,05,4,51.0,01101,ignore,1.0,2700.0,1.01578899091
430,1_34_1,34,1.0,1557.29241529,1_I,test,05,4,52.0,01110,ignore,0.0,2600.0,0.826866012473
431,1_34_1,34,1.0,1560.04249676,1_I,test,05,4,53.0,10010,ignore,0.0,2500.0,0.868306941908
432,1_34_1,34,1.0,1563.24581004,1_I,test,05,4,54.0,10001,ignore,1.0,2600.0,1.27418782706
433,1_34_1,34,1.0,1566.08968284,1_I,test,05,4,55.0,00110,kill,1.0,2700.0,0.920451440249
434,1_34_1,34,1.0,1569.44923719,1_I,test,05,4,56.0,00001,kill,0.0,2600.0,1.44371333307
435,1_34_1,34,1.0,1571.88684102,1_I,test,05,4,57.0,10011,ignore,0.0,2500.0,0.589812093401
436,1_34_1,34,1.0,1574.85571206,1_I,test,05,4,58.0,01000,ignore,1.0,2600.0,1.09775870673
437,1_34_1,34,1.0,1577.52770394,1_I,test,05,4,59.0,10000,ignore,1.0,2700.0,0.733977841724
438,1_34_1,34,1.0,1580.1528712,1_I,test,05,4,60.0,00111,ignore,0.0,2600.0,0.71443636359
439,1_34_1,34,1.0,1582.90294561,1_I,test,05,4,61.0,01011,kill,1.0,2700.0,0.814094406164
440,1_34_1,34,1.0,1585.76248424,1_I,test,05,4,62.0,01010,kill,1.0,2800.0,0.984137242249
441,1_34_1,34,1.0,1588.51262664,1_I,test,05,4,63.0,10100,ignore,1.0,2900.0,0.72463286563
442,1_34_1,34,1.0,1591.12212101,1_I,test,05,4,64.0,10111,ignore,0.0,2800.0,0.664400955505
443,1_34_1,34,1.0,1593.88786606,1_I,test,05,4,65.0,00101,kill,0.0,2700.0,0.871994963328
444,1_34_1,34,1.0,1597.10679065,1_I,test,05,4,66.0,00010,kill,1.0,2800.0,1.29334667979
445,1_34_1,34,1.0,1599.74755639,1_I,test,05,4,67.0,11101,ignore,1.0,2900.0,0.789680467695
446,1_34_1,34,1.0,1602.74770489,1_I,test,05,4,68.0,00100,ignore,1.0,3000.0,1.03716084892
447,1_34_1,34,1.0,1605.79468892,1_I,test,05,4,69.0,00000,kill,0.0,2900.0,1.12401040177
448,1_34_1,34,1.0,1608.48231296,1_I,test,05,4,70.0,11010,ignore,1.0,3000.0,0.826148870468
449,1_34_1,34,1.0,1611.23245889,1_I,test,05,4,71.0,00000,ignore,1.0,3100.0,0.818020085107
450,1_34_1,34,1.0,1613.81070466,1_I,test,05,4,72.0,10000,ignore,1.0,3200.0,0.725230056332
451,1_34_1,34,1.0,1617.02961643,1_I,test,05,4,73.0,00100,ignore,1.0,3300.0,1.28906146767
452,1_34_1,34,1.0,1620.889182,1_I,test,05,4,74.0,10111,ignore,0.0,3200.0,1.9334924559
453,1_34_1,34,1.0,1623.51429762,1_I,test,05,4,75.0,10001,ignore,1.0,3300.0,0.76311414104
454,1_34_1,34,1.0,1626.62381604,1_I,test,05,4,76.0,01100,ignore,1.0,3400.0,1.23173500897
455,1_34_1,34,1.0,1629.67080039,1_I,test,05,4,77.0,01011,kill,1.0,3500.0,1.11833324139
456,1_34_1,34,1.0,1632.38970061,1_I,test,05,4,78.0,11001,ignore,1.0,3600.0,0.827047863776
457,1_34_1,34,1.0,1636.10864573,1_I,test,05,4,79.0,11100,kill,0.0,3500.0,1.81162000967
458,1_34_1,34,1.0,1638.51811425,1_I,test,05,4,80.0,11011,ignore,1.0,3600.0,0.574563524798
459,1_34_1,34,1.0,1642.87770804,1_I,test,05,4,81.0,01000,ignore,1.0,3700.0,2.42465486739
460,1_34_1,34,1.0,1645.37782511,1_I,test,05,4,82.0,11101,ignore,1.0,3800.0,0.583641015904
461,1_34_1,34,1.0,1647.76858283,1_I,test,05,4,83.0,10010,ignore,0.0,3700.0,0.515485584676
462,1_34_1,34,1.0,1650.72184865,1_I,test,05,4,84.0,01111,ignore,0.0,3600.0,1.04033795477
463,1_34_1,34,1.0,1654.01883235,1_I,test,05,4,85.0,00010,kill,1.0,3700.0,1.45048031836
464,1_34_1,34,1.0,1656.83149183,1_I,test,05,4,86.0,00101,ignore,1.0,3800.0,0.847583911387
465,1_34_1,34,1.0,1659.17535373,1_I,test,05,4,87.0,10100,ignore,1.0,3900.0,0.397424318427
466,1_34_1,34,1.0,1662.51929452,1_I,test,05,4,88.0,01101,ignore,1.0,4000.0,1.45607441086
467,1_34_1,34,1.0,1665.75380797,1_I,test,05,4,89.0,00111,ignore,0.0,3900.0,1.28525894728
468,1_34_1,34,1.0,1667.95702953,1_I,test,05,4,90.0,10110,ignore,0.0,3800.0,0.34066618515
469,1_34_1,34,1.0,1670.67593007,1_I,test,05,4,91.0,10101,kill,0.0,3700.0,0.825511589092
470,1_34_1,34,1.0,1672.89480944,1_I,test,05,4,92.0,00110,ignore,0.0,3600.0,0.264430077372
471,1_34_1,34,1.0,1675.28557839,1_I,test,05,4,93.0,11110,ignore,1.0,3700.0,0.546061299606
472,1_34_1,34,1.0,1677.55129907,1_I,test,05,4,94.0,01010,ignore,0.0,3600.0,0.424231189135
473,1_34_1,34,1.0,1680.42640763,1_I,test,05,4,95.0,10011,kill,1.0,3700.0,1.02760900494
474,1_34_1,34,1.0,1682.8484101,1_I,test,05,4,96.0,01001,ignore,1.0,3800.0,0.499633731589
475,1_34_1,34,1.0,1685.25476726,1_I,test,05,4,97.0,01110,ignore,0.0,3700.0,0.472495230813
476,1_34_1,34,1.0,1687.52860325,1_I,test,05,4,98.0,00011,kill,1.0,3800.0,0.408575619995
477,1_34_1,34,1.0,1690.1537285,1_I,test,05,4,99.0,11000,ignore,1.0,3900.0,0.755491781091
478,1_34_1,34,1.0,1692.51629477,1_I,test,05,4,100.0,00001,ignore,1.0,4000.0,0.438525920385
479,1_34_1,34,1.0,1695.50081079,1_I,test,05,4,101.0,11111,ignore,1.0,4100.0,1.1118112903
480,1_34_1,34,1.0,1699.31350588,1_I,test,05,4,102.0,10001,kill,0.0,4000.0,1.87594758321
481,1_34_1,34,1.0,1702.26678773,1_I,test,05,4,103.0,11101,ignore,1.0,4100.0,1.08351304647
482,1_34_1,34,1.0,1704.5168987,1_I,test,05,4,104.0,10011,ignore,0.0,4000.0,0.29484254307
483,1_34_1,34,1.0,1710.32654497,1_I,test,05,4,105.0,00010,kill,1.0,4100.0,3.88443109086
484,1_34_1,34,1.0,1712.68604286,1_I,test,05,4,106.0,11000,kill,0.0,4000.0,0.489756672051
485,1_34_1,34,1.0,1715.36118491,1_I,test,05,4,107.0,10101,ignore,1.0,4100.0,0.742207014137
486,1_34_1,34,1.0,1717.47063695,1_I,test,05,4,108.0,00011,ignore,0.0,4000.0,0.260929359589
487,1_34_1,34,1.0,1719.67389347,1_I,test,05,4,109.0,01011,kill,1.0,4100.0,0.250947743569
488,1_34_1,34,1.0,1722.17396916,1_I,test,05,4,110.0,00110,kill,1.0,4200.0,0.569958870174
489,1_34_1,34,1.0,1724.43976392,1_I,test,05,4,111.0,11010,kill,0.0,4100.0,0.398579571332
490,1_34_1,34,1.0,1726.84609735,1_I,test,05,4,112.0,11001,ignore,1.0,4200.0,0.454699140328
491,1_34_1,34,1.0,1729.22119501,1_I,test,05,4,113.0,01111,ignore,0.0,4100.0,0.512585585574
492,1_34_1,34,1.0,1731.40883412,1_I,test,05,4,114.0,01110,kill,1.0,4200.0,0.277311692494
493,1_34_1,34,1.0,1733.70579442,1_I,test,05,4,115.0,11100,kill,0.0,4100.0,0.371454220297
494,1_34_1,34,1.0,1735.92463242,1_I,test,05,4,116.0,10000,ignore,1.0,4200.0,0.376862292058
495,1_34_1,34,1.0,1738.20601572,1_I,test,05,4,117.0,00100,ignore,1.0,4300.0,0.397233486811
496,1_34_1,34,1.0,1740.56550784,1_I,test,05,4,118.0,10010,ignore,0.0,4200.0,0.422004392654
497,1_34_1,34,1.0,1743.00311456,1_I,test,05,4,119.0,01001,kill,0.0,4100.0,0.518673595191
498,1_34_1,34,1.0,1745.12818913,1_I,test,05,4,120.0,11111,ignore,1.0,4200.0,0.210481819359
499,1_34_1,34,1.0,1747.45647019,1_I,test,05,4,121.0,11011,ignore,1.0,4300.0,0.479689422348
500,1_34_1,34,1.0,1750.06592992,1_I,test,05,4,122.0,01000,ignore,1.0,4400.0,0.676111922902
501,1_34_1,34,1.0,1752.78478748,1_I,test,05,4,123.0,00001,ignore,1.0,4500.0,0.786161147837
502,1_34_1,34,1.0,1754.94117479,1_I,test,05,4,124.0,10100,ignore,1.0,4600.0,0.285953959227
503,1_34_1,34,1.0,1757.10073889,1_I,test,05,4,125.0,01100,ignore,1.0,4700.0,0.243350400201
504,1_34_1,34,1.0,1759.2882712,1_I,test,05,4,126.0,00000,ignore,1.0,4800.0,0.33436425169
505,1_34_1,34,1.0,1761.88211289,1_I,test,05,4,127.0,00111,ignore,0.0,4700.0,0.633244727595
506,1_34_1,34,1.0,1765.16352762,1_I,test,05,4,128.0,10110,kill,1.0,4800.0,1.35203173129
507,1_34_1,34,1.0,1767.85114845,1_I,test,05,4,129.0,01101,kill,0.0,4700.0,0.828984403765
508,1_34_1,34,1.0,1770.08563849,1_I,test,05,4,130.0,01010,ignore,0.0,4600.0,0.325390034164
509,1_34_1,34,1.0,1772.13259045,1_I,test,05,4,131.0,11110,kill,0.0,4500.0,0.22164338414
510,1_34_1,34,1.0,1774.22644881,1_I,test,05,4,132.0,00101,kill,0.0,4400.0,0.199680749933
511,1_34_1,34,1.0,1776.32028248,1_I,test,05,4,133.0,10111,kill,1.0,4500.0,0.176678644691
512,1_34_1,34,1.0,1778.44538624,1_I,test,05,4,134.0,01101,kill,0.0,4400.0,0.26161314615
513,1_34_1,34,1.0,1780.94553056,1_I,test,05,4,135.0,10111,ignore,0.0,4300.0,0.555735339963
514,1_34_1,34,1.0,1782.99247161,1_I,test,05,4,136.0,11101,ignore,1.0,4400.0,0.209986298611
515,1_34_1,34,1.0,1785.13321169,1_I,test,05,4,137.0,11111,ignore,1.0,4500.0,0.236060632496
516,1_34_1,34,1.0,1787.3051776,1_I,test,05,4,138.0,01000,ignore,1.0,4600.0,0.235840294144
517,1_34_1,34,1.0,1789.52407429,1_I,test,05,4,139.0,00001,ignore,1.0,4700.0,0.350023990261
518,1_34_1,34,1.0,1791.75857074,1_I,test,05,4,140.0,01011,ignore,0.0,4600.0,0.3546806024
519,1_34_1,34,1.0,1795.30135808,1_I,test,05,4,141.0,11100,kill,0.0,4500.0,1.61363942511
520,1_34_1,34,1.0,1797.89749648,1_I,test,05,4,142.0,10000,ignore,1.0,4600.0,0.669331146413
521,1_34_1,34,1.0,1800.44447762,1_I,test,05,4,143.0,11000,ignore,1.0,4700.0,0.619194389102
522,1_34_1,34,1.0,1803.50714576,1_I,test,05,4,144.0,11110,kill,0.0,4600.0,1.23892214455
523,1_34_1,34,1.0,1805.71035128,1_I,test,05,4,145.0,01010,ignore,0.0,4500.0,0.269825320116
524,1_34_1,34,1.0,1808.17921847,1_I,test,05,4,146.0,10011,kill,1.0,4600.0,0.531760474571
525,1_34_1,34,1.0,1810.3980863,1_I,test,05,4,147.0,00111,kill,1.0,4700.0,0.354032416358
526,1_34_1,34,1.0,1813.53887769,1_I,test,05,4,148.0,01111,ignore,0.0,4600.0,1.22153465823
527,1_34_1,34,1.0,1815.94793632,1_I,test,05,4,149.0,00000,kill,0.0,4500.0,0.567967165416
528,1_34_1,34,1.0,1818.11992757,1_I,test,05,4,150.0,10001,ignore,1.0,4600.0,0.225350969809
529,1_34_1,34,1.0,1820.91696676,1_I,test,05,4,151.0,01110,kill,1.0,4700.0,0.874343635461
530,1_34_1,34,1.0,1824.1514908,1_I,test,05,4,152.0,00110,kill,1.0,4800.0,1.36194086337
531,1_34_1,34,1.0,1826.69844916,1_I,test,05,4,153.0,01001,ignore,1.0,4900.0,0.627866804023
532,1_34_1,34,1.0,1829.71425323,1_I,test,05,4,154.0,00011,kill,1.0,5000.0,1.167357723
533,1_34_1,34,1.0,1833.37063958,1_I,test,05,4,155.0,11011,kill,0.0,4900.0,1.76216960472
534,1_34_1,34,1.0,1836.08955166,1_I,test,05,4,156.0,10010,ignore,0.0,4800.0,0.779576334571
535,1_34_1,34,1.0,1838.16798185,1_I,test,05,4,157.0,11001,kill,0.0,4700.0,0.240161106785
536,1_34_1,34,1.0,1840.27748232,1_I,test,05,5,0.0,01100,ignore,1.0,4800.0,0.242478027102
537,1_34_1,34,1.0,1842.93382793,1_I,test,05,5,1.0,10110,ignore,0.0,4700.0,0.721984315245
538,1_34_1,34,1.0,1847.07466487,1_I,test,05,5,2.0,00010,ignore,1.0,4800.0,2.24634854128
539,1_34_1,34,1.0,1849.71544023,1_I,test,05,5,3.0,11010,ignore,1.0,4900.0,0.716921023294
540,1_34_1,34,1.0,1852.62179419,1_I,test,05,5,4.0,10100,kill,1.0,5000.0,1.06021972256
541,1_34_1,34,1.0,1855.7000993,1_I,test,05,5,5.0,00101,kill,1.0,5100.0,1.12099430007
542,1_34_1,34,1.0,1858.15329872,1_I,test,05,5,6.0,10101,kill,1.0,5200.0,0.524530682516
543,1_34_1,34,1.0,1860.26281073,1_I,test,05,5,7.0,00100,kill,1.0,5300.0,0.226478961055
544,1_34_1,34,1.0,1862.88789974,1_I,test,05,5,8.0,01111,ignore,0.0,5200.0,0.706728690683
545,1_34_1,34,1.0,1864.96615257,1_I,test,05,5,9.0,11100,kill,0.0,5100.0,0.235422068217
546,1_34_1,34,1.0,1867.16937797,1_I,test,05,5,10.0,11010,ignore,1.0,5200.0,0.275020750933
547,1_34_1,34,1.0,1869.68511565,1_I,test,05,5,11.0,01000,ignore,1.0,5300.0,0.585124691623
548,1_34_1,34,1.0,1871.88836639,1_I,test,05,5,12.0,10000,ignore,1.0,5400.0,0.316194516109
549,1_34_1,34,1.0,1874.40407905,1_I,test,05,5,13.0,01010,ignore,1.0,5500.0,0.601359811568
550,1_34_1,34,1.0,1877.12294688,1_I,test,05,5,14.0,11001,kill,0.0,5400.0,0.869243139363
551,1_34_1,34,1.0,1879.63867782,1_I,test,05,5,15.0,01110,ignore,0.0,5300.0,0.578172006318
552,1_34_1,34,1.0,1881.93566633,1_I,test,05,5,16.0,11110,ignore,0.0,5200.0,0.388511359452
553,1_34_1,34,1.0,1884.21703552,1_I,test,05,5,17.0,10100,kill,1.0,5300.0,0.400686095783
554,1_34_1,34,1.0,1886.48276133,1_I,test,05,5,18.0,11000,kill,0.0,5200.0,0.345650257927
555,1_34_1,34,1.0,1888.63914704,1_I,test,05,5,19.0,11011,ignore,1.0,5300.0,0.296432058171
556,1_34_1,34,1.0,1890.79548015,1_I,test,05,5,20.0,10111,ignore,0.0,5200.0,0.253859930236
557,1_34_1,34,1.0,1893.37374965,1_I,test,05,5,21.0,01100,kill,0.0,5100.0,0.636565518427
558,1_34_1,34,1.0,1895.71758172,1_I,test,05,5,22.0,01101,ignore,1.0,5200.0,0.503394557675
559,1_34_1,34,1.0,1897.93648643,1_I,test,05,5,23.0,00011,ignore,1.0,5300.0,0.358831109851
560,1_34_1,34,1.0,1900.15530743,1_I,test,05,5,24.0,10101,ignore,0.0,5200.0,0.281622241921
561,1_34_1,34,1.0,1902.57730829,1_I,test,05,5,25.0,10010,kill,0.0,5100.0,0.52022975485
562,1_34_1,34,1.0,1904.73367925,1_I,test,05,5,26.0,00010,ignore,1.0,5200.0,0.228367712958
563,1_34_1,34,1.0,1906.87437667,1_I,test,05,5,27.0,10011,ignore,1.0,5300.0,0.296069638465
564,1_34_1,34,1.0,1909.40571988,1_I,test,05,5,28.0,00100,ignore,0.0,5200.0,0.5640632958
565,1_34_1,34,1.0,1912.06211906,1_I,test,05,5,29.0,01001,kill,0.0,5100.0,0.734182464531
566,1_34_1,34,1.0,1914.40599057,1_I,test,05,5,30.0,10110,ignore,0.0,5000.0,0.467886086034
567,1_34_1,34,1.0,1916.54668671,1_I,test,05,5,31.0,11111,kill,1.0,5100.0,0.217686594832
568,1_34_1,34,1.0,1919.01556673,1_I,test,05,5,32.0,00001,kill,0.0,5000.0,0.63025075595
569,1_34_1,34,1.0,1921.46882934,1_I,test,05,5,33.0,10001,ignore,1.0,5100.0,0.517507758347
570,1_34_1,34,1.0,1924.1564553,1_I,test,05,5,34.0,00110,ignore,0.0,5000.0,0.778041342787
571,1_34_1,34,1.0,1926.51597982,1_I,test,05,5,35.0,00101,kill,1.0,5100.0,0.477762504122
572,1_34_1,34,1.0,1929.531747,1_I,test,05,5,36.0,00000,kill,0.0,5000.0,1.08375230762
573,1_34_1,34,1.0,1950.81400011,1_I,test,05,5,37.0,00111,ignore,0.0,4900.0,19.443909617
574,1_34_1,34,1.0,1953.23598911,1_I,test,05,5,38.0,01011,kill,0.0,4800.0,0.525693632831
575,1_34_1,34,1.0,1955.4079749,1_I,test,05,5,39.0,11101,ignore,1.0,4900.0,0.241732981989
576,1_34_1,34,1.0,1957.54868451,1_I,test,05,5,40.0,10111,ignore,0.0,4800.0,0.267178052633
577,1_34_1,34,1.0,1959.83383153,1_I,test,05,5,41.0,10011,ignore,1.0,4900.0,0.420418726259
578,1_34_1,34,1.0,1962.03710344,1_I,test,05,5,42.0,11111,ignore,0.0,4800.0,0.293045518632
579,1_34_1,34,1.0,1964.20905908,1_I,test,05,5,43.0,11101,kill,0.0,4700.0,0.275667333348
580,1_34_1,34,1.0,1966.49043052,1_I,test,05,5,44.0,11110,ignore,0.0,4600.0,0.362679173247
581,1_34_1,34,1.0,1968.83430011,1_I,test,05,5,45.0,01111,kill,1.0,4700.0,0.504925380028
582,1_34_1,34,1.0,1971.5531705,1_I,test,05,5,46.0,00100,kill,1.0,4800.0,0.814843299982
583,1_34_1,34,1.0,1973.91578072,1_I,test,05,5,47.0,11100,kill,0.0,4700.0,0.462451073339
584,1_34_1,34,1.0,1976.54089377,1_I,test,05,5,48.0,10001,ignore,1.0,4800.0,0.760792730566
585,1_34_1,34,1.0,1978.99691783,1_I,test,05,5,49.0,10101,ignore,0.0,4700.0,0.50635645678
586,1_34_1,34,1.0,1981.24700635,1_I,test,05,5,50.0,10100,kill,1.0,4800.0,0.393861379915
587,1_34_1,34,1.0,1983.59086632,1_I,test,05,5,51.0,10000,kill,0.0,4700.0,0.402571640434
588,1_34_1,34,1.0,1986.01290022,1_I,test,05,5,52.0,01000,ignore,1.0,4800.0,0.508031284839
589,1_34_1,34,1.0,1988.3410966,1_I,test,05,5,53.0,01001,ignore,1.0,4900.0,0.467201337297
590,1_34_1,34,1.0,1990.49746627,1_I,test,05,5,54.0,01101,ignore,1.0,5000.0,0.241935038995
591,1_34_1,34,1.0,1992.60695711,1_I,test,05,5,55.0,11001,ignore,1.0,5100.0,0.269509405593
592,1_34_1,34,1.0,1994.8726486,1_I,test,05,5,56.0,00110,ignore,0.0,5000.0,0.3150164917
593,1_34_1,34,1.0,1997.09150777,1_I,test,05,5,57.0,00000,kill,0.0,4900.0,0.270733935185
594,1_34_1,34,1.0,1999.185378,1_I,test,05,5,58.0,10010,ignore,1.0,5000.0,0.239344219181
595,1_34_1,34,1.0,2002.20113716,1_I,test,05,5,59.0,00101,kill,1.0,5100.0,1.08701665078
596,1_34_1,34,1.0,2004.57624797,1_I,test,05,5,60.0,01011,kill,0.0,5000.0,0.543920136809
597,1_34_1,34,1.0,2009.34215595,1_I,test,05,5,61.0,00011,ignore,1.0,5100.0,2.85202595823
598,1_34_1,34,1.0,2013.53612683,1_I,test,05,5,62.0,11011,ignore,1.0,5200.0,2.28126206729
599,1_34_1,34,1.0,2015.78623588,1_I,test,05,5,63.0,11010,ignore,1.0,5300.0,0.425798253458
600,1_34_1,34,1.0,2017.98943274,1_I,test,05,5,64.0,00001,ignore,1.0,5400.0,0.316012023354
601,1_34_1,34,1.0,2019.95829576,1_I,test,05,5,65.0,01010,ignore,1.0,5500.0,0.0487207546539
602,1_34_1,34,1.0,2022.08339598,1_I,test,05,5,66.0,10110,ignore,0.0,5400.0,0.224494953707
603,1_34_1,34,1.0,2024.52099052,1_I,test,05,5,67.0,00111,kill,1.0,5500.0,0.51255928609
604,1_34_1,34,1.0,2026.66170686,1_I,test,05,5,68.0,00010,kill,0.0,5400.0,0.305504096947
605,1_34_1,34,1.0,2032.11511893,1_I,test,05,5,69.0,01100,ignore,1.0,5500.0,3.40129675695
606,1_34_1,34,1.0,2038.56853902,1_I,test,05,5,70.0,11000,ignore,1.0,5600.0,4.53637956184
607,1_34_1,34,1.0,2050.25659604,1_I,test,05,5,71.0,01110,ignore,0.0,5500.0,9.8436261599
608,1_34_1,34,1.0,2058.85072606,1_I,test,05,5,72.0,00001,ignore,1.0,5600.0,6.66711140589
609,1_34_1,34,1.0,2060.94459276,1_I,test,05,5,73.0,00011,ignore,1.0,5700.0,0.256830809652
610,1_34_1,34,1.0,2063.1165654,1_I,test,05,5,74.0,11000,ignore,1.0,5800.0,0.247990013894
611,1_34_1,34,1.0,2065.27294245,1_I,test,05,5,75.0,01100,ignore,1.0,5900.0,0.23942664561
612,1_34_1,34,1.0,2067.64802728,1_I,test,05,5,76.0,01111,ignore,0.0,5800.0,0.505866388363
613,1_34_1,34,1.0,2069.92937595,1_I,test,05,5,77.0,10101,kill,1.0,5900.0,0.333458202424
614,1_34_1,34,1.0,2072.07013591,1_I,test,05,5,78.0,11001,kill,0.0,5800.0,0.301146721609
615,1_34_1,34,1.0,2074.55465417,1_I,test,05,5,79.0,00000,ignore,1.0,5900.0,0.603826831374
616,1_34_1,34,1.0,2076.96100941,1_I,test,05,5,80.0,01110,ignore,0.0,5800.0,0.484541676983
617,1_34_1,34,1.0,2079.38296441,1_I,test,05,5,81.0,10110,kill,1.0,5900.0,0.582068178524
618,1_34_1,34,1.0,2085.1488833,1_I,test,05,5,82.0,01101,kill,0.0,5800.0,3.91516364052
619,1_34_1,34,1.0,2087.39901287,1_I,test,05,5,83.0,11101,ignore,1.0,5900.0,0.400031174509
620,1_34_1,34,1.0,2089.80537484,1_I,test,05,5,84.0,00100,ignore,0.0,5800.0,0.488422775096
621,1_34_1,34,1.0,2092.30542841,1_I,test,05,5,85.0,10010,kill,0.0,5700.0,0.566489904206
622,1_34_1,34,1.0,2094.83858981,1_I,test,05,5,86.0,11110,ignore,0.0,5600.0,0.708626422898
623,1_34_1,34,1.0,2097.05747528,1_I,test,05,5,87.0,01000,ignore,1.0,5700.0,0.355826233542
624,1_34_1,34,1.0,2099.9951285,1_I,test,05,5,88.0,10001,ignore,1.0,5800.0,1.00672432882
625,1_34_1,34,1.0,2102.4170896,1_I,test,05,5,89.0,00101,ignore,0.0,5700.0,0.50280314003
626,1_34_1,34,1.0,2106.13610015,1_I,test,05,5,90.0,01010,ignore,1.0,5800.0,1.82080077436
627,1_34_1,34,1.0,2109.63626115,1_I,test,05,5,91.0,00111,kill,1.0,5900.0,1.65579653437
628,1_34_1,34,1.0,2112.19887541,1_I,test,05,5,92.0,00110,kill,1.0,6000.0,0.612853647866
629,1_34_1,34,1.0,2115.01152719,1_I,test,05,5,93.0,10011,ignore,1.0,6100.0,0.901417028979
630,1_34_1,34,1.0,2117.70129111,1_I,test,05,5,94.0,11100,ignore,1.0,6200.0,0.83697688083
631,1_34_1,34,1.0,2120.21704867,1_I,test,05,5,95.0,10111,ignore,0.0,6100.0,0.59673655487
632,1_34_1,34,1.0,2122.8421659,1_I,test,05,5,96.0,11111,ignore,0.0,6000.0,0.785327903239
633,1_34_1,34,1.0,2126.1235771,1_I,test,05,5,97.0,10100,kill,1.0,6100.0,1.34562363772
634,1_34_1,34,1.0,2128.76432167,1_I,test,05,5,98.0,01001,ignore,1.0,6200.0,0.725303823176
635,1_34_1,34,1.0,2131.26438999,1_I,test,05,5,99.0,01011,ignore,1.0,6300.0,0.635857998186
636,1_34_1,34,1.0,2133.98331298,1_I,test,05,5,100.0,10000,kill,0.0,6200.0,0.811578956822
637,1_34_1,34,1.0,2137.60849499,1_I,test,05,5,101.0,11010,ignore,1.0,6300.0,1.8086016629
638,1_34_1,34,1.0,2140.4836074,1_I,test,05,5,102.0,00010,ignore,1.0,6400.0,0.97700687507
639,1_34_1,34,1.0,2142.96808333,1_I,test,05,5,103.0,11011,ignore,1.0,6500.0,0.563322420117
