,unique_id,pair_id,sbj_id,wall_time,condition,block,rule_id,rule_num,trial,stimulus,choice,correct,points,reaction_time
0,2_9_1,9,1.0,46.5711686481,2_ND,training,04,1_A,1.0,11100,kill,1.0,100.0,5.16396395065
1,2_9_1,9,1.0,52.4776933046,2_ND,training,04,1_A,2.0,01001,ignore,1.0,200.0,3.74772105228
2,2_9_1,9,1.0,60.5718575153,2_ND,training,04,1_A,3.0,10011,ignore,1.0,300.0,5.97441092204
3,2_9_1,9,1.0,67.0128068548,2_ND,training,04,1_A,4.0,11101,ignore,1.0,400.0,4.32218624622
4,2_9_1,9,1.0,72.8412033747,2_ND,training,04,1_A,5.0,00110,ignore,0.0,300.0,3.68927530592
5,2_9_1,9,1.0,79.3727892514,2_ND,training,04,1_A,6.0,00001,ignore,1.0,400.0,4.41072826568
6,2_9_1,9,1.0,83.5604932585,2_ND,training,04,1_A,7.0,01011,ignore,1.0,500.0,2.02496302162
7,2_9_1,9,1.0,88.1170676096,2_ND,training,04,1_A,8.0,01110,ignore,0.0,400.0,2.44708263903
8,2_9_1,9,1.0,94.7299262731,2_ND,training,04,1_A,9.0,11111,ignore,1.0,500.0,4.50361983724
9,2_9_1,9,1.0,98.8113521873,2_ND,training,04,1_A,10.0,11001,ignore,1.0,600.0,1.96737692245
10,2_9_1,9,1.0,102.924144961,2_ND,training,04,1_A,11.0,01010,ignore,0.0,500.0,2.0325495929
11,2_9_1,9,1.0,110.424515874,2_ND,training,04,1_A,12.0,10101,ignore,1.0,600.0,5.38085080441
12,2_9_1,9,1.0,117.049777842,2_ND,training,04,1_A,13.0,10010,ignore,0.0,500.0,4.47104068627
13,2_9_1,9,1.0,121.315594797,2_ND,training,04,1_A,14.0,00101,ignore,1.0,600.0,2.09451069694
14,2_9_1,9,1.0,127.005785992,2_ND,training,04,1_A,15.0,10000,ignore,1.0,700.0,3.52464876187
15,2_9_1,9,1.0,135.630661243,2_ND,training,04,1_A,16.0,10110,ignore,0.0,600.0,6.41716658805
16,2_9_1,9,1.0,138.924759933,2_ND,training,04,1_A,17.0,01100,ignore,0.0,500.0,1.20000960637
17,2_9_1,9,1.0,146.277644288,2_ND,training,04,1_A,18.0,11110,ignore,0.0,400.0,5.25734856723
18,2_9_1,9,1.0,151.671666086,2_ND,training,04,1_A,19.0,00010,ignore,0.0,300.0,3.31255113649
19,2_9_1,9,1.0,157.189967252,2_ND,training,04,1_A,20.0,00111,ignore,1.0,400.0,3.37521137099
20,2_9_1,9,1.0,169.878087741,2_ND,training,04,1_A,21.0,11011,kill,0.0,300.0,10.5893197662
21,2_9_1,9,1.0,173.034479489,2_ND,training,04,1_A,22.0,01101,ignore,1.0,400.0,1.02789255477
22,2_9_1,9,1.0,176.753364591,2_ND,training,04,1_A,23.0,00011,ignore,1.0,500.0,1.59228583639
23,2_9_1,9,1.0,179.878511817,2_ND,training,04,1_A,24.0,01111,ignore,1.0,600.0,0.993345739512
24,2_9_1,9,1.0,183.253696503,2_ND,training,04,1_A,25.0,10111,ignore,1.0,700.0,1.2564199512
25,2_9_1,9,1.0,187.800782304,2_ND,training,04,1_A,26.0,00100,ignore,1.0,800.0,2.43328599937
26,2_9_1,9,1.0,190.879062336,2_ND,training,04,1_A,27.0,00000,ignore,1.0,900.0,0.976615871945
27,2_9_1,9,1.0,196.14497207,2_ND,training,04,1_A,28.0,11010,ignore,0.0,800.0,3.17851965796
28,2_9_1,9,1.0,203.004642259,2_ND,training,04,1_A,29.0,10001,ignore,1.0,900.0,4.73994974307
29,2_9_1,9,1.0,207.161104618,2_ND,training,04,1_A,30.0,10100,ignore,1.0,1000.0,2.00400799217
30,2_9_1,9,1.0,210.942557996,2_ND,training,04,1_A,31.0,11000,ignore,0.0,900.0,1.52178368173
31,2_9_1,9,1.0,214.208296129,2_ND,training,04,1_A,32.0,01000,ignore,0.0,800.0,1.13646262977
32,2_9_1,9,1.0,219.646111082,2_ND,training,04,1_A,33.0,00111,ignore,1.0,900.0,3.29970446035
33,2_9_1,9,1.0,226.615174046,2_ND,training,04,1_A,34.0,11101,kill,0.0,800.0,4.85486946623
34,2_9_1,9,1.0,229.896586166,2_ND,training,04,1_A,35.0,01101,ignore,1.0,900.0,1.13687110588
35,2_9_1,9,1.0,233.381117648,2_ND,training,04,1_A,36.0,00000,ignore,1.0,1000.0,1.36804148639
36,2_9_1,9,1.0,236.803142844,2_ND,training,04,1_A,37.0,01110,ignore,0.0,900.0,1.29212979441
37,2_9_1,9,1.0,243.256602226,2_ND,training,04,1_A,38.0,01010,ignore,0.0,800.0,4.3197226632
38,2_9_1,9,1.0,249.381900116,2_ND,training,04,1_A,39.0,11000,kill,1.0,900.0,4.01018644984
39,2_9_1,9,1.0,255.694624085,2_ND,training,04,1_A,40.0,00010,ignore,0.0,800.0,4.03344085081
40,2_9_1,9,1.0,260.835565583,2_ND,training,04,1_A,41.0,10001,kill,0.0,700.0,2.98141372143
41,2_9_1,9,1.0,264.55453895,2_ND,training,04,1_A,42.0,01100,ignore,0.0,600.0,1.57784712977
42,2_9_1,9,1.0,267.945331118,2_ND,training,04,1_A,43.0,00101,ignore,1.0,700.0,1.22946504409
43,2_9_1,9,1.0,272.917409005,2_ND,training,04,1_A,44.0,11110,kill,1.0,800.0,2.86891447578
44,2_9_1,9,1.0,277.839534575,2_ND,training,04,1_A,45.0,11010,kill,1.0,900.0,2.83204201515
45,2_9_1,9,1.0,282.464721417,2_ND,training,04,1_A,46.0,10000,kill,0.0,800.0,2.47953534714
46,2_9_1,9,1.0,288.152531136,2_ND,training,04,1_A,47.0,10101,kill,0.0,700.0,3.54258065761
47,2_9_1,9,1.0,294.880987716,2_ND,training,04,1_A,48.0,11001,ignore,1.0,800.0,4.60825170995
48,2_9_1,9,1.0,302.321944855,2_ND,training,04,1_A,49.0,01111,kill,0.0,700.0,5.34729459502
49,2_9_1,9,1.0,305.523554292,2_ND,training,04,1_A,50.0,01001,ignore,1.0,800.0,1.05869904261
50,2_9_1,9,1.0,312.657641603,2_ND,training,04,1_A,51.0,10011,ignore,1.0,900.0,4.99522924541
51,2_9_1,9,1.0,317.204702771,2_ND,training,04,1_A,52.0,00110,kill,1.0,1000.0,2.444840331
52,2_9_1,9,1.0,322.561296253,2_ND,training,04,1_A,53.0,00001,ignore,1.0,1100.0,3.26036595354
53,2_9_1,9,1.0,327.545930162,2_ND,training,04,1_A,54.0,11111,kill,0.0,1000.0,2.8704941904
54,2_9_1,9,1.0,332.53370051,2_ND,training,04,1_A,55.0,11011,ignore,1.0,1100.0,2.88386141699
55,2_9_1,9,1.0,340.45598865,2_ND,training,04,1_A,56.0,10100,kill,0.0,1000.0,5.78075055329
56,2_9_1,9,1.0,345.362452959,2_ND,training,04,1_A,57.0,11100,ignore,0.0,900.0,2.77000906858
57,2_9_1,9,1.0,350.378319895,2_ND,training,04,1_A,58.0,00100,kill,0.0,800.0,2.80951958694
58,2_9_1,9,1.0,354.150529397,2_ND,training,04,1_A,59.0,00011,ignore,1.0,900.0,1.65584718149
59,2_9_1,9,1.0,359.71325429,2_ND,training,04,1_A,60.0,01011,ignore,1.0,1000.0,3.45502103344
60,2_9_1,9,1.0,366.13542276,2_ND,training,04,1_A,61.0,10110,kill,1.0,1100.0,4.31399003975
61,2_9_1,9,1.0,372.557603547,2_ND,training,04,1_A,62.0,10010,kill,1.0,1200.0,4.30276577323
62,2_9_1,9,1.0,377.08910896,2_ND,training,04,1_A,63.0,01000,ignore,0.0,1100.0,2.41018144139
63,2_9_1,9,1.0,383.855016025,2_ND,training,04,1_A,64.0,10111,kill,0.0,1000.0,4.6366307413
64,2_9_1,9,1.0,386.964545095,2_ND,training,04,1_A,65.0,10011,ignore,1.0,1100.0,0.980614011428
65,2_9_1,9,1.0,394.543010071,2_ND,training,04,1_A,66.0,00100,ignore,1.0,1200.0,5.43950058357
66,2_9_1,9,1.0,400.043273835,2_ND,training,04,1_A,67.0,01110,ignore,0.0,1100.0,3.44565235687
67,2_9_1,9,1.0,403.215322329,2_ND,training,04,1_A,68.0,11011,ignore,1.0,1200.0,1.0516703799
68,2_9_1,9,1.0,406.262364407,2_ND,training,04,1_A,69.0,00000,ignore,1.0,1300.0,0.919941967656
69,2_9_1,9,1.0,410.73132125,2_ND,training,04,1_A,70.0,10101,ignore,1.0,1400.0,2.32354345426
70,2_9_1,9,1.0,414.544012992,2_ND,training,04,1_A,71.0,10001,ignore,1.0,1500.0,1.68473896324
71,2_9_1,9,1.0,417.95043358,2_ND,training,04,1_A,72.0,01101,ignore,1.0,1600.0,1.30773440268
72,2_9_1,9,1.0,424.419456517,2_ND,training,04,1_A,73.0,11100,kill,1.0,1700.0,4.34672806535
73,2_9_1,9,1.0,429.20091277,2_ND,training,04,1_A,74.0,10110,kill,1.0,1800.0,2.64015882536
74,2_9_1,9,1.0,434.841849136,2_ND,training,04,1_A,75.0,11111,kill,0.0,1700.0,3.42656071741
75,2_9_1,9,1.0,441.357765131,2_ND,training,04,1_A,76.0,00101,ignore,1.0,1800.0,4.26363827819
76,2_9_1,9,1.0,445.357976553,2_ND,training,04,1_A,77.0,01001,ignore,1.0,1900.0,1.88668133896
77,2_9_1,9,1.0,449.092545906,2_ND,training,04,1_A,78.0,11010,ignore,0.0,1800.0,1.63086527555
78,2_9_1,9,1.0,456.35851763,2_ND,training,04,1_A,79.0,00110,kill,1.0,1900.0,5.116652565
79,2_9_1,9,1.0,459.983714735,2_ND,training,04,1_A,80.0,10111,kill,0.0,1800.0,1.48798115509
80,2_9_1,9,1.0,466.296457178,2_ND,training,04,1_A,81.0,11110,kill,1.0,1900.0,4.1889630988
81,2_9_1,9,1.0,470.218521169,2_ND,training,04,1_A,82.0,01011,ignore,1.0,2000.0,1.80243262915
82,2_9_1,9,1.0,474.421882742,2_ND,training,04,1_A,83.0,00111,ignore,1.0,2100.0,2.07415996581
83,2_9_1,9,1.0,477.953319597,2_ND,training,04,1_A,84.0,00001,ignore,1.0,2200.0,1.41830908956
84,2_9_1,9,1.0,481.437838353,2_ND,training,04,1_A,85.0,11000,ignore,0.0,2100.0,1.37218372147
85,2_9_1,9,1.0,485.266165083,2_ND,training,04,1_A,86.0,01111,ignore,1.0,2200.0,1.74944363091
86,2_9_1,9,1.0,488.297515521,2_ND,training,04,1_A,87.0,11001,ignore,1.0,2300.0,0.906142454297
87,2_9_1,9,1.0,491.469580025,2_ND,training,04,1_A,88.0,01010,ignore,0.0,2200.0,1.07963436668
88,2_9_1,9,1.0,498.204299221,2_ND,training,04,1_A,89.0,10000,kill,0.0,2100.0,4.62351147407
89,2_9_1,9,1.0,502.204465485,2_ND,training,04,1_A,90.0,00010,ignore,0.0,2000.0,1.86617542797
90,2_9_1,9,1.0,506.251541228,2_ND,training,04,1_A,91.0,10100,kill,0.0,1900.0,1.90912248248
91,2_9_1,9,1.0,509.876726017,2_ND,training,04,1_A,92.0,01000,ignore,0.0,1800.0,1.49657680603
92,2_9_1,9,1.0,515.84577256,2_ND,training,04,1_A,93.0,11101,kill,0.0,1700.0,3.84169272498
93,2_9_1,9,1.0,521.330380811,2_ND,training,04,1_A,94.0,01100,ignore,0.0,1600.0,3.33863161736
94,2_9_1,9,1.0,525.002436899,2_ND,training,04,1_A,95.0,00011,ignore,1.0,1700.0,1.53948978666
95,2_9_1,9,1.0,528.408851328,2_ND,training,04,1_A,96.0,10010,ignore,0.0,1600.0,1.26744552181
96,2_9_1,9,1.0,532.752816535,2_ND,training,04,1_A,97.0,11100,kill,1.0,1700.0,2.22103770994
97,2_9_1,9,1.0,536.706110269,2_ND,training,04,1_A,98.0,00110,kill,1.0,1800.0,1.8252297011
98,2_9_1,9,1.0,542.253272427,2_ND,training,04,1_A,99.0,01110,ignore,0.0,1700.0,3.43548355976
99,2_9_1,9,1.0,545.690943284,2_ND,training,04,1_A,100.0,00111,ignore,1.0,1800.0,1.31041761858
100,2_9_1,9,1.0,551.128699942,2_ND,training,04,1_A,101.0,01001,ignore,1.0,1900.0,3.3175735452
101,2_9_1,9,1.0,555.50390926,2_ND,training,04,1_A,102.0,10100,kill,0.0,1800.0,2.2273031997
102,2_9_1,9,1.0,558.425912082,2_ND,training,04,1_A,103.0,00010,ignore,0.0,1700.0,0.819550856917
103,2_9_1,9,1.0,562.176056485,2_ND,training,04,1_A,104.0,01011,ignore,1.0,1800.0,1.64341062358
104,2_9_1,9,1.0,568.629509299,2_ND,training,04,1_A,105.0,10110,kill,1.0,1900.0,4.2934204968
105,2_9_1,9,1.0,573.582872412,2_ND,training,04,1_A,106.0,11111,kill,0.0,1800.0,2.83582134282
106,2_9_1,9,1.0,578.301873694,2_ND,training,04,1_A,107.0,01010,ignore,0.0,1700.0,2.61634528424
107,2_9_1,9,1.0,581.739508014,2_ND,training,04,1_A,108.0,11001,ignore,1.0,1800.0,1.30436806694
108,2_9_1,9,1.0,585.567874976,2_ND,training,04,1_A,109.0,00100,ignore,1.0,1900.0,1.68269986695
109,2_9_1,9,1.0,591.599386752,2_ND,training,04,1_A,110.0,10011,ignore,1.0,2000.0,3.91251221836
110,2_9_1,9,1.0,596.834008037,2_ND,training,04,1_A,111.0,11101,ignore,1.0,2100.0,3.10209891033
111,2_9_1,9,1.0,601.115501032,2_ND,training,04,1_A,112.0,10001,ignore,1.0,2200.0,2.14910814682
112,2_9_1,9,1.0,604.600004598,2_ND,training,04,1_A,113.0,00011,ignore,1.0,2300.0,1.36398382024
113,2_9_1,9,1.0,610.662765001,2_ND,training,04,1_A,114.0,00101,ignore,1.0,2400.0,3.9176035959
114,2_9_1,9,1.0,618.225679559,2_ND,training,04,1_A,115.0,11011,ignore,1.0,2500.0,5.44431321209
115,2_9_1,9,1.0,621.835216634,2_ND,training,04,1_A,116.0,11000,ignore,0.0,2400.0,1.50003838444
116,2_9_1,9,1.0,625.163522632,2_ND,training,04,1_A,117.0,01111,ignore,1.0,2500.0,1.21167929658
117,2_9_1,9,1.0,631.898200365,2_ND,training,04,1_A,118.0,11110,kill,1.0,2600.0,4.62881878974
118,2_9_1,9,1.0,635.835901806,2_ND,training,04,1_A,119.0,00000,ignore,1.0,2700.0,1.81627606909
119,2_9_1,9,1.0,640.898586262,2_ND,training,04,1_A,120.0,10101,kill,0.0,2600.0,2.94200460367
120,2_9_1,9,1.0,644.195705212,2_ND,training,04,1_A,121.0,10010,ignore,0.0,2500.0,1.19753904436
121,2_9_1,9,1.0,647.16457646,2_ND,training,04,1_A,122.0,00001,ignore,1.0,2600.0,0.848878620197
122,2_9_1,9,1.0,651.758485937,2_ND,training,04,1_A,123.0,01000,ignore,0.0,2500.0,2.47765348336
123,2_9_1,9,1.0,658.118198206,2_ND,training,04,1_A,124.0,10000,kill,0.0,2400.0,4.24391401393
124,2_9_1,9,1.0,660.899603142,2_ND,training,04,1_A,125.0,01100,ignore,0.0,2300.0,0.666626434849
125,2_9_1,9,1.0,665.821706954,2_ND,training,04,1_A,126.0,10111,kill,0.0,2200.0,2.80272040981
126,2_9_1,9,1.0,668.712458685,2_ND,training,04,1_A,127.0,01101,ignore,1.0,2300.0,0.76848025952
127,2_9_1,9,1.0,672.603278154,2_ND,training,04,1_A,128.0,11010,ignore,0.0,2200.0,1.77179897392
128,2_9_1,9,1.0,676.119039379,2_ND,training,04,1_A,129.0,10100,kill,0.0,2100.0,1.39115343389
129,2_9_1,9,1.0,679.759855872,2_ND,training,04,1_A,130.0,10110,kill,1.0,2200.0,1.53132765408
130,2_9_1,9,1.0,683.68193382,2_ND,training,04,1_A,131.0,00110,kill,1.0,2300.0,1.80629077833
131,2_9_1,9,1.0,687.916482852,2_ND,training,04,1_A,132.0,01100,ignore,0.0,2200.0,2.09250772718
132,2_9_1,9,1.0,692.916726296,2_ND,training,04,1_A,133.0,11111,kill,0.0,2100.0,2.89310241912
133,2_9_1,9,1.0,695.745018131,2_ND,training,04,1_A,134.0,01010,ignore,0.0,2000.0,0.728419222105
134,2_9_1,9,1.0,699.260792903,2_ND,training,04,1_A,135.0,11110,ignore,0.0,1900.0,1.4080253444
135,2_9_1,9,1.0,705.104833853,2_ND,training,04,1_A,136.0,01110,ignore,0.0,1800.0,3.74292689756
136,2_9_1,9,1.0,709.042520515,2_ND,training,04,1_A,137.0,11001,ignore,1.0,1900.0,1.79570816825
137,2_9_1,9,1.0,711.980174335,2_ND,training,04,1_A,138.0,01011,ignore,1.0,2000.0,0.822897076748
138,2_9_1,9,1.0,716.386635154,2_ND,training,04,1_A,139.0,11101,ignore,1.0,2100.0,2.27339408338
139,2_9_1,9,1.0,720.214929453,2_ND,training,04,1_A,140.0,11010,ignore,0.0,2000.0,1.6845070145
140,2_9_1,9,1.0,723.215056717,2_ND,training,04,1_A,141.0,10101,ignore,1.0,2100.0,0.881205706514
141,2_9_1,9,1.0,726.62148182,2_ND,training,04,1_A,142.0,01101,ignore,1.0,2200.0,1.28107589732
142,2_9_1,9,1.0,729.637224366,2_ND,training,04,1_A,143.0,00111,ignore,1.0,2300.0,0.880482765387
143,2_9_1,9,1.0,733.231182286,2_ND,training,04,1_A,144.0,00010,ignore,0.0,2200.0,1.49195999972
144,2_9_1,9,1.0,736.309452465,2_ND,training,04,1_A,145.0,00001,ignore,1.0,2300.0,0.958460648562
145,2_9_1,9,1.0,740.028394631,2_ND,training,04,1_A,146.0,00101,ignore,1.0,2400.0,1.56887256079
146,2_9_1,9,1.0,744.403594097,2_ND,training,04,1_A,147.0,10011,ignore,1.0,2500.0,2.26723533109
147,2_9_1,9,1.0,747.309989027,2_ND,training,04,1_A,148.0,01111,ignore,1.0,2600.0,0.789614690032
148,2_9_1,9,1.0,750.18514395,2_ND,training,04,1_A,149.0,00011,ignore,1.0,2700.0,0.767273715527
149,2_9_1,9,1.0,752.904017147,2_ND,training,04,1_A,150.0,01001,ignore,1.0,2800.0,0.584626190995
150,2_9_1,9,1.0,756.451057378,2_ND,training,04,1_A,151.0,10111,ignore,1.0,2900.0,1.40757951018
151,2_9_1,9,1.0,761.482551502,2_ND,training,04,1_A,152.0,10000,ignore,1.0,3000.0,2.90452866579
152,2_9_1,9,1.0,764.701428188,2_ND,training,04,1_A,153.0,01000,ignore,0.0,2900.0,1.09901953419
153,2_9_1,9,1.0,768.545395243,2_ND,training,04,1_A,154.0,11011,ignore,1.0,3000.0,1.74099289662
154,2_9_1,9,1.0,772.748701395,2_ND,training,04,1_A,155.0,00100,kill,0.0,2900.0,2.04681259322
155,2_9_1,9,1.0,775.623829634,2_ND,training,04,1_A,156.0,10001,ignore,1.0,3000.0,0.750970797859
156,2_9_1,9,1.0,778.592752197,2_ND,training,04,1_A,157.0,10010,ignore,0.0,2900.0,0.858955869391
157,2_9_1,9,1.0,781.796033718,2_ND,training,04,1_A,158.0,00000,ignore,1.0,3000.0,1.06304941576
158,2_9_1,9,1.0,785.093051678,2_ND,training,04,1_A,159.0,11000,ignore,0.0,2900.0,1.20620982206
159,2_9_1,9,1.0,789.296357419,2_ND,training,04,1_A,160.0,11100,ignore,0.0,2800.0,2.08520031545
160,2_9_1,9,1.0,792.327780111,2_ND,training,04,1_A,161.0,00010,ignore,0.0,2700.0,0.898786600177
161,2_9_1,9,1.0,795.593595423,2_ND,training,04,1_A,162.0,00011,ignore,1.0,2800.0,1.1645001012
162,2_9_1,9,1.0,800.000019705,2_ND,training,04,1_A,163.0,11110,kill,1.0,2900.0,2.33267771892
163,2_9_1,9,1.0,802.98452635,2_ND,training,04,1_A,164.0,10000,ignore,1.0,3000.0,0.854470432283
164,2_9_1,9,1.0,806.250310873,2_ND,training,04,1_A,165.0,01000,ignore,0.0,2900.0,1.12842283476
165,2_9_1,9,1.0,809.266055061,2_ND,training,04,1_A,166.0,11000,ignore,0.0,2800.0,0.89068851008
166,2_9_1,9,1.0,812.344369988,2_ND,training,04,1_A,167.0,01110,ignore,0.0,2700.0,0.985970590541
167,2_9_1,9,1.0,816.469557856,2_ND,training,04,1_A,168.0,00110,ignore,0.0,2600.0,2.00400183424
168,2_9_1,9,1.0,819.766609891,2_ND,training,04,1_A,169.0,01001,ignore,1.0,2700.0,1.19858425056
169,2_9_1,9,1.0,822.660539115,2_ND,training,04,1_A,170.0,01100,ignore,0.0,2600.0,0.773758838171
170,2_9_1,9,1.0,825.910674281,2_ND,training,04,1_A,171.0,11011,ignore,1.0,2700.0,1.15517617225
171,2_9_1,9,1.0,828.926477996,2_ND,training,04,1_A,172.0,01011,ignore,1.0,2800.0,0.869821744312
172,2_9_1,9,1.0,833.754817452,2_ND,training,04,1_A,173.0,00101,ignore,1.0,2900.0,2.69007214222
173,2_9_1,9,1.0,838.067530748,2_ND,training,04,1_A,174.0,00111,ignore,1.0,3000.0,2.19390832811
174,2_9_1,9,1.0,841.880223722,2_ND,training,04,1_A,175.0,10110,kill,1.0,3100.0,1.71061089552
175,2_9_1,9,1.0,992.639951919,2_ND,test,04,2,0.0,00100,,,0.0,
176,2_9_1,9,1.0,1004.26821937,2_ND,test,04,2,1.0,10001,kill,1.0,100.0,9.50122563358
177,2_9_1,9,1.0,1011.39364575,2_ND,test,04,2,2.0,00001,ignore,0.0,0.0,4.9788499694
178,2_9_1,9,1.0,1021.15971949,2_ND,test,04,2,3.0,01010,ignore,1.0,100.0,7.63490118368
179,2_9_1,9,1.0,1026.74450415,2_ND,test,04,2,4.0,10111,kill,0.0,0.0,3.47819743395
180,2_9_1,9,1.0,1031.84166194,2_ND,test,04,2,5.0,00000,ignore,0.0,0.0,2.99851388593
181,2_9_1,9,1.0,1039.04508755,2_ND,test,04,2,6.0,01111,ignore,1.0,100.0,5.10090878749
182,2_9_1,9,1.0,1049.63936199,2_ND,test,04,2,7.0,11001,kill,1.0,200.0,8.48589238481
183,2_9_1,9,1.0,1056.59281172,2_ND,test,04,2,8.0,10011,kill,0.0,100.0,4.83084080804
184,2_9_1,9,1.0,1064.51510725,2_ND,test,04,2,9.0,11101,kill,1.0,200.0,5.81669439788
185,2_9_1,9,1.0,1069.65596049,2_ND,test,04,2,10.0,01101,ignore,1.0,300.0,3.02446422919
186,2_9_1,9,1.0,1074.85930892,2_ND,test,04,2,11.0,11010,kill,0.0,200.0,3.11733486378
187,2_9_1,9,1.0,1079.51578791,2_ND,test,04,2,12.0,10010,ignore,1.0,300.0,2.534146755
188,2_9_1,9,1.0,1085.34418689,2_ND,test,04,2,13.0,10100,ignore,0.0,200.0,3.71589234787
189,2_9_1,9,1.0,1093.03208734,2_ND,test,04,2,14.0,11100,kill,1.0,300.0,5.59536315989
190,2_9_1,9,1.0,1104.64198445,2_ND,test,04,2,15.0,11111,kill,0.0,200.0,9.49971899307
191,2_9_1,9,1.0,1110.57977703,2_ND,test,04,2,16.0,10101,kill,1.0,300.0,3.80979874649
192,2_9_1,9,1.0,1123.47426211,2_ND,test,04,2,17.0,11100,kill,1.0,400.0,10.771228339
193,2_9_1,9,1.0,1129.38395071,2_ND,test,04,2,18.0,01111,ignore,1.0,500.0,3.81232760358
194,2_9_1,9,1.0,1136.33127412,2_ND,test,04,2,19.0,11000,ignore,0.0,400.0,4.87271638252
195,2_9_1,9,1.0,1144.69430059,2_ND,test,04,2,20.0,00111,ignore,1.0,500.0,6.24374241292
196,2_9_1,9,1.0,1148.94452032,2_ND,test,04,2,21.0,00001,ignore,0.0,400.0,2.11302841721
197,2_9_1,9,1.0,1155.2885742,2_ND,test,04,2,22.0,10110,kill,0.0,300.0,4.21489661039
198,2_9_1,9,1.0,1162.27328488,2_ND,test,04,2,23.0,00011,ignore,1.0,400.0,4.86461747136
199,2_9_1,9,1.0,1173.61755552,2_ND,test,04,2,24.0,10011,ignore,1.0,500.0,9.17229891583
200,2_9_1,9,1.0,1182.33678383,2_ND,test,04,2,25.0,01110,ignore,1.0,600.0,6.62376394925
201,2_9_1,9,1.0,1190.85277043,2_ND,test,04,2,26.0,10010,ignore,1.0,700.0,6.3528363226
202,2_9_1,9,1.0,1194.97795214,2_ND,test,04,2,27.0,00110,ignore,1.0,800.0,2.02051945845
203,2_9_1,9,1.0,1201.79080522,2_ND,test,04,2,28.0,00100,kill,0.0,700.0,4.6942644618
204,2_9_1,9,1.0,1215.24457866,2_ND,test,04,2,29.0,11101,kill,1.0,800.0,11.3100752376
205,2_9_1,9,1.0,1221.01046068,2_ND,test,04,2,30.0,01010,ignore,1.0,900.0,3.66889460619
206,2_9_1,9,1.0,1225.96379506,2_ND,test,04,2,31.0,00010,ignore,1.0,1000.0,2.84314435463
207,2_9_1,9,1.0,1233.37041393,2_ND,test,04,2,32.0,11010,kill,0.0,900.0,5.3600119546
208,2_9_1,9,1.0,1244.41782384,2_ND,test,04,2,33.0,00101,ignore,1.0,1000.0,8.877735507
209,2_9_1,9,1.0,1252.48074025,2_ND,test,04,2,34.0,01100,ignore,1.0,1100.0,5.93622723259
210,2_9_1,9,1.0,1257.15286325,2_ND,test,04,2,35.0,10100,kill,1.0,1200.0,2.54034409699
211,2_9_1,9,1.0,1264.91886228,2_ND,test,04,2,36.0,11110,kill,0.0,1100.0,5.62931019265
212,2_9_1,9,1.0,1272.32543148,2_ND,test,04,2,37.0,00000,ignore,0.0,1000.0,5.28766775744
213,2_9_1,9,1.0,1279.27891611,2_ND,test,04,2,38.0,11001,kill,1.0,1100.0,4.84829566937
214,2_9_1,9,1.0,1285.02916684,2_ND,test,04,2,39.0,10101,kill,1.0,1200.0,3.62568070798
215,2_9_1,9,1.0,1289.07623149,2_ND,test,04,2,40.0,11111,kill,0.0,1100.0,1.95943195958
216,2_9_1,9,1.0,1295.26402705,2_ND,test,04,2,41.0,01011,ignore,1.0,1200.0,4.07463700022
217,2_9_1,9,1.0,1303.68633674,2_ND,test,04,2,42.0,10111,kill,0.0,1100.0,6.31470148607
218,2_9_1,9,1.0,1312.35862355,2_ND,test,04,2,43.0,11011,kill,0.0,1000.0,6.52324598513
219,2_9_1,9,1.0,1320.23396772,2_ND,test,04,2,44.0,10001,kill,1.0,1100.0,5.72841716946
220,2_9_1,9,1.0,1325.71858377,2_ND,test,04,2,45.0,01001,ignore,0.0,1000.0,3.37457340931
221,2_9_1,9,1.0,1332.68771653,2_ND,test,04,2,46.0,10000,kill,1.0,1100.0,4.83569243679
222,2_9_1,9,1.0,1337.84419408,2_ND,test,04,2,47.0,01000,ignore,0.0,1000.0,3.04915014391
223,2_9_1,9,1.0,1346.00088223,2_ND,test,04,2,48.0,01101,ignore,1.0,1100.0,6.07771760795
224,2_9_1,9,1.0,1356.78257987,2_ND,test,04,2,49.0,11100,kill,1.0,1200.0,8.67544295026
225,2_9_1,9,1.0,1363.11106609,2_ND,test,04,2,50.0,01010,ignore,1.0,1300.0,4.24561811877
226,2_9_1,9,1.0,1368.40816698,2_ND,test,04,2,51.0,10100,kill,1.0,1400.0,3.189244311
227,2_9_1,9,1.0,1373.68965176,2_ND,test,04,2,52.0,01011,ignore,1.0,1500.0,3.14808880394
228,2_9_1,9,1.0,1377.59612633,2_ND,test,04,2,53.0,00000,ignore,0.0,1400.0,1.78992422871
229,2_9_1,9,1.0,1386.03402996,2_ND,test,04,2,54.0,01111,ignore,1.0,1500.0,6.32919684566
230,2_9_1,9,1.0,1393.45623825,2_ND,test,04,3,0.0,00101,ignore,1.0,1600.0,5.30065606599
231,2_9_1,9,1.0,1400.09719761,2_ND,test,04,3,1.0,01001,ignore,1.0,1700.0,4.4897020916
232,2_9_1,9,1.0,1404.5036494,2_ND,test,04,3,2.0,11001,kill,0.0,1600.0,2.31262462113
233,2_9_1,9,1.0,1409.20695698,2_ND,test,04,3,3.0,11101,kill,0.0,1500.0,2.49421749731
234,2_9_1,9,1.0,1415.28545829,2_ND,test,04,3,4.0,10010,kill,1.0,1600.0,3.80455218908
235,2_9_1,9,1.0,1427.52037926,2_ND,test,04,3,5.0,01100,ignore,1.0,1700.0,10.1571142785
236,2_9_1,9,1.0,1436.58332728,2_ND,test,04,3,6.0,11111,kill,0.0,1600.0,6.94694121187
237,2_9_1,9,1.0,1445.56816604,2_ND,test,04,3,7.0,00011,kill,1.0,1700.0,6.84283892125
238,2_9_1,9,1.0,1464.7878018,2_ND,test,04,3,8.0,01110,ignore,1.0,1800.0,17.1305423947
239,2_9_1,9,1.0,1471.16308296,2_ND,test,04,3,9.0,01101,ignore,1.0,1900.0,4.22207634767
240,2_9_1,9,1.0,1477.68215304,2_ND,test,04,3,10.0,00100,ignore,0.0,1800.0,4.43565187655
241,2_9_1,9,1.0,1494.33182053,2_ND,test,04,3,11.0,00111,kill,1.0,1900.0,14.5624309542
242,2_9_1,9,1.0,1505.42924106,2_ND,test,04,3,12.0,10110,kill,1.0,2000.0,8.97515233696
243,2_9_1,9,1.0,1515.32039757,2_ND,test,04,3,13.0,01000,ignore,1.0,2100.0,7.82114452952
244,2_9_1,9,1.0,1527.4303031,2_ND,test,04,3,14.0,10001,kill,0.0,2000.0,10.019571137
245,2_9_1,9,1.0,1536.60262008,2_ND,test,04,3,15.0,11011,kill,0.0,1900.0,7.0621975686
246,2_9_1,9,1.0,1542.43104369,2_ND,test,04,3,16.0,10111,kill,1.0,2000.0,3.73349664167
247,2_9_1,9,1.0,1552.79090827,2_ND,test,04,3,17.0,00110,kill,1.0,2100.0,8.23858740342
248,2_9_1,9,1.0,1560.6194222,2_ND,test,04,3,18.0,10000,kill,1.0,2200.0,5.74823010793
249,2_9_1,9,1.0,1570.38551195,2_ND,test,04,3,19.0,11000,ignore,1.0,2300.0,7.65785384602
250,2_9_1,9,1.0,1577.22957548,2_ND,test,04,3,20.0,11010,kill,0.0,2200.0,4.72800746177
251,2_9_1,9,1.0,1598.21502511,2_ND,test,04,3,21.0,10011,kill,1.0,2300.0,18.8921027816
252,2_9_1,9,1.0,1609.68428081,2_ND,test,04,3,22.0,10101,kill,0.0,2200.0,9.32723657089
253,2_9_1,9,1.0,1621.24732961,2_ND,test,04,3,23.0,00010,ignore,0.0,2100.0,9.47260972715
254,2_9_1,9,1.0,1629.20082492,2_ND,test,04,3,24.0,00001,ignore,1.0,2200.0,5.8494098444
255,2_9_1,9,1.0,1640.74829949,2_ND,test,04,3,25.0,11110,kill,0.0,2100.0,9.44294615135
256,2_9_1,9,1.0,1647.77987818,2_ND,test,04,3,26.0,00101,ignore,1.0,2200.0,4.94229895278
257,2_9_1,9,1.0,1654.38952117,2_ND,test,04,3,27.0,11001,ignore,1.0,2300.0,4.48741955176
258,2_9_1,9,1.0,1670.7653627,2_ND,test,04,3,28.0,11100,kill,0.0,2200.0,14.2884489937
259,2_9_1,9,1.0,1680.86278898,2_ND,test,04,3,29.0,11010,kill,0.0,2100.0,8.05133497791
260,2_9_1,9,1.0,1687.42559721,2_ND,test,04,3,30.0,01100,ignore,1.0,2200.0,4.40659259907
261,2_9_1,9,1.0,1698.83240821,2_ND,test,04,3,31.0,00011,ignore,0.0,2100.0,9.29978820822
262,2_9_1,9,1.0,1706.91091157,2_ND,test,04,3,32.0,00111,kill,1.0,2200.0,5.91574554279
263,2_9_1,9,1.0,1713.03620371,2_ND,test,04,3,33.0,01011,ignore,1.0,2300.0,4.02220426843
264,2_9_1,9,1.0,1719.75531009,2_ND,test,04,3,34.0,01101,ignore,1.0,2400.0,4.56924983671
265,2_9_1,9,1.0,1733.69348158,2_ND,test,04,3,35.0,00010,ignore,0.0,2300.0,11.8052242246
266,2_9_1,9,1.0,1743.19393173,2_ND,test,04,3,36.0,11110,kill,0.0,2200.0,7.4216754253
267,2_9_1,9,1.0,1754.77261675,2_ND,test,04,3,37.0,11011,ignore,1.0,2300.0,9.51924332983
268,2_9_1,9,1.0,1761.27291664,2_ND,test,04,3,38.0,10010,kill,1.0,2400.0,4.36103622383
269,2_9_1,9,1.0,1773.72604554,2_ND,test,04,3,39.0,10001,kill,0.0,2300.0,10.2115959592
270,2_9_1,9,1.0,1781.64829838,2_ND,test,04,3,40.0,01110,ignore,1.0,2400.0,5.82427850599
271,2_9_1,9,1.0,1791.508118,2_ND,test,04,3,41.0,11000,ignore,1.0,2500.0,7.77716376361
272,2_9_1,9,1.0,1803.55561987,2_ND,test,04,3,42.0,11101,ignore,1.0,2600.0,9.91233199624
273,2_9_1,9,1.0,1811.72786952,2_ND,test,04,3,43.0,11111,kill,0.0,2500.0,6.04848919263
274,2_9_1,9,1.0,1829.41618378,2_ND,test,04,4,0.0,10000,kill,1.0,2600.0,15.5737221369
275,2_9_1,9,1.0,1836.90093613,2_ND,test,04,4,1.0,10111,kill,0.0,2500.0,5.36132646765
276,2_9_1,9,1.0,1844.47942943,2_ND,test,04,4,2.0,10011,kill,1.0,2600.0,5.47350755352
277,2_9_1,9,1.0,1850.05785705,2_ND,test,04,4,3.0,00110,ignore,1.0,2700.0,3.41473420521
278,2_9_1,9,1.0,1854.07364434,2_ND,test,04,4,4.0,01111,ignore,1.0,2800.0,1.86839187268
279,2_9_1,9,1.0,1857.93323776,2_ND,test,04,4,5.0,10110,ignore,1.0,2900.0,1.77939293472
280,2_9_1,9,1.0,1863.40222909,2_ND,test,04,4,6.0,01001,kill,0.0,2800.0,3.33673949036
281,2_9_1,9,1.0,1873.88711732,2_ND,test,04,4,7.0,01000,ignore,1.0,2900.0,8.38969113049
282,2_9_1,9,1.0,1881.93432854,2_ND,test,04,4,8.0,01010,kill,0.0,2800.0,5.97658590335
283,2_9_1,9,1.0,1888.30966512,2_ND,test,04,4,9.0,10100,ignore,1.0,2900.0,4.26487807501
284,2_9_1,9,1.0,1895.68502223,2_ND,test,04,4,10.0,00001,ignore,1.0,3000.0,5.2987183703
285,2_9_1,9,1.0,1901.98218962,2_ND,test,04,4,11.0,00000,ignore,1.0,3100.0,4.21283206131
286,2_9_1,9,1.0,1906.32612937,2_ND,test,04,4,12.0,00100,ignore,1.0,3200.0,2.18309623245
287,2_9_1,9,1.0,1909.85758101,2_ND,test,04,4,13.0,10101,ignore,1.0,3300.0,1.40956646933
288,2_9_1,9,1.0,1912.67023827,2_ND,test,04,4,14.0,11111,ignore,0.0,3200.0,0.706206743099
289,2_9_1,9,1.0,1926.9208948,2_ND,test,04,4,15.0,00100,ignore,1.0,3300.0,12.1398556499
290,2_9_1,9,1.0,1932.01488947,2_ND,test,04,4,16.0,10110,kill,0.0,3200.0,2.95420757072
291,2_9_1,9,1.0,1940.09338503,2_ND,test,04,4,17.0,10100,ignore,1.0,3300.0,5.9662980529
292,2_9_1,9,1.0,1947.79687859,2_ND,test,04,4,18.0,01011,ignore,1.0,3400.0,5.6163633475
293,2_9_1,9,1.0,1953.56282219,2_ND,test,04,4,19.0,00101,ignore,1.0,3500.0,3.64229111168
294,2_9_1,9,1.0,1961.48505409,2_ND,test,04,4,20.0,11010,kill,1.0,3600.0,5.84428234033
295,2_9_1,9,1.0,1970.26673366,2_ND,test,04,4,21.0,11000,ignore,0.0,3500.0,6.6438778053
296,2_9_1,9,1.0,1989.53327808,2_ND,test,04,4,22.0,10111,ignore,1.0,3600.0,17.148731692
297,2_9_1,9,1.0,1999.83066387,2_ND,test,04,4,23.0,01001,ignore,1.0,3700.0,8.20245389454
298,2_9_1,9,1.0,2005.64339995,2_ND,test,04,4,24.0,01111,ignore,1.0,3800.0,3.68255987664
299,2_9_1,9,1.0,2018.42528438,2_ND,test,04,4,25.0,01000,ignore,1.0,3900.0,10.6987847939
300,2_9_1,9,1.0,2027.92570374,2_ND,test,04,4,26.0,10001,ignore,0.0,3800.0,7.40539508671
301,2_9_1,9,1.0,2043.95775331,2_ND,test,04,4,27.0,10000,kill,1.0,3900.0,13.9095301375
302,2_9_1,9,1.0,2054.67701856,2_ND,test,04,4,28.0,00110,ignore,1.0,4000.0,8.61023251117
303,2_9_1,9,1.0,2061.25547738,2_ND,test,04,4,29.0,00010,ignore,1.0,4100.0,4.48865483276
304,2_9_1,9,1.0,2069.78709199,2_ND,test,04,4,30.0,10101,ignore,1.0,4200.0,6.38967101458
305,2_9_1,9,1.0,2074.52486101,2_ND,test,04,4,31.0,01100,ignore,1.0,4300.0,2.60301336312
306,2_9_1,9,1.0,2085.34105579,2_ND,test,04,4,32.0,00000,ignore,1.0,4400.0,8.66827840253
307,2_9_1,9,1.0,2097.53235315,2_ND,test,04,4,33.0,00011,ignore,1.0,4500.0,10.1006296279
308,2_9_1,9,1.0,2105.4389279,2_ND,test,04,4,34.0,11001,ignore,0.0,4400.0,5.84652464835
309,2_9_1,9,1.0,2113.8612302,2_ND,test,04,4,35.0,00111,ignore,1.0,4500.0,6.27123018634
310,2_9_1,9,1.0,2122.28352183,2_ND,test,04,4,36.0,00001,ignore,1.0,4600.0,6.28699613241
311,2_9_1,9,1.0,2128.0650569,2_ND,test,04,4,37.0,01110,ignore,1.0,4700.0,3.67462189276
312,2_9_1,9,1.0,2135.34665745,2_ND,test,04,4,38.0,10010,ignore,0.0,4600.0,5.19735184325
313,2_9_1,9,1.0,2142.47199434,2_ND,test,04,4,39.0,01101,ignore,1.0,4700.0,4.97582067776
314,2_9_1,9,1.0,2154.51940426,2_ND,test,04,4,40.0,10011,kill,1.0,4800.0,9.90831291979
315,2_9_1,9,1.0,2163.33236859,2_ND,test,04,4,41.0,11101,kill,1.0,4900.0,6.69213628077
316,2_9_1,9,1.0,2173.44218257,2_ND,test,04,4,42.0,01010,ignore,1.0,5000.0,7.98212516775
317,2_9_1,9,1.0,2183.78644336,2_ND,test,04,4,43.0,11110,kill,1.0,5100.0,8.28071627414
318,2_9_1,9,1.0,2190.30240615,2_ND,test,04,4,44.0,11100,kill,1.0,5200.0,4.38819926901
319,2_9_1,9,1.0,2210.00648635,2_ND,test,04,4,45.0,11011,ignore,0.0,5100.0,17.5712404906
