,unique_id,pair_id,sbj_id,wall_time,condition,block,rule_id,rule_num,trial,stimulus,choice,correct,points,reaction_time
0,1_29_1,29,1.0,33.3956940649,1_I,training,05,1_A,1.0,10011,kill,0.0,0.0,5.27625805462
1,1_29_1,29,1.0,35.5676607774,1_I,training,05,1_A,2.0,11111,kill,0.0,0.0,0.0200299621974
2,1_29_1,29,1.0,54.0373988632,1_I,training,05,1_A,3.0,11010,kill,1.0,100.0,16.3237482316
3,1_29_1,29,1.0,72.7882838256,1_I,training,05,1_A,4.0,01001,ignore,1.0,200.0,16.5933900355
4,1_29_1,29,1.0,87.3983852743,1_I,training,05,1_A,5.0,00110,ignore,0.0,100.0,12.4530956285
5,1_29_1,29,1.0,101.070921435,1_I,training,05,1_A,6.0,10000,kill,1.0,200.0,11.5373047302
6,1_29_1,29,1.0,114.993462969,1_I,training,05,1_A,7.0,10001,kill,0.0,100.0,11.7875336481
7,1_29_1,29,1.0,128.744091992,1_I,training,05,1_A,8.0,01111,ignore,1.0,200.0,11.6287109168
8,1_29_1,29,1.0,143.119809976,1_I,training,05,1_A,9.0,10110,kill,0.0,100.0,12.2344719844
9,1_29_1,29,1.0,150.043237995,1_I,training,05,1_A,10.0,11110,kill,0.0,0.0,4.80922785605
10,1_29_1,29,1.0,159.512465165,1_I,training,05,1_A,11.0,11101,kill,0.0,0.0,7.35010867791
11,1_29_1,29,1.0,162.871997085,1_I,training,05,1_A,12.0,01010,ignore,0.0,0.0,1.24415148645
12,1_29_1,29,1.0,167.200358635,1_I,training,05,1_A,13.0,00000,ignore,0.0,0.0,2.21069594593
13,1_29_1,29,1.0,172.122457246,1_I,training,05,1_A,14.0,01100,ignore,0.0,0.0,2.78590019208
14,1_29_1,29,1.0,179.84467382,1_I,training,05,1_A,15.0,11000,ignore,0.0,0.0,5.60984486818
15,1_29_1,29,1.0,183.673000572,1_I,training,05,1_A,16.0,10010,ignore,0.0,0.0,1.71920784598
16,1_29_1,29,1.0,196.642372549,1_I,training,05,1_A,17.0,10111,ignore,1.0,100.0,10.8834630295
17,1_29_1,29,1.0,204.502116629,1_I,training,05,1_A,18.0,00101,ignore,1.0,200.0,5.7788839964
18,1_29_1,29,1.0,232.815972076,1_I,training,05,1_A,19.0,10100,ignore,1.0,300.0,26.2093844985
19,1_29_1,29,1.0,237.628775383,1_I,training,05,1_A,20.0,01101,ignore,1.0,400.0,2.72684528737
20,1_29_1,29,1.0,241.582046929,1_I,training,05,1_A,21.0,00011,kill,0.0,300.0,1.90829361413
21,1_29_1,29,1.0,246.472895951,1_I,training,05,1_A,22.0,01000,ignore,0.0,200.0,2.82601143259
22,1_29_1,29,1.0,250.225032065,1_I,training,05,1_A,23.0,00100,ignore,0.0,100.0,1.68285679372
23,1_29_1,29,1.0,254.865872186,1_I,training,05,1_A,24.0,10101,ignore,1.0,200.0,2.56104420595
24,1_29_1,29,1.0,260.853711229,1_I,training,05,1_A,25.0,11011,kill,0.0,100.0,3.94862615537
25,1_29_1,29,1.0,266.932190566,1_I,training,05,1_A,26.0,00010,kill,1.0,200.0,4.02422056436
26,1_29_1,29,1.0,272.026111242,1_I,training,05,1_A,27.0,00111,ignore,1.0,300.0,3.04063145761
27,1_29_1,29,1.0,278.245160169,1_I,training,05,1_A,28.0,01110,kill,1.0,400.0,4.16022911362
28,1_29_1,29,1.0,295.996027491,1_I,training,05,1_A,29.0,00001,kill,0.0,300.0,15.6824619804
29,1_29_1,29,1.0,301.965058858,1_I,training,05,1_A,30.0,11100,ignore,1.0,400.0,3.91062721441
30,1_29_1,29,1.0,307.355982769,1_I,training,05,1_A,31.0,11001,kill,0.0,300.0,3.33103191253
31,1_29_1,29,1.0,314.05937114,1_I,training,05,1_A,32.0,01011,ignore,1.0,400.0,4.63901551318
32,1_29_1,29,1.0,322.559973944,1_I,training,05,1_A,33.0,10000,ignore,0.0,300.0,6.4376703254
33,1_29_1,29,1.0,329.888316251,1_I,training,05,1_A,34.0,00011,kill,0.0,200.0,5.25054130482
34,1_29_1,29,1.0,334.247897883,1_I,training,05,1_A,35.0,10011,ignore,1.0,300.0,2.28785645856
35,1_29_1,29,1.0,341.748408318,1_I,training,05,1_A,36.0,00111,kill,0.0,200.0,5.43789900283
36,1_29_1,29,1.0,347.342438843,1_I,training,05,1_A,37.0,01101,ignore,1.0,300.0,3.49057018296
37,1_29_1,29,1.0,357.905497848,1_I,training,05,1_A,38.0,01001,kill,0.0,200.0,8.51195456984
38,1_29_1,29,1.0,361.577482361,1_I,training,05,1_A,39.0,00110,ignore,0.0,100.0,1.63378319391
39,1_29_1,29,1.0,367.624646039,1_I,training,05,1_A,40.0,10110,ignore,1.0,200.0,3.99538090829
40,1_29_1,29,1.0,372.12487616,1_I,training,05,1_A,41.0,01110,ignore,0.0,100.0,2.4778113934
41,1_29_1,29,1.0,405.704618354,1_I,training,05,1_A,42.0,11111,,,0.0,
42,1_29_1,29,1.0,412.126823606,1_I,training,05,1_A,43.0,00101,ignore,1.0,100.0,4.36304098009
43,1_29_1,29,1.0,417.423973092,1_I,training,05,1_A,44.0,11100,ignore,1.0,200.0,3.27007670797
44,1_29_1,29,1.0,422.830468237,1_I,training,05,1_A,45.0,10101,kill,0.0,100.0,3.36536560005
45,1_29_1,29,1.0,430.143317247,1_I,training,05,1_A,46.0,00010,ignore,0.0,0.0,5.28142975674
46,1_29_1,29,1.0,433.3934647,1_I,training,05,1_A,47.0,00100,ignore,0.0,0.0,1.1900530769
47,1_29_1,29,1.0,446.081571453,1_I,training,05,1_A,48.0,10001,ignore,1.0,100.0,10.6335025589
48,1_29_1,29,1.0,455.644541938,1_I,training,05,1_A,49.0,00001,ignore,1.0,200.0,7.52462227331
49,1_29_1,29,1.0,466.270069973,1_I,training,05,1_A,50.0,10111,ignore,1.0,300.0,8.57417696169
50,1_29_1,29,1.0,472.254721644,1_I,training,05,1_A,51.0,10010,kill,1.0,400.0,3.93285895862
51,1_29_1,29,1.0,476.598695801,1_I,training,05,1_A,52.0,11010,kill,1.0,500.0,2.29730664168
52,1_29_1,29,1.0,482.567747053,1_I,training,05,1_A,53.0,00000,ignore,0.0,400.0,3.91957385816
53,1_29_1,29,1.0,496.63093996,1_I,training,05,1_A,54.0,01000,kill,1.0,500.0,12.0367397718
54,1_29_1,29,1.0,502.849948475,1_I,training,05,1_A,55.0,01010,ignore,0.0,400.0,4.16629531975
55,1_29_1,29,1.0,517.038131721,1_I,training,05,1_A,56.0,01100,ignore,0.0,300.0,12.1522071221
56,1_29_1,29,1.0,527.41364829,1_I,training,05,1_A,57.0,01011,ignore,1.0,400.0,8.35850976722
57,1_29_1,29,1.0,545.367642111,1_I,training,05,1_A,58.0,11011,kill,0.0,300.0,15.918294804
58,1_29_1,29,1.0,559.968342448,1_I,training,05,1_A,59.0,11000,ignore,0.0,200.0,12.6198252109
59,1_29_1,29,1.0,570.765753165,1_I,training,05,1_A,60.0,11101,ignore,1.0,300.0,8.76639237135
60,1_29_1,29,1.0,581.547539408,1_I,training,05,1_A,61.0,10100,kill,0.0,200.0,8.74997313922
61,1_29_1,29,1.0,596.079509828,1_I,training,05,1_A,62.0,01111,ignore,1.0,300.0,12.5112951578
62,1_29_1,29,1.0,604.704899951,1_I,training,05,1_A,63.0,11110,kill,0.0,200.0,6.59784299129
63,1_29_1,29,1.0,610.611469344,1_I,training,05,1_A,64.0,11001,ignore,1.0,300.0,3.88603909839
64,1_29_1,29,1.0,621.971353421,1_I,training,05,1_A,65.0,01010,kill,1.0,400.0,9.36594803794
65,1_29_1,29,1.0,632.518751068,1_I,training,05,1_A,66.0,10011,ignore,1.0,500.0,8.53368149178
66,1_29_1,29,1.0,640.987929488,1_I,training,05,1_A,67.0,10010,kill,1.0,600.0,6.47238118636
67,1_29_1,29,1.0,654.222940933,1_I,training,05,1_A,68.0,11000,kill,1.0,700.0,11.2226076989
68,1_29_1,29,1.0,672.426918637,1_I,training,05,1_A,69.0,01000,kill,1.0,800.0,16.1781551151
69,1_29_1,29,1.0,679.944863722,1_I,training,05,1_A,70.0,00010,kill,1.0,900.0,5.48346546698
70,1_29_1,29,1.0,688.66406804,1_I,training,05,1_A,71.0,00100,ignore,0.0,800.0,6.68840855581
71,1_29_1,29,1.0,698.961431129,1_I,training,05,1_A,72.0,10101,ignore,1.0,900.0,8.29402818345
72,1_29_1,29,1.0,707.446192649,1_I,training,05,1_A,73.0,11101,ignore,1.0,1000.0,6.45651713044
73,1_29_1,29,1.0,714.680929232,1_I,training,05,1_A,74.0,00000,kill,1.0,1100.0,5.21427075472
74,1_29_1,29,1.0,723.275103442,1_I,training,05,1_A,75.0,01111,ignore,1.0,1200.0,6.60912451823
75,1_29_1,29,1.0,743.010429679,1_I,training,05,1_A,76.0,10110,kill,0.0,1100.0,17.7210456043
76,1_29_1,29,1.0,751.026492585,1_I,training,05,1_A,77.0,11110,ignore,1.0,1200.0,6.04565498445
77,1_29_1,29,1.0,757.683050191,1_I,training,05,1_A,78.0,00011,ignore,1.0,1300.0,4.62852970674
78,1_29_1,29,1.0,765.995955328,1_I,training,05,1_A,79.0,01100,kill,1.0,1400.0,6.29339667452
79,1_29_1,29,1.0,777.18395544,1_I,training,05,1_A,80.0,11100,ignore,1.0,1500.0,9.195320676
80,1_29_1,29,1.0,787.403213158,1_I,training,05,1_A,81.0,11001,ignore,1.0,1600.0,8.19392263262
81,1_29_1,29,1.0,792.122234342,1_I,training,05,1_A,82.0,01001,ignore,1.0,1700.0,2.70548880363
82,1_29_1,29,1.0,798.310031434,1_I,training,05,1_A,83.0,10100,ignore,1.0,1800.0,4.16917639882
83,1_29_1,29,1.0,811.373128124,1_I,training,05,1_A,84.0,10111,ignore,1.0,1900.0,11.0277729223
84,1_29_1,29,1.0,822.842448305,1_I,training,05,1_A,85.0,01101,ignore,1.0,2000.0,9.47211338039
85,1_29_1,29,1.0,832.249163467,1_I,training,05,1_A,86.0,10001,ignore,1.0,2100.0,7.38742062439
86,1_29_1,29,1.0,838.311955789,1_I,training,05,1_A,87.0,00001,ignore,1.0,2200.0,4.02682261206
87,1_29_1,29,1.0,850.206285326,1_I,training,05,1_A,88.0,11010,kill,1.0,2300.0,9.89269832636
88,1_29_1,29,1.0,1026.77732431,1_I,test,05,2,0.0,00101,ignore,0.0,0.0,5.08556801646
89,1_29_1,29,1.0,1044.45014688,1_I,test,05,2,1.0,00110,ignore,0.0,0.0,15.6841255846
90,1_29_1,29,1.0,1065.66982539,1_I,test,05,2,2.0,11011,kill,0.0,0.0,19.2434535873
91,1_29_1,29,1.0,1078.71734315,1_I,test,05,2,3.0,01011,ignore,1.0,100.0,11.0080742698
92,1_29_1,29,1.0,1094.79623397,1_I,test,05,2,4.0,00111,ignore,0.0,0.0,14.0683402348
93,1_29_1,29,1.0,1109.51572085,1_I,test,05,2,5.0,01110,ignore,0.0,0.0,12.6364885153
94,1_29_1,29,1.0,1141.42351381,1_I,test,05,2,6.0,11111,kill,1.0,100.0,29.908635187
95,1_29_1,29,1.0,1152.45526053,1_I,test,05,2,7.0,10000,ignore,1.0,200.0,9.0059398402
96,1_29_1,29,1.0,1168.6904256,1_I,test,05,2,8.0,10101,ignore,0.0,100.0,14.2202808338
97,1_29_1,29,1.0,1183.73804246,1_I,test,05,2,9.0,10000,kill,0.0,0.0,13.0467852219
98,1_29_1,29,1.0,1195.80114749,1_I,test,05,2,10.0,11011,ignore,1.0,100.0,10.0405153549
99,1_29_1,29,1.0,1215.3020707,1_I,test,05,2,11.0,01110,ignore,0.0,0.0,17.5257169102
100,1_29_1,29,1.0,1226.20883638,1_I,test,05,2,12.0,00001,ignore,1.0,100.0,8.88040298544
101,1_29_1,29,1.0,1242.52214242,1_I,test,05,2,13.0,11000,ignore,1.0,200.0,14.3168035577
102,1_29_1,29,1.0,1254.30400211,1_I,test,05,2,14.0,01011,ignore,1.0,300.0,9.80324503861
103,1_29_1,29,1.0,1260.56990618,1_I,test,05,2,15.0,10011,ignore,1.0,400.0,4.24992936016
104,1_29_1,29,1.0,1264.11693371,1_I,test,05,2,16.0,11111,kill,1.0,500.0,1.56288453008
105,1_29_1,29,1.0,1267.25769702,1_I,test,05,2,17.0,01111,kill,1.0,600.0,1.12994170169
106,1_29_1,29,1.0,1281.4459056,1_I,test,05,2,18.0,11010,kill,0.0,500.0,12.2020793289
107,1_29_1,29,1.0,1296.66538783,1_I,test,05,2,19.0,11100,kill,0.0,400.0,13.2392950577
108,1_29_1,29,1.0,1308.13470416,1_I,test,05,2,20.0,10100,ignore,0.0,300.0,9.46539738397
109,1_29_1,29,1.0,1321.80723615,1_I,test,05,2,21.0,00100,kill,1.0,400.0,11.6530036444
110,1_29_1,29,1.0,1334.58910354,1_I,test,05,2,22.0,11001,ignore,1.0,500.0,10.783868074
111,1_29_1,29,1.0,1347.58970907,1_I,test,05,2,23.0,00011,ignore,1.0,600.0,10.9986106162
112,1_29_1,29,1.0,1353.98344959,1_I,test,05,2,24.0,10001,ignore,1.0,700.0,4.38864515516
113,1_29_1,29,1.0,1366.31214245,1_I,test,05,2,25.0,10010,ignore,1.0,800.0,10.318791095
114,1_29_1,29,1.0,1379.01588779,1_I,test,05,2,26.0,00101,kill,1.0,900.0,10.6721095958
115,1_29_1,29,1.0,1385.17246223,1_I,test,05,2,27.0,00111,kill,1.0,1000.0,4.14601807803
116,1_29_1,29,1.0,1394.67291141,1_I,test,05,2,28.0,11101,kill,0.0,900.0,7.49503789214
117,1_29_1,29,1.0,1409.65798933,1_I,test,05,2,29.0,00000,ignore,1.0,1000.0,12.9963700264
118,1_29_1,29,1.0,1429.15898117,1_I,test,05,2,30.0,00010,ignore,1.0,1100.0,17.4878517118
119,1_29_1,29,1.0,1444.5660873,1_I,test,05,2,31.0,10110,kill,1.0,1200.0,13.4210888061
120,1_29_1,29,1.0,1454.84783521,1_I,test,05,3,0.0,01101,kill,0.0,1100.0,8.27256489805
121,1_29_1,29,1.0,1468.5047639,1_I,test,05,3,1.0,01010,ignore,1.0,1200.0,11.6690652674
122,1_29_1,29,1.0,1479.05216379,1_I,test,05,3,2.0,01100,kill,0.0,1100.0,8.55280476239
123,1_29_1,29,1.0,1488.97451546,1_I,test,05,3,3.0,10111,ignore,1.0,1200.0,7.90490129827
124,1_29_1,29,1.0,1500.39690994,1_I,test,05,3,4.0,00110,ignore,1.0,1300.0,9.40407719355
125,1_29_1,29,1.0,1510.17865513,1_I,test,05,3,5.0,01001,ignore,1.0,1400.0,7.79518712581
126,1_29_1,29,1.0,1518.05700451,1_I,test,05,3,6.0,01000,ignore,1.0,1500.0,5.89202544381
127,1_29_1,29,1.0,1526.44802143,1_I,test,05,3,7.0,11110,ignore,0.0,1400.0,6.41095483573
128,1_29_1,29,1.0,1542.76130855,1_I,test,05,3,8.0,00110,ignore,1.0,1500.0,14.3155075051
129,1_29_1,29,1.0,1564.14570794,1_I,test,05,3,9.0,00011,ignore,1.0,1600.0,19.3616416538
130,1_29_1,29,1.0,1572.77114072,1_I,test,05,3,10.0,00100,ignore,1.0,1700.0,6.63380853124
131,1_29_1,29,1.0,1578.30266116,1_I,test,05,3,11.0,00101,ignore,1.0,1800.0,3.50485145749
132,1_29_1,29,1.0,1581.50593743,1_I,test,05,3,12.0,00001,ignore,1.0,1900.0,1.20830429429
133,1_29_1,29,1.0,1590.94387557,1_I,test,05,3,13.0,11011,ignore,0.0,1800.0,7.44619200758
134,1_29_1,29,1.0,1599.10054591,1_I,test,05,3,14.0,01001,ignore,1.0,1900.0,6.14055323261
135,1_29_1,29,1.0,1605.19456922,1_I,test,05,3,15.0,10001,ignore,0.0,1800.0,4.10423104567
136,1_29_1,29,1.0,1615.00758869,1_I,test,05,3,16.0,10111,ignore,1.0,1900.0,7.79047245784
137,1_29_1,29,1.0,1618.13759871,1_I,test,05,3,17.0,11111,ignore,1.0,2000.0,1.14322167054
138,1_29_1,29,1.0,1623.41908876,1_I,test,05,3,18.0,11001,kill,1.0,2100.0,3.29584926405
139,1_29_1,29,1.0,1634.10713618,1_I,test,05,3,19.0,01000,ignore,1.0,2200.0,8.69636736436
140,1_29_1,29,1.0,1638.60734898,1_I,test,05,3,20.0,10000,ignore,0.0,2100.0,2.52464215831
141,1_29_1,29,1.0,1644.60764758,1_I,test,05,3,21.0,11000,kill,1.0,2200.0,4.04551578949
142,1_29_1,29,1.0,1656.46879579,1_I,test,05,3,22.0,01011,ignore,1.0,2300.0,9.8720227433
143,1_29_1,29,1.0,1664.28164977,1_I,test,05,3,23.0,01101,ignore,1.0,2400.0,5.8280746611
144,1_29_1,29,1.0,1674.40716674,1_I,test,05,3,24.0,10110,ignore,0.0,2300.0,8.12483350327
145,1_29_1,29,1.0,1677.65729367,1_I,test,05,3,25.0,11110,kill,1.0,2400.0,1.28149871277
146,1_29_1,29,1.0,1690.18915986,1_I,test,05,3,26.0,01100,ignore,1.0,2500.0,10.52314469
147,1_29_1,29,1.0,1694.04869931,1_I,test,05,3,27.0,00000,ignore,1.0,2600.0,1.86822567159
148,1_29_1,29,1.0,1698.86148755,1_I,test,05,3,28.0,01110,ignore,1.0,2700.0,2.83974715268
149,1_29_1,29,1.0,1707.87753858,1_I,test,05,3,29.0,10100,kill,1.0,2800.0,7.03444337571
150,1_29_1,29,1.0,1717.42484964,1_I,test,05,3,30.0,00111,ignore,1.0,2900.0,7.54611859346
151,1_29_1,29,1.0,1725.70652956,1_I,test,05,3,31.0,11010,ignore,0.0,2800.0,6.30953559238
152,1_29_1,29,1.0,1736.63130174,1_I,test,05,3,32.0,11101,ignore,1.0,2900.0,8.91464654904
153,1_29_1,29,1.0,1742.41280157,1_I,test,05,3,33.0,00010,ignore,1.0,3000.0,3.78957731238
154,1_29_1,29,1.0,1745.05356889,1_I,test,05,3,34.0,01010,ignore,1.0,3100.0,0.633804041081
155,1_29_1,29,1.0,1751.14760054,1_I,test,05,3,35.0,11100,kill,1.0,3200.0,4.11009070444
156,1_29_1,29,1.0,1756.88231579,1_I,test,05,3,36.0,10101,ignore,1.0,3300.0,3.75748806339
157,1_29_1,29,1.0,1766.13467786,1_I,test,05,3,37.0,01111,ignore,1.0,3400.0,7.25166416554
158,1_29_1,29,1.0,1774.85385331,1_I,test,05,3,38.0,10010,kill,1.0,3500.0,6.76307863329
159,1_29_1,29,1.0,1782.04168504,1_I,test,05,3,39.0,10011,kill,1.0,3600.0,5.18137071114
160,1_29_1,29,1.0,1789.85459034,1_I,test,05,3,40.0,01001,ignore,1.0,3700.0,5.81654008157
161,1_29_1,29,1.0,1792.85476032,1_I,test,05,3,41.0,01011,kill,0.0,3600.0,1.01911781827
162,1_29_1,29,1.0,1810.29310097,1_I,test,05,3,42.0,11100,ignore,0.0,3500.0,15.4557329561
163,1_29_1,29,1.0,1827.74709302,1_I,test,05,3,43.0,00010,ignore,1.0,3600.0,15.4811895973
164,1_29_1,29,1.0,1836.77877303,1_I,test,05,3,44.0,10111,kill,0.0,3500.0,7.02428342659
165,1_29_1,29,1.0,1848.56066094,1_I,test,05,3,45.0,00001,ignore,1.0,3600.0,9.77537429492
166,1_29_1,29,1.0,1853.50632295,1_I,test,05,3,46.0,01101,ignore,1.0,3700.0,2.96768688447
167,1_29_1,29,1.0,1881.82013991,1_I,test,05,3,47.0,10101,ignore,1.0,3800.0,26.3251764232
168,1_29_1,29,1.0,1905.75882902,1_I,test,05,4,0.0,11000,kill,0.0,3700.0,21.9543414876
169,1_29_1,29,1.0,1921.30645278,1_I,test,05,4,1.0,00000,ignore,1.0,3800.0,13.5534228008
170,1_29_1,29,1.0,1939.24483463,1_I,test,05,4,2.0,10010,kill,1.0,3900.0,15.9350440629
171,1_29_1,29,1.0,1942.38560275,1_I,test,05,4,3.0,01110,kill,1.0,4000.0,1.18128700173
172,1_29_1,29,1.0,1945.49512545,1_I,test,05,4,4.0,00011,kill,1.0,4100.0,1.08275108253
173,1_29_1,29,1.0,1951.55791136,1_I,test,05,4,5.0,01010,ignore,0.0,4000.0,4.06867892117
174,1_29_1,29,1.0,1962.58976327,1_I,test,05,4,6.0,10100,kill,0.0,3900.0,9.02888936855
175,1_29_1,29,1.0,1971.27768657,1_I,test,05,4,7.0,11110,kill,0.0,3800.0,6.70794620403
176,1_29_1,29,1.0,1985.32521523,1_I,test,05,4,8.0,10001,kill,0.0,3700.0,12.0740074582
177,1_29_1,29,1.0,1992.41932802,1_I,test,05,4,9.0,10110,ignore,0.0,3600.0,5.07485289113
178,1_29_1,29,1.0,2012.74844328,1_I,test,05,4,10.0,01100,ignore,1.0,3700.0,18.313502328
179,1_29_1,29,1.0,2020.37694701,1_I,test,05,4,11.0,00111,ignore,0.0,3600.0,5.636792884
180,1_29_1,29,1.0,2026.79914456,1_I,test,05,4,12.0,01111,kill,1.0,3700.0,4.43010504729
181,1_29_1,29,1.0,2033.01816911,1_I,test,05,4,13.0,00101,ignore,1.0,3800.0,4.23200464154
182,1_29_1,29,1.0,2043.04992673,1_I,test,05,4,14.0,01000,ignore,1.0,3900.0,8.05898626941
183,1_29_1,29,1.0,2048.53457664,1_I,test,05,4,15.0,11101,ignore,1.0,4000.0,3.48125727045
184,1_29_1,29,1.0,2052.425383,1_I,test,05,4,16.0,10000,ignore,1.0,4100.0,1.91403075567
185,1_29_1,29,1.0,2059.7850987,1_I,test,05,4,17.0,11111,ignore,1.0,4200.0,5.39560907256
186,1_29_1,29,1.0,2066.53542913,1_I,test,05,4,18.0,11001,ignore,1.0,4300.0,4.74988526038
187,1_29_1,29,1.0,2077.30155946,1_I,test,05,4,19.0,00100,ignore,1.0,4400.0,8.76241184453
188,1_29_1,29,1.0,2087.03643669,1_I,test,05,4,20.0,10011,kill,1.0,4500.0,7.73919707601
189,1_29_1,29,1.0,2095.92744543,1_I,test,05,4,21.0,00110,kill,1.0,4600.0,6.91920694794
190,1_29_1,29,1.0,2109.09066499,1_I,test,05,5,0.0,11011,kill,0.0,4500.0,11.1965118513
191,1_29_1,29,1.0,2120.35680126,1_I,test,05,5,1.0,11010,kill,0.0,4400.0,9.27515315455
192,1_29_1,29,1.0,2133.31053978,1_I,test,05,5,2.0,00010,kill,0.0,4300.0,10.9672490939
193,1_29_1,29,1.0,2140.51401716,1_I,test,05,5,3.0,01110,kill,1.0,4400.0,5.23114541736
194,1_29_1,29,1.0,2148.42063049,1_I,test,05,5,4.0,11111,ignore,0.0,4300.0,5.94583872821
195,1_29_1,29,1.0,2156.56165904,1_I,test,05,5,5.0,11110,kill,1.0,4400.0,6.14177840483
196,1_29_1,29,1.0,2163.70265263,1_I,test,05,5,6.0,01100,ignore,1.0,4500.0,5.15425238997
197,1_29_1,29,1.0,2171.5311205,1_I,test,05,5,7.0,01011,ignore,1.0,4600.0,5.86385899102
198,1_29_1,29,1.0,2178.84402467,1_I,test,05,5,8.0,00110,kill,1.0,4700.0,5.31937224998
199,1_29_1,29,1.0,2195.6885423,1_I,test,05,5,9.0,10001,ignore,1.0,4800.0,14.8696817663
200,1_29_1,29,1.0,2204.25149643,1_I,test,05,5,10.0,10111,kill,1.0,4900.0,6.55714482273
201,1_29_1,29,1.0,2211.29870116,1_I,test,05,5,11.0,00001,ignore,1.0,5000.0,5.04013337058
202,1_29_1,29,1.0,2215.70518828,1_I,test,05,5,12.0,01101,ignore,1.0,5100.0,2.41798225681
203,1_29_1,29,1.0,2223.29927622,1_I,test,05,5,13.0,10011,ignore,1.0,5200.0,5.61348606719
204,1_29_1,29,1.0,2226.98694646,1_I,test,05,5,14.0,01111,kill,1.0,5300.0,1.74504262284
205,1_29_1,29,1.0,2229.67458496,1_I,test,05,6,0.0,00111,kill,0.0,5200.0,0.705526969987
206,1_29_1,29,1.0,2242.00331181,1_I,test,05,6,1.0,00101,kill,0.0,5100.0,10.3310627022
207,1_29_1,29,1.0,2245.95663051,1_I,test,05,6,2.0,00011,ignore,1.0,5200.0,1.99847174198
208,1_29_1,29,1.0,2250.90998833,1_I,test,05,6,3.0,01010,ignore,1.0,5300.0,3.00502801699
