,unique_id,pair_id,sbj_id,wall_time,condition,block,rule_id,rule_num,trial,stimulus,choice,correct,points,reaction_time
0,1_41_1,41,1.0,49.7122340692,1_I,training,01,1_A,1.0,01111,kill,1.0,100.0,5.89577012338
1,1_41_1,41,1.0,53.6343419771,1_I,training,01,1_A,2.0,00110,kill,1.0,200.0,1.72553077119
2,1_41_1,41,1.0,57.447045719,1_I,training,01,1_A,3.0,01001,kill,0.0,100.0,1.65561933035
3,1_41_1,41,1.0,60.9003356729,1_I,training,01,1_A,4.0,01011,kill,1.0,200.0,1.25489718132
4,1_41_1,41,1.0,64.5098828833,1_I,training,01,1_A,5.0,11111,kill,1.0,300.0,1.37168384267
5,1_41_1,41,1.0,67.7756822185,1_I,training,01,1_A,6.0,10001,ignore,1.0,400.0,1.10719628111
6,1_41_1,41,1.0,70.8070836418,1_I,training,01,1_A,7.0,00000,ignore,1.0,500.0,0.870551355457
7,1_41_1,41,1.0,74.3697941189,1_I,training,01,1_A,8.0,11001,ignore,1.0,600.0,1.39424346262
8,1_41_1,41,1.0,77.8855809457,1_I,training,01,1_A,9.0,10101,ignore,1.0,700.0,1.33661266051
9,1_41_1,41,1.0,80.9952596542,1_I,training,01,1_A,10.0,00100,ignore,1.0,800.0,0.836743517144
10,1_41_1,41,1.0,84.2297589159,1_I,training,01,1_A,11.0,00001,ignore,1.0,900.0,0.959038024116
11,1_41_1,41,1.0,87.2767107902,1_I,training,01,1_A,12.0,11000,ignore,1.0,1000.0,0.762056771254
12,1_41_1,41,1.0,90.2300228743,1_I,training,01,1_A,13.0,01010,kill,1.0,1100.0,0.894618392542
13,1_41_1,41,1.0,93.1051663996,1_I,training,01,1_A,14.0,00010,kill,1.0,1200.0,0.806156419865
14,1_41_1,41,1.0,95.9490531496,1_I,training,01,1_A,15.0,10110,kill,1.0,1300.0,0.784825505241
15,1_41_1,41,1.0,100.574311495,1_I,training,01,1_A,16.0,00011,kill,1.0,1400.0,2.56549246356
16,1_41_1,41,1.0,103.558861432,1_I,training,01,1_A,17.0,11110,kill,1.0,1500.0,0.97815335628
17,1_41_1,41,1.0,106.668370155,1_I,training,01,1_A,18.0,01000,ignore,1.0,1600.0,1.06362262486
18,1_41_1,41,1.0,109.481006223,1_I,training,01,1_A,19.0,10011,kill,0.0,1500.0,0.709568827383
19,1_41_1,41,1.0,112.559369463,1_I,training,01,1_A,20.0,10111,kill,1.0,1600.0,0.887811923092
20,1_41_1,41,1.0,115.528203454,1_I,training,01,1_A,21.0,11100,kill,0.0,1500.0,0.794490294158
21,1_41_1,41,1.0,119.231535102,1_I,training,01,1_A,22.0,00111,kill,1.0,1600.0,1.51348625171
22,1_41_1,41,1.0,122.247302365,1_I,training,01,1_A,23.0,11010,kill,0.0,1500.0,0.909200889312
23,1_41_1,41,1.0,125.669373389,1_I,training,01,1_A,24.0,00101,ignore,1.0,1600.0,1.3649530648
24,1_41_1,41,1.0,128.388266393,1_I,training,01,1_A,25.0,10000,ignore,1.0,1700.0,0.673106972734
25,1_41_1,41,1.0,131.185310637,1_I,training,01,1_A,26.0,10010,kill,0.0,1600.0,0.779590598336
26,1_41_1,41,1.0,133.857321685,1_I,training,01,1_A,27.0,11011,ignore,1.0,1700.0,0.666105180512
27,1_41_1,41,1.0,136.544937708,1_I,training,01,1_A,28.0,01110,ignore,0.0,1600.0,0.651702611616
28,1_41_1,41,1.0,139.592009535,1_I,training,01,1_A,29.0,11101,kill,0.0,1500.0,1.03070865283
29,1_41_1,41,1.0,142.709741379,1_I,training,01,1_A,30.0,01101,ignore,1.0,1600.0,1.10629118937
30,1_41_1,41,1.0,145.616114417,1_I,training,01,1_A,31.0,10100,ignore,1.0,1700.0,0.890903090398
31,1_41_1,41,1.0,148.428775182,1_I,training,01,1_A,32.0,01100,ignore,1.0,1800.0,0.787944896527
32,1_41_1,41,1.0,151.491456794,1_I,training,01,1_A,33.0,00101,ignore,1.0,1900.0,1.04144883955
33,1_41_1,41,1.0,154.272821012,1_I,training,01,1_A,34.0,10101,ignore,1.0,2000.0,0.773080159953
34,1_41_1,41,1.0,157.351125239,1_I,training,01,1_A,35.0,10011,kill,0.0,1900.0,1.08407827536
35,1_41_1,41,1.0,159.991907736,1_I,training,01,1_A,36.0,00000,ignore,1.0,2000.0,0.629940639838
36,1_41_1,41,1.0,163.007698091,1_I,training,01,1_A,37.0,10000,ignore,1.0,2100.0,1.00178548749
37,1_41_1,41,1.0,166.054689735,1_I,training,01,1_A,38.0,10100,ignore,1.0,2200.0,1.02268791077
38,1_41_1,41,1.0,169.50802876,1_I,training,01,1_A,39.0,11111,ignore,0.0,2100.0,1.45938825805
39,1_41_1,41,1.0,172.53940228,1_I,training,01,1_A,40.0,01111,kill,1.0,2200.0,1.02192907057
40,1_41_1,41,1.0,176.992791339,1_I,training,01,1_A,41.0,10010,kill,0.0,2100.0,2.44226816887
41,1_41_1,41,1.0,179.680421474,1_I,training,01,1_A,42.0,10110,kill,1.0,2200.0,0.651964324889
42,1_41_1,41,1.0,182.680597874,1_I,training,01,1_A,43.0,11110,ignore,0.0,2100.0,0.99086825944
43,1_41_1,41,1.0,186.336997854,1_I,training,01,1_A,44.0,11010,ignore,1.0,2200.0,1.66093409829
44,1_41_1,41,1.0,189.774705605,1_I,training,01,1_A,45.0,01110,kill,1.0,2300.0,1.43211619556
45,1_41_1,41,1.0,192.649862601,1_I,training,01,1_A,46.0,00100,ignore,1.0,2400.0,0.833769415212
46,1_41_1,41,1.0,195.728116793,1_I,training,01,1_A,47.0,11101,ignore,1.0,2500.0,1.06135027371
47,1_41_1,41,1.0,199.57210361,1_I,training,01,1_A,48.0,00110,kill,1.0,2600.0,1.84034079173
48,1_41_1,41,1.0,202.540968711,1_I,training,01,1_A,49.0,01001,ignore,1.0,2700.0,0.971470366745
49,1_41_1,41,1.0,206.259915918,1_I,training,01,1_A,50.0,10111,kill,1.0,2800.0,1.68095259782
50,1_41_1,41,1.0,209.978873389,1_I,training,01,1_A,51.0,10001,ignore,1.0,2900.0,1.68158571302
51,1_41_1,41,1.0,213.104044817,1_I,training,01,1_A,52.0,00001,ignore,1.0,3000.0,1.11492002992
52,1_41_1,41,1.0,215.932326913,1_I,training,01,1_A,53.0,11100,ignore,1.0,3100.0,0.843685654136
53,1_41_1,41,1.0,220.135714047,1_I,training,01,1_A,54.0,11011,ignore,1.0,3200.0,2.2332853098
54,1_41_1,41,1.0,223.213996144,1_I,training,01,1_A,55.0,01101,ignore,1.0,3300.0,1.05181986943
55,1_41_1,41,1.0,225.964159394,1_I,training,01,1_A,56.0,11000,ignore,1.0,3400.0,0.759133664922
56,1_41_1,41,1.0,228.714310777,1_I,training,01,1_A,57.0,01100,ignore,1.0,3500.0,0.758820635322
57,1_41_1,41,1.0,233.527070325,1_I,training,01,1_A,58.0,00011,ignore,0.0,3400.0,2.79868893197
58,1_41_1,41,1.0,236.324092118,1_I,training,01,1_A,59.0,00010,kill,1.0,3500.0,0.802606933606
59,1_41_1,41,1.0,239.105592004,1_I,training,01,1_A,60.0,01011,kill,1.0,3600.0,0.784380656823
60,1_41_1,41,1.0,241.933818615,1_I,training,01,1_A,61.0,00111,kill,1.0,3700.0,0.814766337515
61,1_41_1,41,1.0,244.715201757,1_I,training,01,1_A,62.0,01000,ignore,1.0,3800.0,0.779649612113
62,1_41_1,41,1.0,247.496627555,1_I,training,01,1_A,63.0,11001,ignore,1.0,3900.0,0.810781945376
63,1_41_1,41,1.0,251.590556,1_I,training,01,1_A,64.0,01010,kill,1.0,4000.0,2.09700742419
64,1_41_1,41,1.0,254.49697362,1_I,training,01,1_A,65.0,11010,kill,0.0,3900.0,0.930146931476
65,1_41_1,41,1.0,257.997182092,1_I,training,01,1_A,66.0,00000,ignore,1.0,4000.0,1.48251075398
66,1_41_1,41,1.0,261.216072851,1_I,training,01,1_A,67.0,11011,kill,0.0,3900.0,1.24479973162
67,1_41_1,41,1.0,263.919340996,1_I,training,01,1_A,68.0,10101,ignore,1.0,4000.0,0.704792560159
68,1_41_1,41,1.0,266.482053397,1_I,training,01,1_A,69.0,11000,ignore,1.0,4100.0,0.545455361851
69,1_41_1,41,1.0,268.888338557,1_I,training,01,1_A,70.0,10100,ignore,1.0,4200.0,0.410134846481
70,1_41_1,41,1.0,271.997913991,1_I,training,01,1_A,71.0,10110,ignore,0.0,4100.0,1.12797618666
71,1_41_1,41,1.0,274.638684301,1_I,training,01,1_A,72.0,11100,ignore,1.0,4200.0,0.649232692606
72,1_41_1,41,1.0,277.795080432,1_I,training,01,1_A,73.0,01111,kill,1.0,4300.0,1.14043675327
73,1_41_1,41,1.0,281.514004226,1_I,training,01,1_A,74.0,01010,ignore,0.0,4200.0,1.71646189314
74,1_41_1,41,1.0,284.029752886,1_I,training,01,1_A,75.0,10001,ignore,1.0,4300.0,0.516902956975
75,1_41_1,41,1.0,287.12368999,1_I,training,01,1_A,76.0,10010,kill,0.0,4200.0,1.10977685095
76,1_41_1,41,1.0,290.201937127,1_I,training,01,1_A,77.0,00110,kill,1.0,4300.0,1.09589225624
77,1_41_1,41,1.0,292.811467018,1_I,training,01,1_A,78.0,10000,ignore,1.0,4400.0,0.609605261976
78,1_41_1,41,1.0,296.264820156,1_I,training,01,1_A,79.0,01110,kill,1.0,4500.0,1.47169776222
79,1_41_1,41,1.0,299.546211957,1_I,training,01,1_A,80.0,00101,ignore,1.0,4600.0,1.27443170374
80,1_41_1,41,1.0,302.421400063,1_I,training,01,1_A,81.0,10011,ignore,1.0,4700.0,0.892950611883
81,1_41_1,41,1.0,304.827729163,1_I,training,01,1_A,82.0,01011,ignore,0.0,4600.0,0.432689014072
82,1_41_1,41,1.0,308.015382711,1_I,training,01,1_A,83.0,00111,kill,1.0,4700.0,1.18111809298
83,1_41_1,41,1.0,310.843665448,1_I,training,01,1_A,84.0,00011,kill,1.0,4800.0,0.859900972316
84,1_41_1,41,1.0,313.656327816,1_I,training,01,1_A,85.0,11111,kill,1.0,4900.0,0.8328717002
85,1_41_1,41,1.0,316.484621459,1_I,training,01,1_A,86.0,11001,ignore,1.0,5000.0,0.845906368228
86,1_41_1,41,1.0,319.578535791,1_I,training,01,1_A,87.0,01100,ignore,1.0,5100.0,1.08140565686
87,1_41_1,41,1.0,322.489014136,1_I,training,01,1_A,88.0,01001,ignore,1.0,5200.0,0.923606986205
88,1_41_1,41,1.0,325.176637536,1_I,training,01,1_A,89.0,00001,ignore,1.0,5300.0,0.684902992897
89,1_41_1,41,1.0,328.223680818,1_I,training,01,1_A,90.0,10111,kill,1.0,5400.0,1.07170879523
90,1_41_1,41,1.0,331.364498274,1_I,training,01,1_A,91.0,01000,ignore,1.0,5500.0,1.1304358424
91,1_41_1,41,1.0,334.450321304,1_I,training,01,1_A,92.0,11110,kill,1.0,5600.0,1.09120418895
92,1_41_1,41,1.0,337.396076097,1_I,training,01,1_A,93.0,01101,ignore,1.0,5700.0,0.924023610643
93,1_41_1,41,1.0,340.114986741,1_I,training,01,1_A,94.0,11101,ignore,1.0,5800.0,0.716922136453
94,1_41_1,41,1.0,342.552626498,1_I,training,01,1_A,95.0,00100,ignore,1.0,5900.0,0.461943811187
95,1_41_1,41,1.0,346.115346276,1_I,training,01,1_A,96.0,00010,ignore,0.0,5800.0,1.5537249881
96,1_41_1,41,1.0,348.974865583,1_I,training,01,1_A,97.0,10101,ignore,1.0,5900.0,0.86481643508
97,1_41_1,41,1.0,351.553115286,1_I,training,01,1_A,98.0,01010,kill,1.0,6000.0,0.605336705671
98,1_41_1,41,1.0,354.834532746,1_I,training,01,1_A,99.0,10100,ignore,1.0,6100.0,1.29121887825
99,1_41_1,41,1.0,357.960140363,1_I,training,01,1_A,100.0,01111,kill,1.0,6200.0,1.1503032795
100,1_41_1,41,1.0,362.319754285,1_I,training,01,1_A,101.0,10001,ignore,1.0,6300.0,2.37373745797
101,1_41_1,41,1.0,366.210569817,1_I,training,01,1_A,102.0,01110,kill,1.0,6400.0,1.89979236131
102,1_41_1,41,1.0,369.570114782,1_I,training,01,1_A,103.0,00011,kill,1.0,6500.0,1.38209592561
103,1_41_1,41,1.0,372.69530353,1_I,training,01,1_A,104.0,11011,kill,0.0,6400.0,1.14880259763
104,1_41_1,41,1.0,375.382959002,1_I,training,01,1_A,105.0,11100,ignore,1.0,6500.0,0.700904706862
105,1_41_1,41,1.0,377.89871119,1_I,training,01,1_A,106.0,00000,ignore,1.0,6600.0,0.526552030266
106,1_41_1,41,1.0,380.445698024,1_I,training,01,1_A,107.0,01001,ignore,1.0,6700.0,0.560382960926
107,1_41_1,41,1.0,383.133327197,1_I,training,01,1_A,108.0,00101,ignore,1.0,6800.0,0.696890487107
108,1_41_1,41,1.0,385.774089167,1_I,training,01,1_A,109.0,00010,ignore,0.0,6700.0,0.642209090944
109,1_41_1,41,1.0,388.430507429,1_I,training,01,1_A,110.0,01000,ignore,1.0,6800.0,0.663022993564
110,1_41_1,41,1.0,391.071248231,1_I,training,01,1_A,111.0,11111,kill,1.0,6900.0,0.667664876155
111,1_41_1,41,1.0,393.962037784,1_I,training,01,1_A,112.0,01011,kill,1.0,7000.0,0.90280783703
112,1_41_1,41,1.0,396.618446745,1_I,training,01,1_A,113.0,00001,ignore,1.0,7100.0,0.689551290028
113,1_41_1,41,1.0,399.477948732,1_I,training,01,1_A,114.0,01100,ignore,1.0,7200.0,0.851997616357
114,1_41_1,41,1.0,401.993690016,1_I,training,01,1_A,115.0,10000,ignore,1.0,7300.0,0.519894378168
115,1_41_1,41,1.0,405.150098014,1_I,training,01,1_A,116.0,11110,kill,1.0,7400.0,1.19444205681
116,1_41_1,41,1.0,407.744034156,1_I,training,01,1_A,117.0,11101,ignore,1.0,7500.0,0.600399433468
117,1_41_1,41,1.0,410.603550897,1_I,training,01,1_A,118.0,11000,ignore,1.0,7600.0,0.904324234521
118,1_41_1,41,1.0,415.713177648,1_I,training,01,1_A,119.0,10010,kill,0.0,7500.0,3.16313396512
119,1_41_1,41,1.0,418.607116741,1_I,training,01,1_A,120.0,01101,ignore,1.0,7600.0,0.921506544756
120,1_41_1,41,1.0,421.154082727,1_I,training,01,1_A,121.0,00100,ignore,1.0,7700.0,0.563783309108
121,1_41_1,41,1.0,424.750814326,1_I,training,01,1_A,122.0,00110,kill,1.0,7800.0,1.62028322764
122,1_41_1,41,1.0,428.204119354,1_I,training,01,1_A,123.0,10011,ignore,1.0,7900.0,1.48997599679
123,1_41_1,41,1.0,431.673058222,1_I,training,01,1_A,124.0,10111,kill,1.0,8000.0,1.47591756802
124,1_41_1,41,1.0,434.579461089,1_I,training,01,1_A,125.0,11001,ignore,1.0,8100.0,0.92633509049
125,1_41_1,41,1.0,437.517095714,1_I,training,01,1_A,126.0,10110,kill,1.0,8200.0,0.968424742681
126,1_41_1,41,1.0,440.626629454,1_I,training,01,1_A,127.0,11010,ignore,1.0,8300.0,1.13666179589
127,1_41_1,41,1.0,443.626808099,1_I,training,01,1_A,128.0,00111,kill,1.0,8400.0,1.00888093201
128,1_41_1,41,1.0,447.83015001,1_I,training,01,1_A,129.0,11101,ignore,1.0,8500.0,2.19828019741
129,1_41_1,41,1.0,451.220974843,1_I,training,01,1_A,130.0,01010,ignore,0.0,8400.0,1.41167337414
130,1_41_1,41,1.0,454.314866404,1_I,training,01,1_A,131.0,01110,kill,1.0,8500.0,1.14620053908
131,1_41_1,41,1.0,457.033744334,1_I,training,01,1_A,132.0,11001,ignore,1.0,8600.0,0.722159929902
132,1_41_1,41,1.0,459.643286092,1_I,training,01,1_A,133.0,10001,ignore,1.0,8700.0,0.620032098363
133,1_41_1,41,1.0,462.205892975,1_I,training,01,1_A,134.0,00001,ignore,1.0,8800.0,0.593749799546
134,1_41_1,41,1.0,465.06544692,1_I,training,01,1_A,135.0,11011,ignore,1.0,8900.0,0.889473609937
135,1_41_1,41,1.0,467.940566391,1_I,training,01,1_A,136.0,00110,kill,1.0,9000.0,0.917064795844
136,1_41_1,41,1.0,470.596973748,1_I,training,01,1_A,137.0,01101,ignore,1.0,9100.0,0.66193188014
137,1_41_1,41,1.0,473.643984315,1_I,training,01,1_A,138.0,00111,kill,1.0,9200.0,1.06643219381
138,1_41_1,41,1.0,476.550419254,1_I,training,01,1_A,139.0,01000,ignore,1.0,9300.0,0.959258684326
139,1_41_1,41,1.0,479.894329417,1_I,training,01,1_A,140.0,11100,ignore,1.0,9400.0,1.35160665008
140,1_41_1,41,1.0,483.144483687,1_I,training,01,1_A,141.0,00010,ignore,0.0,9300.0,1.2801877921
141,1_41_1,41,1.0,486.316533544,1_I,training,01,1_A,142.0,10110,kill,1.0,9400.0,1.18684531591
142,1_41_1,41,1.0,489.191713632,1_I,training,01,1_A,143.0,11111,kill,1.0,9500.0,0.897487296002
143,1_41_1,41,1.0,492.007760312,1_I,training,01,1_A,144.0,00000,ignore,1.0,9600.0,0.860586366021
144,1_41_1,41,1.0,495.507901111,1_I,training,01,1_A,145.0,11110,kill,1.0,9700.0,1.54612054975
145,1_41_1,41,1.0,499.289383678,1_I,training,01,1_A,146.0,01011,ignore,0.0,9600.0,1.8026329125
146,1_41_1,41,1.0,502.320761047,1_I,training,01,1_A,147.0,10100,ignore,1.0,9700.0,1.04805998622
147,1_41_1,41,1.0,505.80532734,1_I,training,01,1_A,148.0,00101,kill,0.0,9600.0,1.46681052344
148,1_41_1,41,1.0,508.461747206,1_I,training,01,1_A,149.0,01001,ignore,1.0,9700.0,0.703313367005
149,1_41_1,41,1.0,511.399407489,1_I,training,01,1_A,150.0,01111,kill,1.0,9800.0,0.937094841554
150,1_41_1,41,1.0,515.508981961,1_I,training,01,1_A,151.0,10010,kill,0.0,9700.0,2.12193978285
151,1_41_1,41,1.0,518.540362216,1_I,training,01,1_A,152.0,10101,ignore,1.0,9800.0,1.05043753584
152,1_41_1,41,1.0,523.337491132,1_I,training,01,1_A,153.0,10011,ignore,1.0,9900.0,2.83067183337
153,1_41_1,41,1.0,526.118903781,1_I,training,01,1_A,154.0,10000,ignore,1.0,10000.0,0.828157333296
154,1_41_1,41,1.0,529.19716984,1_I,training,01,1_A,155.0,10111,kill,1.0,10100.0,1.07238649149
155,1_41_1,41,1.0,532.822399641,1_I,training,01,1_A,156.0,11000,ignore,1.0,10200.0,1.63574676162
156,1_41_1,41,1.0,535.791309323,1_I,training,01,1_A,157.0,00100,ignore,1.0,10300.0,0.99207707969
157,1_41_1,41,1.0,539.525866957,1_I,training,01,1_A,158.0,00011,ignore,0.0,10200.0,1.7422704781
158,1_41_1,41,1.0,542.479129329,1_I,training,01,1_A,159.0,01100,ignore,1.0,10300.0,0.98313777536
159,1_41_1,41,1.0,546.229348706,1_I,training,01,1_A,160.0,11010,kill,0.0,10200.0,1.78275649504
160,1_41_1,41,1.0,550.885826302,1_I,training,01,1_A,161.0,01000,ignore,1.0,10300.0,2.66877010157
161,1_41_1,41,1.0,554.542255147,1_I,training,01,1_A,162.0,11011,ignore,1.0,10400.0,1.68774816255
162,1_41_1,41,1.0,557.058008298,1_I,training,01,1_A,163.0,11001,ignore,1.0,10500.0,0.546927819736
163,1_41_1,41,1.0,559.901934497,1_I,training,01,1_A,164.0,11010,ignore,1.0,10600.0,0.867320030431
164,1_41_1,41,1.0,562.51143841,1_I,training,01,1_A,165.0,00101,ignore,1.0,10700.0,0.622988560308
165,1_41_1,41,1.0,564.886589632,1_I,training,01,1_A,166.0,00100,ignore,1.0,10800.0,0.38816440212
166,1_41_1,41,1.0,567.886731394,1_I,training,01,1_A,167.0,00001,ignore,1.0,10900.0,0.994707362225
167,1_41_1,41,1.0,571.168137307,1_I,training,01,1_A,168.0,10110,kill,1.0,11000.0,1.29755195457
168,1_41_1,41,1.0,575.075828855,1_I,training,01,1_A,169.0,01010,ignore,0.0,10900.0,1.91555385071
169,1_41_1,41,1.0,579.029187444,1_I,training,01,1_A,170.0,00110,kill,1.0,11000.0,1.97212593283
170,1_41_1,41,1.0,581.810576039,1_I,training,01,1_A,171.0,10000,ignore,1.0,11100.0,0.786387125247
171,1_41_1,41,1.0,585.091968482,1_I,training,01,1_A,172.0,11101,ignore,1.0,11200.0,1.32204459645
172,1_41_1,41,1.0,587.920234221,1_I,training,01,1_A,173.0,01001,ignore,1.0,11300.0,0.818612496296
173,1_41_1,41,1.0,592.717353514,1_I,training,01,1_A,174.0,11111,kill,1.0,11400.0,2.82418224224
174,1_41_1,41,1.0,595.795701359,1_I,training,01,1_A,175.0,00010,ignore,0.0,11300.0,1.11694445906
175,1_41_1,41,1.0,599.311503902,1_I,training,01,1_A,176.0,01011,kill,1.0,11400.0,1.52634195405
176,1_41_1,41,1.0,602.061683188,1_I,training,01,1_A,177.0,10001,ignore,1.0,11500.0,0.792149948876
177,1_41_1,41,1.0,604.796161282,1_I,training,01,1_A,178.0,10101,ignore,1.0,11600.0,0.717888807781
178,1_41_1,41,1.0,607.874466471,1_I,training,01,1_A,179.0,00111,kill,1.0,11700.0,1.09505932809
179,1_41_1,41,1.0,611.280901089,1_I,training,01,1_A,180.0,11100,ignore,1.0,11800.0,1.44232718264
180,1_41_1,41,1.0,613.921677172,1_I,training,01,1_A,181.0,10100,ignore,1.0,11900.0,0.654912127203
181,1_41_1,41,1.0,617.109297043,1_I,training,01,1_A,182.0,00011,ignore,0.0,11800.0,1.22796733459
182,1_41_1,41,1.0,619.8751323,1_I,training,01,1_A,183.0,01111,kill,1.0,11900.0,0.793334073144
183,1_41_1,41,1.0,622.594002853,1_I,training,01,1_A,184.0,01110,kill,1.0,12000.0,0.744177521139
184,1_41_1,41,1.0,625.187941882,1_I,training,01,1_A,185.0,11110,kill,1.0,12100.0,0.650961411404
185,1_41_1,41,1.0,629.125647067,1_I,training,01,1_A,186.0,01100,ignore,1.0,12200.0,1.95096404137
186,1_41_1,41,1.0,632.07892772,1_I,training,01,1_A,187.0,10011,ignore,1.0,12300.0,0.974722218302
187,1_41_1,41,1.0,634.750918883,1_I,training,01,1_A,188.0,00000,ignore,1.0,12400.0,0.669393594953
188,1_41_1,41,1.0,638.532411072,1_I,training,01,1_A,189.0,10111,kill,1.0,12500.0,1.79249697554
189,1_41_1,41,1.0,641.501303114,1_I,training,01,1_A,190.0,10010,ignore,1.0,12600.0,1.01602384413
190,1_41_1,41,1.0,644.2045456,1_I,training,01,1_A,191.0,01101,ignore,1.0,12700.0,0.709123337511
191,1_41_1,41,1.0,646.632857011,1_I,training,01,1_A,192.0,11000,ignore,1.0,12800.0,0.464151696197
192,1_41_1,41,1.0,649.648613048,1_I,training,01,1_A,193.0,11110,kill,1.0,12900.0,1.05353383478
193,1_41_1,41,1.0,652.461282472,1_I,training,01,1_A,194.0,11011,ignore,1.0,13000.0,0.84157077997
194,1_41_1,41,1.0,655.070786064,1_I,training,01,1_A,195.0,01101,ignore,1.0,13100.0,0.639331207127
195,1_41_1,41,1.0,658.039697991,1_I,training,01,1_A,196.0,10111,kill,1.0,13200.0,0.95496960149
196,1_41_1,41,1.0,660.789844242,1_I,training,01,1_A,197.0,00101,ignore,1.0,13300.0,0.74655603294
197,1_41_1,41,1.0,663.58687726,1_I,training,01,1_A,198.0,11101,ignore,1.0,13400.0,0.843631451264
198,1_41_1,41,1.0,667.165188863,1_I,training,01,1_A,199.0,11010,kill,0.0,13300.0,1.60925887676
199,1_41_1,41,1.0,669.805905291,1_I,training,01,1_A,200.0,10001,ignore,1.0,13400.0,0.687658679708
200,1_41_1,41,1.0,672.852995398,1_I,training,01,1_A,201.0,01111,kill,1.0,13500.0,1.07558061218
201,1_41_1,41,1.0,675.728145338,1_I,training,01,1_A,202.0,01001,ignore,1.0,13600.0,0.910885668504
202,1_41_1,41,1.0,678.853314201,1_I,training,01,1_A,203.0,01010,ignore,0.0,13500.0,1.19523296971
203,1_41_1,41,1.0,682.541009443,1_I,training,01,1_A,204.0,10011,ignore,1.0,13600.0,1.72277123566
204,1_41_1,41,1.0,685.322433638,1_I,training,01,1_A,205.0,10010,ignore,1.0,13700.0,0.80348155627
205,1_41_1,41,1.0,688.19759769,1_I,training,01,1_A,206.0,00111,kill,1.0,13800.0,0.873150527468
206,1_41_1,41,1.0,690.932106894,1_I,training,01,1_A,207.0,10110,kill,1.0,13900.0,0.756769906566
207,1_41_1,41,1.0,693.869755952,1_I,training,01,1_A,208.0,01000,ignore,1.0,14000.0,0.990566776013
208,1_41_1,41,1.0,696.541757379,1_I,training,01,1_A,209.0,00000,ignore,1.0,14100.0,0.652214491988
209,1_41_1,41,1.0,699.245025203,1_I,training,01,1_A,210.0,01011,ignore,0.0,14000.0,0.720575859003
210,1_41_1,41,1.0,701.995148041,1_I,training,01,1_A,211.0,11001,ignore,1.0,14100.0,0.786886497263
211,1_41_1,41,1.0,704.557801429,1_I,training,01,1_A,212.0,11000,ignore,1.0,14200.0,0.586012259471
212,1_41_1,41,1.0,709.276771728,1_I,training,01,1_A,213.0,00011,ignore,0.0,14100.0,2.76190859536
213,1_41_1,41,1.0,712.198848205,1_I,training,01,1_A,214.0,10000,ignore,1.0,14200.0,0.927991324975
214,1_41_1,41,1.0,714.839577782,1_I,training,01,1_A,215.0,10101,ignore,1.0,14300.0,0.632882348338
215,1_41_1,41,1.0,717.245952745,1_I,training,01,1_A,216.0,00001,ignore,1.0,14400.0,0.437854964662
216,1_41_1,41,1.0,719.714858579,1_I,training,01,1_A,217.0,11100,ignore,1.0,14500.0,0.491315673674
217,1_41_1,41,1.0,722.152455679,1_I,training,01,1_A,218.0,01100,ignore,1.0,14600.0,0.479818250395
218,1_41_1,41,1.0,724.652628551,1_I,training,01,1_A,219.0,10100,ignore,1.0,14700.0,0.531748449926
219,1_41_1,41,1.0,728.840329246,1_I,training,01,1_A,220.0,01110,kill,1.0,14800.0,2.22155535941
220,1_41_1,41,1.0,732.059257209,1_I,training,01,1_A,221.0,11111,kill,1.0,14900.0,1.2754378245
221,1_41_1,41,1.0,735.52817523,1_I,training,01,1_A,222.0,00100,ignore,1.0,15000.0,1.49489819482
222,1_41_1,41,1.0,738.512756918,1_I,training,01,1_A,223.0,00110,kill,1.0,15100.0,1.0092045456
223,1_41_1,41,1.0,741.856641744,1_I,training,01,1_A,224.0,00010,ignore,0.0,15000.0,1.36810613243
224,1_41_1,41,1.0,744.622389442,1_I,training,01,1_A,225.0,10110,kill,1.0,15100.0,0.783326427011
225,1_41_1,41,1.0,747.567317721,1_I,training,01,1_A,226.0,11101,ignore,1.0,15200.0,0.999811412495
226,1_41_1,41,1.0,750.770571754,1_I,training,01,1_A,227.0,10011,ignore,1.0,15300.0,1.23132342244
227,1_41_1,41,1.0,753.597663952,1_I,training,01,1_A,228.0,01010,ignore,0.0,15200.0,0.851990881088
228,1_41_1,41,1.0,756.847853502,1_I,training,01,1_A,229.0,10100,ignore,1.0,15300.0,1.26417004178
229,1_41_1,41,1.0,759.660486363,1_I,training,01,1_A,230.0,11000,ignore,1.0,15400.0,0.844356615124
230,1_41_1,41,1.0,762.176299811,1_I,training,01,1_A,231.0,11001,ignore,1.0,15500.0,0.562857690842
231,1_41_1,41,1.0,764.926477173,1_I,training,01,1_A,232.0,00000,ignore,1.0,15600.0,0.729406116137
232,1_41_1,41,1.0,768.332909867,1_I,training,01,1_A,233.0,01111,kill,1.0,15700.0,1.41814692891
233,1_41_1,41,1.0,770.957999831,1_I,training,01,1_A,234.0,11110,kill,1.0,15800.0,0.680827193548
234,1_41_1,41,1.0,774.161354571,1_I,training,01,1_A,235.0,10001,ignore,1.0,15900.0,1.21988661657
235,1_41_1,41,1.0,777.1302232,1_I,training,01,1_A,236.0,00110,kill,1.0,16000.0,1.0184600868
236,1_41_1,41,1.0,780.552288772,1_I,training,01,1_A,237.0,10101,ignore,1.0,16100.0,1.42345624449
237,1_41_1,41,1.0,783.161824757,1_I,training,01,1_A,238.0,00100,ignore,1.0,16200.0,0.595996492529
238,1_41_1,41,1.0,785.646308624,1_I,training,01,1_A,239.0,01101,ignore,1.0,16300.0,0.523174453706
239,1_41_1,41,1.0,788.287084386,1_I,training,01,1_A,240.0,01001,ignore,1.0,16400.0,0.67741241265
240,1_41_1,41,1.0,791.302851007,1_I,training,01,1_A,241.0,01110,kill,1.0,16500.0,1.07485705195
241,1_41_1,41,1.0,794.02285501,1_I,training,01,1_A,242.0,11111,kill,1.0,16600.0,0.734365839234
242,1_41_1,41,1.0,797.616775436,1_I,training,01,1_A,243.0,10000,ignore,1.0,16700.0,1.61510348579
243,1_41_1,41,1.0,801.226349908,1_I,training,01,1_A,244.0,01011,ignore,0.0,16600.0,1.66174072682
244,1_41_1,41,1.0,804.117115727,1_I,training,01,1_A,245.0,11100,ignore,1.0,16700.0,0.930115179498
245,1_41_1,41,1.0,806.976661655,1_I,training,01,1_A,246.0,00111,kill,1.0,16800.0,0.858298299249
246,1_41_1,41,1.0,810.117417852,1_I,training,01,1_A,247.0,00010,kill,1.0,16900.0,1.15053612734
247,1_41_1,41,1.0,813.461337316,1_I,training,01,1_A,248.0,00101,ignore,1.0,17000.0,1.34995105705
248,1_41_1,41,1.0,816.39905052,1_I,training,01,1_A,249.0,01100,ignore,1.0,17100.0,0.983317061781
249,1_41_1,41,1.0,818.992935987,1_I,training,01,1_A,250.0,00001,ignore,1.0,17200.0,0.58149642261
250,1_41_1,41,1.0,822.47750228,1_I,training,01,1_A,251.0,11010,kill,0.0,17100.0,1.51725960545
251,1_41_1,41,1.0,825.368259119,1_I,training,01,1_A,252.0,10111,kill,1.0,17200.0,0.935166630532
252,1_41_1,41,1.0,828.430943938,1_I,training,01,1_A,253.0,00011,ignore,0.0,17100.0,1.08844786069
253,1_41_1,41,1.0,831.524842555,1_I,training,01,1_A,254.0,10010,ignore,1.0,17200.0,1.1568210946
254,1_41_1,41,1.0,834.1030666,1_I,training,01,1_A,255.0,01000,ignore,1.0,17300.0,0.589033508279
255,1_41_1,41,1.0,837.272021761,1_I,training,01,1_A,256.0,11011,ignore,1.0,17400.0,1.21274627027
256,1_41_1,41,1.0,840.006509155,1_I,training,01,1_A,257.0,10001,kill,0.0,17300.0,0.771385438222
257,1_41_1,41,1.0,927.511167395,1_I,test,01,2,0.0,00001,ignore,1.0,100.0,1.92858178347
258,1_41_1,41,1.0,931.214463443,1_I,test,01,2,1.0,11111,kill,1.0,200.0,1.76255935054
259,1_41_1,41,1.0,933.964578905,1_I,test,01,2,2.0,11101,ignore,0.0,100.0,0.786658460331
260,1_41_1,41,1.0,937.433521301,1_I,test,01,2,3.0,00011,ignore,1.0,200.0,1.48949843421
261,1_41_1,41,1.0,940.293066587,1_I,test,01,2,4.0,01111,ignore,1.0,300.0,0.92604803978
262,1_41_1,41,1.0,943.090079078,1_I,test,01,2,5.0,01101,kill,0.0,200.0,0.849078679477
263,1_41_1,41,1.0,946.449631741,1_I,test,01,2,6.0,10100,ignore,0.0,100.0,1.40656643733
264,1_41_1,41,1.0,949.856045512,1_I,test,01,2,7.0,00010,ignore,1.0,200.0,1.44442153028
265,1_41_1,41,1.0,952.574984381,1_I,test,01,2,8.0,11010,ignore,1.0,300.0,0.761724177303
266,1_41_1,41,1.0,955.387616921,1_I,test,01,2,9.0,11110,ignore,1.0,400.0,0.868423972936
267,1_41_1,41,1.0,958.07524449,1_I,test,01,2,10.0,01010,ignore,1.0,500.0,0.737402162214
268,1_41_1,41,1.0,961.747321929,1_I,test,01,2,11.0,11001,kill,1.0,600.0,1.7061649512
269,1_41_1,41,1.0,964.903708439,1_I,test,01,2,12.0,10000,kill,1.0,700.0,1.21344577596
270,1_41_1,41,1.0,968.794577853,1_I,test,01,2,13.0,01100,ignore,1.0,800.0,1.87393759165
271,1_41_1,41,1.0,971.8884723,1_I,test,01,2,14.0,11100,ignore,1.0,900.0,1.15018076177
272,1_41_1,41,1.0,975.029241968,1_I,test,01,2,15.0,01001,kill,0.0,800.0,1.15026799952
273,1_41_1,41,1.0,977.857516367,1_I,test,01,2,16.0,10111,ignore,0.0,700.0,0.862878922973
274,1_41_1,41,1.0,980.513927893,1_I,test,01,2,17.0,10011,kill,1.0,800.0,0.699841817419
275,1_41_1,41,1.0,983.607842867,1_I,test,01,2,18.0,00110,kill,0.0,700.0,1.11895702129
276,1_41_1,41,1.0,986.342363617,1_I,test,01,2,19.0,01110,ignore,1.0,800.0,0.785579534535
277,1_41_1,41,1.0,990.264444905,1_I,test,01,2,20.0,00100,kill,0.0,700.0,1.89454879477
278,1_41_1,41,1.0,993.811490111,1_I,test,01,2,21.0,00111,kill,0.0,600.0,1.57672753211
279,1_41_1,41,1.0,996.561638287,1_I,test,01,2,22.0,11000,ignore,1.0,700.0,0.818057959227
280,1_41_1,41,1.0,999.171160801,1_I,test,01,2,23.0,00000,ignore,1.0,800.0,0.623650861665
281,1_41_1,41,1.0,1001.74951827,1_I,test,01,2,24.0,10101,ignore,0.0,700.0,0.631023735085
282,1_41_1,41,1.0,1005.2341006,1_I,test,01,2,25.0,10010,ignore,0.0,600.0,1.53344092657
283,1_41_1,41,1.0,1008.37484621,1_I,test,01,2,26.0,00101,ignore,1.0,700.0,1.14969935046
284,1_41_1,41,1.0,1012.56258026,1_I,test,01,2,27.0,11011,ignore,0.0,600.0,2.24769172742
285,1_41_1,41,1.0,1015.45334961,1_I,test,01,2,28.0,01000,ignore,1.0,700.0,0.949181761151
286,1_41_1,41,1.0,1018.51603507,1_I,test,01,2,29.0,01011,kill,0.0,600.0,1.10988557742
287,1_41_1,41,1.0,1022.65688556,1_I,test,01,2,30.0,10110,kill,1.0,700.0,2.18510216439
288,1_41_1,41,1.0,1026.9539699,1_I,test,01,2,31.0,00100,ignore,1.0,800.0,2.32735006331
289,1_41_1,41,1.0,1029.68846819,1_I,test,01,2,32.0,01101,ignore,1.0,900.0,0.8015302529
290,1_41_1,41,1.0,1033.29806063,1_I,test,01,2,33.0,01010,kill,0.0,800.0,1.62400718942
291,1_41_1,41,1.0,1036.532608,1_I,test,01,2,34.0,11000,ignore,1.0,900.0,1.29417052929
292,1_41_1,41,1.0,1040.79847693,1_I,test,01,2,35.0,11111,kill,1.0,1000.0,2.32241728129
293,1_41_1,41,1.0,1043.92366857,1_I,test,01,2,36.0,10100,ignore,0.0,900.0,1.1473936437
294,1_41_1,41,1.0,1046.7956401,1_I,test,01,2,37.0,10000,ignore,0.0,800.0,0.924782771569
295,1_41_1,41,1.0,1051.06159146,1_I,test,01,2,38.0,10010,ignore,0.0,700.0,2.25311201456
296,1_41_1,41,1.0,1054.23362336,1_I,test,01,2,39.0,11010,kill,0.0,600.0,1.22563629039
297,1_41_1,41,1.0,1057.17127562,1_I,test,01,2,40.0,11001,ignore,0.0,500.0,1.00102215711
298,1_41_1,41,1.0,1060.03079814,1_I,test,01,2,41.0,10001,kill,1.0,600.0,0.911860678735
299,1_41_1,41,1.0,1062.64031295,1_I,test,01,2,42.0,01100,kill,0.0,500.0,0.693062289042
300,1_41_1,41,1.0,1065.39044702,1_I,test,01,2,43.0,10101,ignore,0.0,400.0,0.801186112775
301,1_41_1,41,1.0,1068.89062919,1_I,test,01,2,44.0,01001,ignore,1.0,500.0,1.56090831183
302,1_41_1,41,1.0,1071.43767087,1_I,test,01,2,45.0,00000,ignore,1.0,600.0,0.635736177626
303,1_41_1,41,1.0,1077.20358791,1_I,test,01,2,46.0,01110,kill,0.0,500.0,3.83550102055
304,1_41_1,41,1.0,1080.56312357,1_I,test,01,2,47.0,10111,ignore,0.0,400.0,1.34118398315
305,1_41_1,41,1.0,1083.75080021,1_I,test,01,2,48.0,00110,kill,0.0,300.0,1.24584626398
306,1_41_1,41,1.0,1086.98534726,1_I,test,01,2,49.0,00001,ignore,1.0,400.0,1.27509304292
307,1_41_1,41,1.0,1090.01674291,1_I,test,01,2,50.0,01011,ignore,1.0,500.0,1.12165176996
308,1_41_1,41,1.0,1092.67311114,1_I,test,01,2,51.0,01000,ignore,1.0,600.0,0.741309259133
309,1_41_1,41,1.0,1095.75144359,1_I,test,01,2,52.0,10110,kill,1.0,700.0,1.11952310454
310,1_41_1,41,1.0,1098.54846025,1_I,test,01,2,53.0,11110,kill,0.0,600.0,0.884019967183
311,1_41_1,41,1.0,1101.42358678,1_I,test,01,2,54.0,11011,kill,1.0,700.0,0.920023823605
312,1_41_1,41,1.0,1104.70509148,1_I,test,01,2,55.0,01111,ignore,1.0,800.0,1.37226949026
313,1_41_1,41,1.0,1108.29896572,1_I,test,01,2,56.0,10011,kill,1.0,900.0,1.6036083076
314,1_41_1,41,1.0,1113.0335891,1_I,test,01,2,57.0,11101,kill,1.0,1000.0,2.76984530693
315,1_41_1,41,1.0,1116.86190071,1_I,test,01,2,58.0,00011,ignore,1.0,1100.0,1.88150097693
316,1_41_1,41,1.0,1121.06527469,1_I,test,01,2,59.0,00101,kill,0.0,1000.0,2.24438278645
317,1_41_1,41,1.0,1126.37804867,1_I,test,01,2,60.0,00010,ignore,1.0,1100.0,3.41141647177
318,1_41_1,41,1.0,1129.67509356,1_I,test,01,2,61.0,00111,kill,0.0,1000.0,1.32760664495
319,1_41_1,41,1.0,1132.45650396,1_I,test,01,2,62.0,11100,ignore,1.0,1100.0,0.834095594621
320,1_41_1,41,1.0,1134.87845952,1_I,test,01,2,63.0,00100,ignore,1.0,1200.0,0.489156218448
321,1_41_1,41,1.0,1137.56609928,1_I,test,01,2,64.0,00110,ignore,1.0,1300.0,0.733970062054
322,1_41_1,41,1.0,1139.9256234,1_I,test,01,2,65.0,10101,ignore,0.0,1200.0,0.441872391687
323,1_41_1,41,1.0,1143.17580268,1_I,test,01,2,66.0,00011,kill,0.0,1100.0,1.31221014293
324,1_41_1,41,1.0,1145.89468318,1_I,test,01,2,67.0,00000,ignore,1.0,1200.0,0.746827688751
325,1_41_1,41,1.0,1148.58231941,1_I,test,01,2,68.0,01100,ignore,1.0,1300.0,0.78268946309
326,1_41_1,41,1.0,1151.16059381,1_I,test,01,2,69.0,10001,ignore,0.0,1200.0,0.647952350224
327,1_41_1,41,1.0,1154.41074006,1_I,test,01,2,70.0,00001,kill,0.0,1100.0,1.2931663329
328,1_41_1,41,1.0,1157.36406016,1_I,test,01,2,71.0,01010,ignore,1.0,1200.0,1.01799439113
329,1_41_1,41,1.0,1159.81730361,1_I,test,01,2,72.0,11001,ignore,0.0,1100.0,0.496453400284
330,1_41_1,41,1.0,1162.55182596,1_I,test,01,2,73.0,11011,kill,1.0,1200.0,0.830673116274
331,1_41_1,41,1.0,1165.13007214,1_I,test,01,2,74.0,00111,kill,0.0,1100.0,0.587608517997
332,1_41_1,41,1.0,1168.66149505,1_I,test,01,2,75.0,01101,ignore,1.0,1200.0,1.57147081576
333,1_41_1,41,1.0,1171.22413978,1_I,test,01,2,76.0,01111,ignore,1.0,1300.0,0.636431834597
334,1_41_1,41,1.0,1174.00554152,1_I,test,01,2,77.0,01001,ignore,1.0,1400.0,0.84288832669
335,1_41_1,41,1.0,1176.56813718,1_I,test,01,2,78.0,10100,ignore,0.0,1300.0,0.6594141728
336,1_41_1,41,1.0,1179.31833218,1_I,test,01,2,79.0,01110,ignore,1.0,1400.0,0.775967665582
337,1_41_1,41,1.0,1182.03718702,1_I,test,01,2,80.0,01000,ignore,1.0,1500.0,0.760858214269
338,1_41_1,41,1.0,1184.49045292,1_I,test,01,2,81.0,11101,ignore,0.0,1400.0,0.531456267584
339,1_41_1,41,1.0,1187.69371786,1_I,test,01,2,82.0,11010,ignore,1.0,1500.0,1.27052621046
340,1_41_1,41,1.0,1191.63149488,1_I,test,01,2,83.0,10000,ignore,0.0,1400.0,2.04560449993
341,1_41_1,41,1.0,1194.44411395,1_I,test,01,2,84.0,10010,ignore,0.0,1300.0,0.883275238974
342,1_41_1,41,1.0,1197.45992997,1_I,test,01,2,85.0,00010,kill,0.0,1200.0,1.07171392687
343,1_41_1,41,1.0,1200.31945024,1_I,test,01,2,86.0,00101,ignore,1.0,1300.0,0.950446708635
344,1_41_1,41,1.0,1202.91334019,1_I,test,01,2,87.0,10011,ignore,0.0,1200.0,0.68154016978
345,1_41_1,41,1.0,1206.0228874,1_I,test,01,2,88.0,11111,kill,1.0,1300.0,1.16657151764
346,1_41_1,41,1.0,1208.69488658,1_I,test,01,2,89.0,10111,kill,1.0,1400.0,0.760877137165
347,1_41_1,41,1.0,1212.19507004,1_I,test,01,2,90.0,11000,ignore,1.0,1500.0,1.57927891579
348,1_41_1,41,1.0,1214.74206778,1_I,test,01,2,91.0,11100,ignore,1.0,1600.0,0.678281582955
349,1_41_1,41,1.0,1217.33595485,1_I,test,01,2,92.0,10110,ignore,0.0,1500.0,0.693506175279
350,1_41_1,41,1.0,1219.8516833,1_I,test,01,2,93.0,01011,ignore,1.0,1600.0,0.570091689449
351,1_41_1,41,1.0,1222.35182891,1_I,test,01,2,94.0,11110,ignore,1.0,1700.0,0.597179975342
352,1_41_1,41,1.0,1224.97701221,1_I,test,01,2,95.0,10011,ignore,0.0,1600.0,0.6772363335
353,1_41_1,41,1.0,1227.91462952,1_I,test,01,2,96.0,11111,ignore,0.0,1500.0,1.04438028478
354,1_41_1,41,1.0,1231.180425,1_I,test,01,2,97.0,00011,kill,0.0,1400.0,1.28105439659
355,1_41_1,41,1.0,1235.46194638,1_I,test,01,2,98.0,01011,ignore,1.0,1500.0,2.34117692715
356,1_41_1,41,1.0,1239.25900056,1_I,test,01,2,99.0,10010,kill,1.0,1600.0,1.89562804129
357,1_41_1,41,1.0,1244.39987254,1_I,test,01,2,100.0,00111,ignore,1.0,1700.0,3.21191270066
358,1_41_1,41,1.0,1247.75947107,1_I,test,01,2,101.0,11100,ignore,1.0,1800.0,1.46809311091
359,1_41_1,41,1.0,1251.16588997,1_I,test,01,2,102.0,01111,ignore,1.0,1900.0,1.42340973907
360,1_41_1,41,1.0,1254.08791321,1_I,test,01,2,103.0,10100,ignore,0.0,1800.0,0.990086326893
361,1_41_1,41,1.0,1257.57246154,1_I,test,01,2,104.0,10001,kill,1.0,1900.0,1.59286074416
362,1_41_1,41,1.0,1261.99454379,1_I,test,01,2,105.0,10110,kill,1.0,2000.0,2.48863535772
363,1_41_1,41,1.0,1264.96346855,1_I,test,01,2,106.0,00100,ignore,1.0,2100.0,1.08616941572
364,1_41_1,41,1.0,1267.49490974,1_I,test,01,2,107.0,10101,ignore,0.0,2000.0,0.611887876389
365,1_41_1,41,1.0,1270.15128599,1_I,test,01,2,108.0,00110,ignore,1.0,2100.0,0.72389410106
366,1_41_1,41,1.0,1274.49530071,1_I,test,01,2,109.0,11000,kill,0.0,2000.0,2.47404355986
367,1_41_1,41,1.0,1277.72984615,1_I,test,01,2,110.0,01101,ignore,1.0,2100.0,1.33576658255
368,1_41_1,41,1.0,1281.23001389,1_I,test,01,2,111.0,01110,ignore,1.0,2200.0,1.5705689313
369,1_41_1,41,1.0,1286.12091763,1_I,test,01,2,112.0,11010,kill,0.0,2100.0,2.98104342773
370,1_41_1,41,1.0,1289.08986227,1_I,test,01,2,113.0,10111,ignore,0.0,2000.0,1.01946203811
371,1_41_1,41,1.0,1291.73057677,1_I,test,01,2,114.0,01001,ignore,1.0,2100.0,0.757290446568
372,1_41_1,41,1.0,1294.32446801,1_I,test,01,2,115.0,01100,ignore,1.0,2200.0,0.613706719488
373,1_41_1,41,1.0,1296.87145741,1_I,test,01,2,116.0,11011,ignore,0.0,2100.0,0.622005852627
374,1_41_1,41,1.0,1299.4809703,1_I,test,01,2,117.0,11110,kill,0.0,2000.0,0.727191495858
375,1_41_1,41,1.0,1302.35612537,1_I,test,01,2,118.0,01010,ignore,1.0,2100.0,0.947577484448
376,1_41_1,41,1.0,1304.66874188,1_I,test,01,2,119.0,00001,ignore,1.0,2200.0,0.423326029309
377,1_41_1,41,1.0,1308.24705091,1_I,test,01,2,120.0,10000,kill,1.0,2300.0,1.59794939953
378,1_41_1,41,1.0,1311.73162523,1_I,test,01,2,121.0,11101,kill,1.0,2400.0,1.54135454579
379,1_41_1,41,1.0,1314.76302408,1_I,test,01,2,122.0,01000,ignore,1.0,2500.0,1.14512834855
380,1_41_1,41,1.0,1318.37259856,1_I,test,01,2,123.0,00000,ignore,1.0,2600.0,1.65103870662
381,1_41_1,41,1.0,1321.93527536,1_I,test,01,2,124.0,00010,ignore,1.0,2700.0,1.6661263485
382,1_41_1,41,1.0,1326.20111671,1_I,test,01,2,125.0,00101,kill,0.0,2600.0,2.35967389757
383,1_41_1,41,1.0,1328.99819399,1_I,test,01,2,126.0,11001,kill,1.0,2700.0,0.856911796213
384,1_41_1,41,1.0,1332.23270319,1_I,test,01,2,127.0,10101,kill,1.0,2800.0,1.34444128706
385,1_41_1,41,1.0,1336.27976283,1_I,test,01,2,128.0,10110,kill,1.0,2900.0,2.14865313883
386,1_41_1,41,1.0,1339.27992736,1_I,test,01,2,129.0,00000,ignore,1.0,3000.0,1.0533064393
387,1_41_1,41,1.0,1342.12384362,1_I,test,01,2,130.0,00010,ignore,1.0,3100.0,0.91602596093
388,1_41_1,41,1.0,1344.76461489,1_I,test,01,2,131.0,01010,ignore,1.0,3200.0,0.719846846419
389,1_41_1,41,1.0,1347.92102064,1_I,test,01,3,0.0,00011,ignore,0.0,3100.0,1.26961342127
390,1_41_1,41,1.0,1350.74928799,1_I,test,01,3,1.0,01011,ignore,0.0,3000.0,0.907555559547
391,1_41_1,41,1.0,1354.3588708,1_I,test,01,3,2.0,00111,ignore,1.0,3100.0,1.67104501853
392,1_41_1,41,1.0,1357.29649548,1_I,test,01,3,3.0,01110,ignore,1.0,3200.0,1.06212162226
393,1_41_1,41,1.0,1360.68729433,1_I,test,01,3,4.0,11001,kill,0.0,3100.0,1.45221551831
394,1_41_1,41,1.0,1365.40633199,1_I,test,01,3,5.0,11010,ignore,0.0,3000.0,2.86133462223
395,1_41_1,41,1.0,1368.73460574,1_I,test,01,3,6.0,10000,kill,0.0,2900.0,1.36830113448
396,1_41_1,41,1.0,1371.1409698,1_I,test,01,3,7.0,00001,ignore,0.0,2800.0,0.47355926202
397,1_41_1,41,1.0,1373.64111285,1_I,test,01,3,8.0,11110,ignore,1.0,2900.0,0.617517277566
398,1_41_1,41,1.0,1377.26631603,1_I,test,01,3,9.0,01001,kill,1.0,3000.0,1.68948329589
399,1_41_1,41,1.0,1380.48521865,1_I,test,01,3,10.0,01100,ignore,1.0,3100.0,1.34375332754
400,1_41_1,41,1.0,1386.96993857,1_I,test,01,3,11.0,01101,ignore,1.0,3200.0,4.52925062766
401,1_41_1,41,1.0,1389.76934626,1_I,test,01,3,12.0,11011,ignore,0.0,3100.0,0.873815394642
402,1_41_1,41,1.0,1392.55075249,1_I,test,01,3,13.0,10010,ignore,0.0,3000.0,0.881303409072
403,1_41_1,41,1.0,1395.48839449,1_I,test,01,3,14.0,01111,kill,0.0,2900.0,1.02231971612
404,1_41_1,41,1.0,1397.84791155,1_I,test,01,3,15.0,11101,ignore,1.0,3000.0,0.488555175957
405,1_41_1,41,1.0,1401.25435098,1_I,test,01,3,16.0,01000,kill,1.0,3100.0,1.51128510197
406,1_41_1,41,1.0,1405.05142762,1_I,test,01,3,17.0,00110,ignore,1.0,3200.0,1.85066724055
407,1_41_1,41,1.0,1407.84842119,1_I,test,01,3,18.0,11000,ignore,1.0,3300.0,0.930739955791
408,1_41_1,41,1.0,1410.53605838,1_I,test,01,3,19.0,00100,ignore,1.0,3400.0,0.766558496124
409,1_41_1,41,1.0,1413.22374111,1_I,test,01,3,20.0,11111,ignore,1.0,3500.0,0.76038514187
410,1_41_1,41,1.0,1415.8176625,1_I,test,01,3,21.0,10001,ignore,1.0,3600.0,0.667311434946
411,1_41_1,41,1.0,1418.28647693,1_I,test,01,3,22.0,10100,ignore,1.0,3700.0,0.520555717344
412,1_41_1,41,1.0,1420.39600586,1_I,test,01,3,23.0,10111,ignore,1.0,3800.0,0.230382730003
413,1_41_1,41,1.0,1422.78673608,1_I,test,01,3,24.0,00101,ignore,1.0,3900.0,0.420738403472
414,1_41_1,41,1.0,1424.95872467,1_I,test,01,4,0.0,10011,ignore,0.0,3800.0,0.244637443728
415,1_41_1,41,1.0,1428.17768567,1_I,test,01,4,1.0,11100,kill,0.0,3700.0,1.32569960191
416,1_41_1,41,1.0,1430.89651485,1_I,test,01,4,2.0,10000,ignore,1.0,3800.0,0.76819067608
417,1_41_1,41,1.0,1433.44353889,1_I,test,01,4,3.0,01110,ignore,1.0,3900.0,0.684622036001
418,1_41_1,41,1.0,1436.02181297,1_I,test,01,4,4.0,01101,ignore,1.0,4000.0,0.624604703911
419,1_41_1,41,1.0,1438.94385352,1_I,test,01,4,5.0,10100,ignore,0.0,3900.0,0.984304901094
420,1_41_1,41,1.0,1441.8502535,1_I,test,01,4,6.0,11111,kill,0.0,3800.0,1.02738880714
421,1_41_1,41,1.0,1445.02227963,1_I,test,01,4,7.0,00011,ignore,0.0,3700.0,1.24291321511
422,1_41_1,41,1.0,1448.26312255,1_I,test,01,4,8.0,11101,ignore,1.0,3800.0,1.38022576618
423,1_41_1,41,1.0,1450.88830167,1_I,test,01,4,9.0,10011,ignore,0.0,3700.0,0.718239041719
424,1_41_1,41,1.0,1454.09158393,1_I,test,01,4,10.0,00100,ignore,0.0,3600.0,1.24934571682
425,1_41_1,41,1.0,1456.91987597,1_I,test,01,4,11.0,11100,kill,0.0,3500.0,0.954165218049
426,1_41_1,41,1.0,1459.51371044,1_I,test,01,4,12.0,01100,kill,0.0,3400.0,0.718379520167
427,1_41_1,41,1.0,1462.4357959,1_I,test,01,4,13.0,01011,ignore,1.0,3500.0,0.994177841866
428,1_41_1,41,1.0,1464.76398402,1_I,test,01,4,14.0,00010,ignore,1.0,3600.0,0.427702029176
429,1_41_1,41,1.0,1467.15474118,1_I,test,01,4,15.0,00111,ignore,0.0,3500.0,0.443265309264
430,1_41_1,41,1.0,1471.13937515,1_I,test,01,4,16.0,10111,kill,1.0,3600.0,2.10859304741
431,1_41_1,41,1.0,1473.78013423,1_I,test,01,4,17.0,11010,kill,0.0,3500.0,0.753923454
432,1_41_1,41,1.0,1476.48469651,1_I,test,01,4,18.0,00110,ignore,0.0,3400.0,0.747625978378
433,1_41_1,41,1.0,1480.51615117,1_I,test,01,4,19.0,10110,ignore,0.0,3300.0,2.14391471739
434,1_41_1,41,1.0,1483.1569125,1_I,test,01,4,20.0,11000,kill,0.0,3200.0,0.69726413412
435,1_41_1,41,1.0,1486.43830879,1_I,test,01,4,21.0,01010,ignore,1.0,3300.0,1.42437576894
436,1_41_1,41,1.0,1488.81343275,1_I,test,01,4,22.0,00000,ignore,1.0,3400.0,0.406401583622
437,1_41_1,41,1.0,1491.06353859,1_I,test,01,4,23.0,11110,ignore,1.0,3500.0,0.319215142422
438,1_41_1,41,1.0,1493.42308324,1_I,test,01,4,24.0,10001,ignore,0.0,3400.0,0.452169012892
439,1_41_1,41,1.0,1496.07944377,1_I,test,01,4,25.0,01000,ignore,1.0,3500.0,0.714647219489
440,1_41_1,41,1.0,1499.54840381,1_I,test,01,4,26.0,10101,kill,1.0,3600.0,1.59242327247
441,1_41_1,41,1.0,1502.84543041,1_I,test,01,4,27.0,00101,ignore,0.0,3500.0,1.32690521489
442,1_41_1,41,1.0,1506.45498564,1_I,test,01,4,28.0,01001,ignore,1.0,3600.0,1.66602147075
443,1_41_1,41,1.0,1508.89261577,1_I,test,01,4,29.0,01111,ignore,1.0,3700.0,0.561180288372
444,1_41_1,41,1.0,1511.58026804,1_I,test,01,4,30.0,11001,ignore,1.0,3800.0,0.755882775546
445,1_41_1,41,1.0,1514.00223964,1_I,test,01,4,31.0,00001,ignore,0.0,3700.0,0.560231577759
446,1_41_1,41,1.0,1516.92427987,1_I,test,01,4,32.0,11011,kill,0.0,3600.0,1.03698143247
447,1_41_1,41,1.0,1519.51817688,1_I,test,01,4,33.0,10010,ignore,1.0,3700.0,0.660016177472
448,1_41_1,41,1.0,1522.2527621,1_I,test,01,4,34.0,00100,ignore,0.0,3600.0,0.852288195063
449,1_41_1,41,1.0,1524.956028,1_I,test,01,4,35.0,11001,ignore,1.0,3700.0,0.813056220886
450,1_41_1,41,1.0,1527.37811282,1_I,test,01,4,36.0,10000,ignore,1.0,3800.0,0.492578376069
451,1_41_1,41,1.0,1529.78448842,1_I,test,01,4,37.0,00000,ignore,1.0,3900.0,0.506414540995
452,1_41_1,41,1.0,1532.23772257,1_I,test,01,4,38.0,01001,ignore,1.0,4000.0,0.519179477574
453,1_41_1,41,1.0,1535.20661974,1_I,test,01,4,39.0,10011,kill,1.0,4100.0,1.10167624785
454,1_41_1,41,1.0,1538.5974372,1_I,test,01,4,40.0,00010,kill,0.0,4000.0,1.43302673966
455,1_41_1,41,1.0,1541.66011464,1_I,test,01,4,41.0,11111,kill,0.0,3900.0,1.16034556415
456,1_41_1,41,1.0,1544.33209779,1_I,test,01,4,42.0,11101,ignore,1.0,4000.0,0.788742223973
457,1_41_1,41,1.0,1546.62907436,1_I,test,01,4,43.0,11100,ignore,1.0,4100.0,0.373901990945
458,1_41_1,41,1.0,1549.30115179,1_I,test,01,4,44.0,00011,ignore,0.0,4000.0,0.802447532262
459,1_41_1,41,1.0,1551.67622733,1_I,test,01,4,45.0,10100,ignore,0.0,3900.0,0.409624569745
460,1_41_1,41,1.0,1554.92641816,1_I,test,01,4,46.0,01010,kill,0.0,3800.0,1.33090371902
461,1_41_1,41,1.0,1557.48905551,1_I,test,01,4,47.0,01100,ignore,1.0,3900.0,0.679636334013
462,1_41_1,41,1.0,1559.66106207,1_I,test,01,4,48.0,11110,ignore,1.0,4000.0,0.261364321553
463,1_41_1,41,1.0,1562.06740752,1_I,test,01,4,49.0,00101,ignore,0.0,3900.0,0.543165691442
464,1_41_1,41,1.0,1565.27071063,1_I,test,01,4,50.0,11000,kill,0.0,3800.0,1.30768628789
465,1_41_1,41,1.0,1567.72396434,1_I,test,01,4,51.0,01111,ignore,1.0,3900.0,0.519754861901
466,1_41_1,41,1.0,1569.88032455,1_I,test,01,4,52.0,01011,ignore,1.0,4000.0,0.294272199764
467,1_41_1,41,1.0,1572.08355741,1_I,test,01,4,53.0,01110,ignore,1.0,4100.0,0.341884130297
468,1_41_1,41,1.0,1575.11499316,1_I,test,01,4,54.0,10101,kill,1.0,4200.0,1.08922241651
469,1_41_1,41,1.0,1578.05261207,1_I,test,01,4,55.0,10001,kill,1.0,4300.0,1.01494491834
470,1_41_1,41,1.0,1581.03717227,1_I,test,01,4,56.0,10111,kill,1.0,4400.0,1.05432891714
471,1_41_1,41,1.0,1584.56860929,1_I,test,01,4,57.0,10110,ignore,0.0,4300.0,1.67121628678
472,1_41_1,41,1.0,1587.28749139,1_I,test,01,4,58.0,01101,ignore,1.0,4400.0,0.821737019214
473,1_41_1,41,1.0,1590.19388848,1_I,test,01,4,59.0,10010,kill,0.0,4300.0,0.96541022914
474,1_41_1,41,1.0,1592.60026794,1_I,test,01,4,60.0,11011,ignore,1.0,4400.0,0.52037899674
475,1_41_1,41,1.0,1595.14729646,1_I,test,01,4,61.0,01000,ignore,1.0,4500.0,0.620916663567
476,1_41_1,41,1.0,1597.45993381,1_I,test,01,4,62.0,00001,ignore,0.0,4400.0,0.431055871935
477,1_41_1,41,1.0,1600.24131696,1_I,test,01,4,63.0,11010,ignore,1.0,4500.0,0.854335395822
478,1_41_1,41,1.0,1602.64769545,1_I,test,01,4,64.0,00110,ignore,0.0,4400.0,0.468719170112
479,1_41_1,41,1.0,1605.00716087,1_I,test,01,4,65.0,00111,ignore,0.0,4300.0,0.47690540733
480,1_41_1,41,1.0,1607.88233679,1_I,test,01,4,66.0,01111,kill,0.0,4200.0,0.954784541982
481,1_41_1,41,1.0,1610.74825557,1_I,test,01,4,67.0,10001,ignore,0.0,4100.0,1.02433099545
482,1_41_1,41,1.0,1613.59215033,1_I,test,01,4,68.0,10011,kill,1.0,4200.0,0.887326983793
483,1_41_1,41,1.0,1616.57669001,1_I,test,01,4,69.0,11001,ignore,1.0,4300.0,1.06893931716
484,1_41_1,41,1.0,1619.24867732,1_I,test,01,4,70.0,01011,kill,0.0,4200.0,0.780286255306
485,1_41_1,41,1.0,1622.59261218,1_I,test,01,4,71.0,10110,kill,1.0,4300.0,1.42157646325
486,1_41_1,41,1.0,1625.26461329,1_I,test,01,4,72.0,00000,ignore,1.0,4400.0,0.807431309888
487,1_41_1,41,1.0,1627.79603459,1_I,test,01,4,73.0,10000,ignore,1.0,4500.0,0.641103224077
488,1_41_1,41,1.0,1631.34306184,1_I,test,01,4,74.0,00101,ignore,0.0,4400.0,1.60822164548
489,1_41_1,41,1.0,1634.18697297,1_I,test,01,4,75.0,10101,kill,1.0,4500.0,0.986800478268
490,1_41_1,41,1.0,1638.37472177,1_I,test,01,4,76.0,01110,ignore,1.0,4600.0,2.31815289443
491,1_41_1,41,1.0,1641.04674885,1_I,test,01,4,77.0,11010,ignore,1.0,4700.0,0.753600161133
492,1_41_1,41,1.0,1644.24077332,1_I,test,01,4,78.0,11101,kill,0.0,4600.0,1.28481780779
493,1_41_1,41,1.0,1646.63159174,1_I,test,01,4,79.0,01000,ignore,1.0,4700.0,0.457514249903
494,1_41_1,41,1.0,1648.72536816,1_I,test,01,4,80.0,00110,ignore,0.0,4600.0,0.226881673528
495,1_41_1,41,1.0,1652.10057712,1_I,test,01,4,81.0,01101,ignore,1.0,4700.0,1.4346765596
496,1_41_1,41,1.0,1654.77258784,1_I,test,01,4,82.0,01100,ignore,1.0,4800.0,0.744670157887
497,1_41_1,41,1.0,1657.39771341,1_I,test,01,4,83.0,00011,ignore,0.0,4700.0,0.741841666036
498,1_41_1,41,1.0,1660.74163736,1_I,test,01,4,84.0,11000,ignore,1.0,4800.0,1.41712156453
499,1_41_1,41,1.0,1663.1479934,1_I,test,01,4,85.0,10100,ignore,0.0,4700.0,0.539083798281
500,1_41_1,41,1.0,1665.80439018,1_I,test,01,4,86.0,11011,kill,0.0,4600.0,0.701677979779
501,1_41_1,41,1.0,1668.61702785,1_I,test,01,4,87.0,10111,ignore,0.0,4500.0,0.890003130296
502,1_41_1,41,1.0,1670.77341853,1_I,test,01,4,88.0,01010,ignore,1.0,4600.0,0.282075591517
503,1_41_1,41,1.0,1673.44544369,1_I,test,01,4,89.0,11100,ignore,1.0,4700.0,0.743244846878
504,1_41_1,41,1.0,1676.00964939,1_I,test,01,4,90.0,00010,ignore,1.0,4800.0,0.709235912706
505,1_41_1,41,1.0,1678.38479613,1_I,test,01,4,91.0,11111,ignore,1.0,4900.0,0.50038262737
506,1_41_1,41,1.0,1680.80680557,1_I,test,01,4,92.0,10010,ignore,1.0,5000.0,0.505133557158
507,1_41_1,41,1.0,1683.18191414,1_I,test,01,4,93.0,00111,ignore,0.0,4900.0,0.521220263792
508,1_41_1,41,1.0,1685.82269439,1_I,test,01,4,94.0,00100,kill,1.0,5000.0,0.775823979864
509,1_41_1,41,1.0,1688.15094826,1_I,test,01,4,95.0,01001,ignore,1.0,5100.0,0.468301904221
510,1_41_1,41,1.0,1690.36978418,1_I,test,01,4,96.0,00001,kill,1.0,5200.0,0.306834757575
511,1_41_1,41,1.0,1692.65118239,1_I,test,01,4,97.0,11110,ignore,1.0,5300.0,0.376512388403
512,1_41_1,41,1.0,1694.93469869,1_I,test,01,4,98.0,11101,kill,0.0,5200.0,0.422094437438
513,1_41_1,41,1.0,1697.7160597,1_I,test,01,4,99.0,10100,ignore,0.0,5100.0,0.895348688034
514,1_41_1,41,1.0,1701.18501621,1_I,test,01,4,100.0,10110,kill,1.0,5200.0,1.54030705125
515,1_41_1,41,1.0,1708.26352891,1_I,test,01,4,101.0,01000,ignore,1.0,5300.0,5.19205552683
516,1_41_1,41,1.0,1710.52927725,1_I,test,01,4,102.0,01001,ignore,1.0,5400.0,0.334322669373
517,1_41_1,41,1.0,1712.6074798,1_I,test,01,4,103.0,00110,ignore,0.0,5300.0,0.212568266752
518,1_41_1,41,1.0,1715.24827032,1_I,test,01,4,104.0,11111,kill,0.0,5200.0,0.68391226704
519,1_41_1,41,1.0,1717.38899797,1_I,test,01,4,105.0,00011,ignore,0.0,5100.0,0.200448632997
520,1_41_1,41,1.0,1719.99852883,1_I,test,01,4,106.0,10011,kill,1.0,5200.0,0.72340274722
521,1_41_1,41,1.0,1722.76428198,1_I,test,01,4,107.0,10001,ignore,0.0,5100.0,0.839333388071
522,1_41_1,41,1.0,1725.06131531,1_I,test,01,4,108.0,00101,kill,1.0,5200.0,0.441122852572
523,1_41_1,41,1.0,1727.43639918,1_I,test,01,4,109.0,00010,ignore,1.0,5300.0,0.415515363467
524,1_41_1,41,1.0,1729.90766781,1_I,test,01,4,110.0,11000,kill,0.0,5200.0,0.560340304229
525,1_41_1,41,1.0,1732.39221069,1_I,test,01,4,111.0,11100,kill,0.0,5100.0,0.596875926099
526,1_41_1,41,1.0,1735.72050113,1_I,test,01,4,112.0,00111,kill,1.0,5200.0,1.38079249088
527,1_41_1,41,1.0,1738.28315259,1_I,test,01,4,113.0,10111,kill,1.0,5300.0,0.704684475143
528,1_41_1,41,1.0,1741.18955418,1_I,test,01,4,114.0,11011,kill,0.0,5200.0,1.02269079731
529,1_41_1,41,1.0,1743.84593684,1_I,test,01,4,115.0,01101,ignore,1.0,5300.0,0.718270152243
530,1_41_1,41,1.0,1745.97104861,1_I,test,01,4,116.0,10000,ignore,1.0,5400.0,0.277449424552
531,1_41_1,41,1.0,1748.14305773,1_I,test,01,4,117.0,01010,ignore,1.0,5500.0,0.302299356365
532,1_41_1,41,1.0,1750.29942949,1_I,test,01,4,118.0,01011,ignore,1.0,5600.0,0.235240141171
533,1_41_1,41,1.0,1752.61201488,1_I,test,01,4,119.0,10010,ignore,1.0,5700.0,0.396011951573
534,1_41_1,41,1.0,1755.11215536,1_I,test,01,4,120.0,00001,ignore,0.0,5600.0,0.564760564428
535,1_41_1,41,1.0,1757.69041789,1_I,test,01,4,121.0,01111,kill,0.0,5500.0,0.738135664976
536,1_41_1,41,1.0,1760.17490144,1_I,test,01,4,122.0,10101,ignore,0.0,5400.0,0.516016146682
537,1_41_1,41,1.0,1762.64377135,1_I,test,01,4,123.0,00100,ignore,0.0,5300.0,0.543737227045
538,1_41_1,41,1.0,1764.97203741,1_I,test,01,4,124.0,00000,ignore,1.0,5400.0,0.445331753645
539,1_41_1,41,1.0,1767.6596576,1_I,test,01,4,125.0,11010,ignore,1.0,5500.0,0.765154673827
540,1_41_1,41,1.0,1770.44110361,1_I,test,01,4,126.0,11001,kill,0.0,5400.0,0.938195897516
541,1_41_1,41,1.0,1773.55060496,1_I,test,01,4,127.0,11110,kill,0.0,5300.0,1.16463272263
542,1_41_1,41,1.0,1776.73830437,1_I,test,01,4,128.0,01100,kill,0.0,5200.0,1.27877306509
543,1_41_1,41,1.0,1779.660326,1_I,test,01,4,129.0,01110,kill,0.0,5100.0,1.04677900238
544,1_41_1,41,1.0,1783.56679494,1_I,test,01,4,130.0,10110,kill,1.0,5200.0,1.97295469153
545,1_41_1,41,1.0,1786.58254071,1_I,test,01,4,131.0,01100,kill,0.0,5100.0,1.16901417485
546,1_41_1,41,1.0,1789.33271775,1_I,test,01,4,132.0,10010,kill,0.0,5000.0,0.876521368761
547,1_41_1,41,1.0,1792.41101236,1_I,test,01,4,133.0,10011,ignore,0.0,4900.0,1.13817274102
548,1_41_1,41,1.0,1795.4267902,1_I,test,01,4,134.0,01111,kill,0.0,4800.0,1.14296215806
549,1_41_1,41,1.0,1797.94253598,1_I,test,01,4,135.0,11011,ignore,1.0,4900.0,0.610625494721
550,1_41_1,41,1.0,1800.38013885,1_I,test,01,4,136.0,10001,ignore,0.0,4800.0,0.573962223486
551,1_41_1,41,1.0,1803.1459353,1_I,test,01,4,137.0,01110,ignore,1.0,4900.0,0.865132992678
552,1_41_1,41,1.0,1806.97560422,1_I,test,01,4,138.0,01001,ignore,1.0,5000.0,1.8868397994
553,1_41_1,41,1.0,1809.52263756,1_I,test,01,4,139.0,01000,ignore,1.0,5100.0,0.702456384329
554,1_41_1,41,1.0,1812.11646241,1_I,test,01,4,140.0,11010,ignore,1.0,5200.0,0.741550766602
555,1_41_1,41,1.0,1815.47607537,1_I,test,01,4,141.0,00101,kill,1.0,5300.0,1.42460605096
556,1_41_1,41,1.0,1818.27309491,1_I,test,01,4,142.0,11001,ignore,1.0,5400.0,0.89731346194
557,1_41_1,41,1.0,1821.60136001,1_I,test,01,4,143.0,10111,kill,1.0,5500.0,1.38148878931
558,1_41_1,41,1.0,1824.6171494,1_I,test,01,4,144.0,10101,kill,1.0,5600.0,1.15290245151
559,1_41_1,41,1.0,1827.49545658,1_I,test,01,4,145.0,00000,ignore,1.0,5700.0,0.912809068621
560,1_41_1,41,1.0,1830.41742914,1_I,test,01,4,146.0,11101,kill,0.0,5600.0,1.00579393415
561,1_41_1,41,1.0,1833.37078196,1_I,test,01,4,147.0,00100,kill,1.0,5700.0,1.05537961895
562,1_41_1,41,1.0,1836.35525492,1_I,test,01,4,148.0,01010,ignore,1.0,5800.0,1.07856978828
563,1_41_1,41,1.0,1838.74603261,1_I,test,01,4,149.0,01011,ignore,1.0,5900.0,0.535265222026
564,1_41_1,41,1.0,1841.21490444,1_I,test,01,4,150.0,00010,ignore,1.0,6000.0,0.522025609414
565,1_41_1,41,1.0,1843.77754436,1_I,test,01,4,151.0,00011,ignore,0.0,5900.0,0.63800243496
566,1_41_1,41,1.0,1847.51212829,1_I,test,01,5,0.0,11111,ignore,0.0,5800.0,1.86380357906
567,1_41_1,41,1.0,1852.37177717,1_I,test,01,5,1.0,10100,ignore,0.0,5700.0,2.9246705171
568,1_41_1,41,1.0,1855.32512037,1_I,test,01,5,2.0,11100,kill,0.0,5600.0,1.08934236843
569,1_41_1,41,1.0,1858.32517265,1_I,test,01,5,3.0,11000,ignore,1.0,5700.0,1.11162552166
570,1_41_1,41,1.0,1861.12227943,1_I,test,01,5,4.0,01101,kill,0.0,5600.0,0.875858105222
571,1_41_1,41,1.0,1864.7036729,1_I,test,01,5,5.0,00111,ignore,1.0,5700.0,1.74098500409
572,1_41_1,41,1.0,1867.0787773,1_I,test,01,5,6.0,11110,ignore,1.0,5800.0,0.51462707783
573,1_41_1,41,1.0,1869.62579845,1_I,test,01,5,7.0,00110,ignore,1.0,5900.0,0.598517727867
574,1_41_1,41,1.0,1872.29783419,1_I,test,01,5,8.0,00001,ignore,1.0,6000.0,0.775625449819
575,1_41_1,41,1.0,1874.64167636,1_I,test,01,5,9.0,10000,ignore,0.0,5900.0,0.418150777635
576,1_41_1,41,1.0,1877.32933312,1_I,test,01,5,10.0,11111,ignore,0.0,5800.0,0.845666785122
577,1_41_1,41,1.0,1880.01697544,1_I,test,01,5,11.0,10110,kill,1.0,5900.0,0.731781420667
578,1_41_1,41,1.0,1883.48590437,1_I,test,01,5,12.0,11100,ignore,1.0,6000.0,1.53491947827
579,1_41_1,41,1.0,1887.29860683,1_I,test,01,5,13.0,10011,ignore,0.0,5900.0,1.93154818796
580,1_41_1,41,1.0,1890.25190801,1_I,test,01,5,14.0,10000,ignore,0.0,5800.0,1.01369215848
581,1_41_1,41,1.0,1894.20521432,1_I,test,01,5,15.0,01110,ignore,1.0,5900.0,2.08780448222
582,1_41_1,41,1.0,1897.95651583,1_I,test,01,5,16.0,11000,kill,0.0,5800.0,1.81978764021
583,1_41_1,41,1.0,1901.28483866,1_I,test,01,5,17.0,00010,ignore,1.0,5900.0,1.39459979037
584,1_41_1,41,1.0,1906.222616,1_I,test,01,5,18.0,11011,kill,1.0,6000.0,3.07841840511
585,1_41_1,41,1.0,1909.12898776,1_I,test,01,5,19.0,01000,ignore,1.0,6100.0,0.986157099806
586,1_41_1,41,1.0,1911.73848077,1_I,test,01,5,20.0,00001,ignore,1.0,6200.0,0.758231139004
587,1_41_1,41,1.0,1916.80126726,1_I,test,01,5,21.0,00100,ignore,1.0,6300.0,3.103302334
588,1_41_1,41,1.0,1919.66078239,1_I,test,01,5,22.0,10111,kill,1.0,6400.0,0.91410288154
589,1_41_1,41,1.0,1922.91095687,1_I,test,01,5,23.0,01011,ignore,1.0,6500.0,1.38424030667
590,1_41_1,41,1.0,1925.69235605,1_I,test,01,5,24.0,11110,kill,0.0,6400.0,0.865542881848
591,1_41_1,41,1.0,1928.14560367,1_I,test,01,5,25.0,00111,ignore,1.0,6500.0,0.610574499121
592,1_41_1,41,1.0,1931.30202513,1_I,test,01,5,26.0,10101,kill,1.0,6600.0,1.24401555398
593,1_41_1,41,1.0,1934.0678094,1_I,test,01,5,27.0,00011,ignore,1.0,6700.0,0.842424234649
594,1_41_1,41,1.0,1936.80231507,1_I,test,01,5,28.0,01101,ignore,1.0,6800.0,0.893193722987
595,1_41_1,41,1.0,1939.66185458,1_I,test,01,5,29.0,01001,ignore,1.0,6900.0,0.988774873987
596,1_41_1,41,1.0,1942.61513107,1_I,test,01,5,30.0,10001,kill,1.0,7000.0,1.02947449514
597,1_41_1,41,1.0,1946.58805625,1_I,test,01,5,31.0,01100,ignore,1.0,7100.0,2.06967923446
598,1_41_1,41,1.0,1949.69759256,1_I,test,01,5,32.0,01010,ignore,1.0,7200.0,1.20389356224
599,1_41_1,41,1.0,1953.18213801,1_I,test,01,5,33.0,00101,ignore,1.0,7300.0,1.63130244689
600,1_41_1,41,1.0,1955.94792996,1_I,test,01,5,34.0,00000,ignore,1.0,7400.0,0.804892755289
601,1_41_1,41,1.0,1958.68241864,1_I,test,01,6,0.0,01111,ignore,1.0,7500.0,0.805489307601
602,1_41_1,41,1.0,1961.15130748,1_I,test,01,6,1.0,00110,ignore,1.0,7600.0,0.575145706299
603,1_41_1,41,1.0,1964.68273744,1_I,test,01,6,2.0,11001,kill,0.0,7500.0,1.60910139978
604,1_41_1,41,1.0,1967.6672598,1_I,test,01,6,3.0,11101,kill,0.0,7400.0,1.13218284264
605,1_41_1,41,1.0,1970.49553323,1_I,test,01,6,4.0,10010,ignore,0.0,7300.0,0.89428162914
606,1_41_1,41,1.0,1973.30819304,1_I,test,01,6,5.0,10100,kill,0.0,7200.0,0.87517335297
607,1_41_1,41,1.0,1977.24591394,1_I,test,01,6,6.0,11010,ignore,0.0,7100.0,2.07557548055
608,1_41_1,41,1.0,1979.7773067,1_I,test,01,6,7.0,01011,ignore,0.0,7000.0,0.600312195711
609,1_41_1,41,1.0,1982.17429687,1_I,test,01,6,8.0,00110,ignore,1.0,7100.0,0.556306840851
610,1_41_1,41,1.0,1984.9869493,1_I,test,01,6,9.0,11001,kill,0.0,7000.0,0.912177236334
611,1_41_1,41,1.0,1987.7683613,1_I,test,01,6,10.0,01010,ignore,0.0,6900.0,0.852485442199
612,1_41_1,41,1.0,1990.62786522,1_I,test,01,6,11.0,00010,kill,1.0,7000.0,1.02249804036
613,1_41_1,41,1.0,1993.17486263,1_I,test,01,6,12.0,00001,kill,1.0,7100.0,0.672788490774
614,1_41_1,41,1.0,1995.89379252,1_I,test,01,6,13.0,00100,kill,0.0,7000.0,0.766101460078
615,1_41_1,41,1.0,1998.48763373,1_I,test,01,6,14.0,10110,kill,0.0,6900.0,0.680235131415
616,1_41_1,41,1.0,2001.90968358,1_I,test,01,6,15.0,11110,ignore,1.0,7000.0,1.50188074342
617,1_41_1,41,1.0,2004.42725814,1_I,test,01,6,16.0,11111,ignore,1.0,7100.0,0.669586031182
618,1_41_1,41,1.0,2007.78679637,1_I,test,01,6,17.0,11100,ignore,1.0,7200.0,1.49397578382
619,1_41_1,41,1.0,2011.81826034,1_I,test,01,6,18.0,01101,kill,0.0,7100.0,2.09830572729
620,1_41_1,41,1.0,2014.8027875,1_I,test,01,6,19.0,01111,ignore,1.0,7200.0,1.09502084084
621,1_41_1,41,1.0,2017.5092456,1_I,test,01,6,20.0,11000,ignore,1.0,7300.0,0.796569246895
622,1_41_1,41,1.0,2019.69683308,1_I,test,01,6,21.0,10011,ignore,0.0,7200.0,0.344985560868
623,1_41_1,41,1.0,2022.82204684,1_I,test,01,6,22.0,10001,ignore,1.0,7300.0,1.1713718394
624,1_41_1,41,1.0,2027.08787536,1_I,test,01,6,23.0,00111,ignore,1.0,7400.0,2.32452028855
625,1_41_1,41,1.0,2029.60363397,1_I,test,01,6,24.0,00011,ignore,0.0,7300.0,0.64107788664
626,1_41_1,41,1.0,2033.5725754,1_I,test,01,6,25.0,10111,kill,0.0,7200.0,2.04016496917
627,1_41_1,41,1.0,2036.86961259,1_I,test,01,6,26.0,10000,ignore,1.0,7300.0,1.45769546069
628,1_41_1,41,1.0,2039.41666485,1_I,test,01,6,27.0,01000,ignore,0.0,7200.0,0.607552608858
629,1_41_1,41,1.0,2042.52620532,1_I,test,01,6,28.0,00000,ignore,0.0,7100.0,1.17548708817
630,1_41_1,41,1.0,2045.26067989,1_I,test,01,6,29.0,01110,kill,0.0,7000.0,0.86760162878
631,1_41_1,41,1.0,2047.94834081,1_I,test,01,6,30.0,10100,ignore,1.0,7100.0,0.761311722317
632,1_41_1,41,1.0,2050.46408114,1_I,test,01,6,31.0,11101,ignore,1.0,7200.0,0.663257765764
633,1_41_1,41,1.0,2052.97983653,1_I,test,01,6,32.0,11011,ignore,0.0,7100.0,0.622374688734
634,1_41_1,41,1.0,2055.41748527,1_I,test,01,6,33.0,00101,ignore,1.0,7200.0,0.502339383101
635,1_41_1,41,1.0,2058.60517538,1_I,test,01,6,34.0,10101,kill,0.0,7100.0,1.3342922003
636,1_41_1,41,1.0,2061.3240485,1_I,test,01,6,35.0,11010,ignore,0.0,7000.0,0.859472801705
637,1_41_1,41,1.0,2063.65230526,1_I,test,01,6,36.0,01001,ignore,0.0,6900.0,0.394017991504
638,1_41_1,41,1.0,2066.32432432,1_I,test,01,6,37.0,10010,ignore,0.0,6800.0,0.76418030505
639,1_41_1,41,1.0,2068.94945951,1_I,test,01,6,38.0,01100,kill,0.0,6700.0,0.710432224601
