,unique_id,pair_id,sbj_id,wall_time,condition,block,rule_id,rule_num,trial,stimulus,choice,correct,points,reaction_time
0,1_42_2,42,2.0,21.5051011637,1_I,training,02,1_B,1.0,11111,kill,0.0,0.0,2.62463292789
1,1_42_2,42,2.0,28.8961014344,1_I,training,02,1_B,2.0,10100,kill,0.0,0.0,5.21976890975
2,1_42_2,42,2.0,32.6931832031,1_I,training,02,1_B,3.0,11000,ignore,1.0,100.0,1.63079409452
3,1_42_2,42,2.0,36.3988064464,1_I,training,02,1_B,4.0,01100,ignore,0.0,0.0,1.54751539169
4,1_42_2,42,2.0,39.758409784,1_I,training,02,1_B,5.0,10110,ignore,1.0,100.0,1.22909469017
5,1_42_2,42,2.0,42.9772857896,1_I,training,02,1_B,6.0,00000,kill,0.0,0.0,1.07572750517
6,1_42_2,42,2.0,47.27439033,1_I,training,02,1_B,7.0,00010,ignore,1.0,100.0,2.14441056141
7,1_42_2,42,2.0,51.7433712133,1_I,training,02,1_B,8.0,01000,kill,1.0,200.0,2.31347316605
8,1_42_2,42,2.0,54.9622962902,1_I,training,02,1_B,9.0,00100,kill,1.0,300.0,1.06727891322
9,1_42_2,42,2.0,58.6187414927,1_I,training,02,1_B,10.0,01111,ignore,0.0,200.0,1.51185535467
10,1_42_2,42,2.0,62.759576589,1_I,training,02,1_B,11.0,00001,kill,0.0,100.0,1.9862032845
11,1_42_2,42,2.0,68.1504559456,1_I,training,02,1_B,12.0,10011,kill,0.0,0.0,3.23316215062
12,1_42_2,42,2.0,72.978877558,1_I,training,02,1_B,13.0,01001,kill,1.0,100.0,2.68614901748
13,1_42_2,42,2.0,76.2501180276,1_I,training,02,1_B,14.0,00111,ignore,0.0,0.0,1.19498312334
14,1_42_2,42,2.0,79.6580619876,1_I,training,02,1_B,15.0,11110,ignore,1.0,100.0,1.30089457189
15,1_42_2,42,2.0,83.0800954869,1_I,training,02,1_B,16.0,10000,kill,0.0,0.0,1.29660516832
16,1_42_2,42,2.0,86.4396247365,1_I,training,02,1_B,17.0,00101,ignore,0.0,0.0,1.23777965795
17,1_42_2,42,2.0,90.6742173298,1_I,training,02,1_B,18.0,00110,kill,1.0,100.0,2.11690084018
18,1_42_2,42,2.0,94.1915330625,1_I,training,02,1_B,19.0,11011,ignore,1.0,200.0,1.43361944324
19,1_42_2,42,2.0,98.1917864368,1_I,training,02,1_B,20.0,10111,kill,0.0,100.0,1.90507120782
20,1_42_2,42,2.0,101.348175512,1_I,training,02,1_B,21.0,10101,kill,0.0,0.0,1.08705430166
21,1_42_2,42,2.0,110.645525409,1_I,training,02,1_B,22.0,01110,kill,1.0,100.0,7.21389896328
22,1_42_2,42,2.0,114.255212456,1_I,training,02,1_B,23.0,10010,ignore,1.0,200.0,1.56346771369
23,1_42_2,42,2.0,119.411801344,1_I,training,02,1_B,24.0,11010,ignore,1.0,300.0,3.0957578716
24,1_42_2,42,2.0,122.938838955,1_I,training,02,1_B,25.0,01101,kill,1.0,400.0,1.45263053912
25,1_42_2,42,2.0,128.736035224,1_I,training,02,1_B,26.0,01010,kill,1.0,500.0,3.74164570181
26,1_42_2,42,2.0,132.126804571,1_I,training,02,1_B,27.0,11100,ignore,1.0,600.0,1.30422692593
27,1_42_2,42,2.0,135.876992838,1_I,training,02,1_B,28.0,11101,kill,0.0,500.0,1.67019669549
28,1_42_2,42,2.0,138.955272689,1_I,training,02,1_B,29.0,11001,ignore,1.0,600.0,1.01307123091
29,1_42_2,42,2.0,142.158601771,1_I,training,02,1_B,30.0,10001,ignore,1.0,700.0,1.11901154489
30,1_42_2,42,2.0,145.893177687,1_I,training,02,1_B,31.0,00011,kill,0.0,600.0,1.65248518562
31,1_42_2,42,2.0,149.330843102,1_I,training,02,1_B,32.0,01011,kill,1.0,700.0,1.37264987254
32,1_42_2,42,2.0,153.112309953,1_I,training,02,1_B,33.0,10000,ignore,1.0,800.0,1.67987303058
33,1_42_2,42,2.0,156.29993656,1_I,training,02,1_B,34.0,11110,ignore,1.0,900.0,1.12676480059
34,1_42_2,42,2.0,159.311902886,1_I,training,02,1_B,35.0,10110,kill,0.0,800.0,0.956947525206
35,1_42_2,42,2.0,162.233913614,1_I,training,02,1_B,36.0,00010,ignore,1.0,900.0,0.840961077848
36,1_42_2,42,2.0,165.421620403,1_I,training,02,1_B,37.0,00000,kill,0.0,800.0,1.08112598287
37,1_42_2,42,2.0,168.673332444,1_I,training,02,1_B,38.0,11100,kill,0.0,700.0,1.19244200293
38,1_42_2,42,2.0,171.689115743,1_I,training,02,1_B,39.0,10010,ignore,1.0,800.0,0.964360810233
39,1_42_2,42,2.0,174.845508987,1_I,training,02,1_B,40.0,00100,ignore,0.0,700.0,1.07193939798
40,1_42_2,42,2.0,178.658214012,1_I,training,02,1_B,41.0,11111,ignore,1.0,800.0,1.77685960751
41,1_42_2,42,2.0,181.752100762,1_I,training,02,1_B,42.0,10001,kill,0.0,700.0,1.00337789729
42,1_42_2,42,2.0,184.986666094,1_I,training,02,1_B,43.0,01101,kill,1.0,800.0,1.1663373869
43,1_42_2,42,2.0,189.268154434,1_I,training,02,1_B,44.0,10111,kill,0.0,700.0,2.20141594578
44,1_42_2,42,2.0,193.221494421,1_I,training,02,1_B,45.0,11001,kill,0.0,600.0,1.90816301658
45,1_42_2,42,2.0,196.752886864,1_I,training,02,1_B,46.0,11010,ignore,1.0,700.0,1.48274552618
46,1_42_2,42,2.0,200.518725649,1_I,training,02,1_B,47.0,00101,ignore,0.0,600.0,1.6651494139
47,1_42_2,42,2.0,204.659607571,1_I,training,02,1_B,48.0,10101,kill,0.0,500.0,2.08006373488
48,1_42_2,42,2.0,208.362929277,1_I,training,02,1_B,49.0,00111,ignore,0.0,400.0,1.62259663185
49,1_42_2,42,2.0,212.659995009,1_I,training,02,1_B,50.0,00011,ignore,1.0,500.0,2.20748442229
50,1_42_2,42,2.0,217.41027757,1_I,training,02,1_B,51.0,10011,ignore,1.0,600.0,2.66457018085
51,1_42_2,42,2.0,220.957323417,1_I,training,02,1_B,52.0,00001,ignore,1.0,700.0,1.49534689196
52,1_42_2,42,2.0,224.285625078,1_I,training,02,1_B,53.0,01111,kill,1.0,800.0,1.27085431423
53,1_42_2,42,2.0,227.613925135,1_I,training,02,1_B,54.0,01000,ignore,0.0,700.0,1.29573182857
54,1_42_2,42,2.0,231.176602256,1_I,training,02,1_B,55.0,01001,kill,1.0,800.0,1.4867581423
55,1_42_2,42,2.0,234.645523805,1_I,training,02,1_B,56.0,10100,ignore,1.0,900.0,1.38914807198
56,1_42_2,42,2.0,238.176998995,1_I,training,02,1_B,57.0,01011,ignore,0.0,800.0,1.48883645358
57,1_42_2,42,2.0,243.317868089,1_I,training,02,1_B,58.0,01010,ignore,0.0,700.0,3.07997906294
58,1_42_2,42,2.0,246.849318263,1_I,training,02,1_B,59.0,01110,ignore,0.0,600.0,1.50359663314
59,1_42_2,42,2.0,250.115099958,1_I,training,02,1_B,60.0,11011,ignore,1.0,700.0,1.19799988197
60,1_42_2,42,2.0,253.50588919,1_I,training,02,1_B,61.0,00110,ignore,0.0,600.0,1.32874105653
61,1_42_2,42,2.0,257.287337119,1_I,training,02,1_B,62.0,01100,ignore,0.0,500.0,1.72636658589
62,1_42_2,42,2.0,261.396956813,1_I,training,02,1_B,63.0,11101,kill,0.0,400.0,2.04410221443
63,1_42_2,42,2.0,265.070018243,1_I,training,02,1_B,64.0,11000,ignore,1.0,500.0,1.62947686852
64,1_42_2,42,2.0,268.382679649,1_I,training,02,1_B,65.0,11011,ignore,1.0,600.0,1.26352056951
65,1_42_2,42,2.0,272.257897904,1_I,training,02,1_B,66.0,00001,ignore,1.0,700.0,1.79069769679
66,1_42_2,42,2.0,276.695623295,1_I,training,02,1_B,67.0,00110,ignore,0.0,600.0,2.3776067091
67,1_42_2,42,2.0,280.227061601,1_I,training,02,1_B,68.0,01000,ignore,0.0,500.0,1.46844077903
68,1_42_2,42,2.0,284.399141285,1_I,training,02,1_B,69.0,00101,ignore,0.0,400.0,2.11700956665
69,1_42_2,42,2.0,287.542079389,1_I,training,02,1_B,70.0,00111,ignore,0.0,300.0,1.07402829326
70,1_42_2,42,2.0,290.932884016,1_I,training,02,1_B,71.0,10110,ignore,1.0,400.0,1.3461100299
71,1_42_2,42,2.0,294.558089763,1_I,training,02,1_B,72.0,11100,ignore,1.0,500.0,1.58465590478
72,1_42_2,42,2.0,298.152011151,1_I,training,02,1_B,73.0,10010,kill,0.0,400.0,1.5650816122
73,1_42_2,42,2.0,301.339716657,1_I,training,02,1_B,74.0,00011,ignore,1.0,500.0,1.13728015764
74,1_42_2,42,2.0,305.277418314,1_I,training,02,1_B,75.0,01101,ignore,0.0,400.0,1.88730389145
75,1_42_2,42,2.0,308.433866403,1_I,training,02,1_B,76.0,01111,ignore,0.0,300.0,1.11086636074
76,1_42_2,42,2.0,311.559036228,1_I,training,02,1_B,77.0,10100,ignore,1.0,400.0,1.08691221957
77,1_42_2,42,2.0,315.152981992,1_I,training,02,1_B,78.0,10000,kill,0.0,300.0,1.53432549177
78,1_42_2,42,2.0,318.453425301,1_I,training,02,1_B,79.0,10101,kill,0.0,200.0,1.2520334095
79,1_42_2,42,2.0,322.312997849,1_I,training,02,1_B,80.0,01100,kill,1.0,300.0,1.82991491753
80,1_42_2,42,2.0,325.819436765,1_I,training,02,1_B,81.0,10111,kill,0.0,200.0,1.46385309931
81,1_42_2,42,2.0,329.569642351,1_I,training,02,1_B,82.0,11001,kill,0.0,100.0,1.74645179665
82,1_42_2,42,2.0,332.647899751,1_I,training,02,1_B,83.0,10011,ignore,1.0,200.0,1.02335983394
83,1_42_2,42,2.0,337.804416476,1_I,training,02,1_B,84.0,11110,ignore,1.0,300.0,3.13073283565
84,1_42_2,42,2.0,340.945244837,1_I,training,02,1_B,85.0,10001,kill,0.0,200.0,1.10434309327
85,1_42_2,42,2.0,344.195392371,1_I,training,02,1_B,86.0,00100,ignore,0.0,100.0,1.1911433791
86,1_42_2,42,2.0,347.429959627,1_I,training,02,1_B,87.0,01011,ignore,0.0,0.0,1.22840640992
87,1_42_2,42,2.0,352.867731203,1_I,training,02,1_B,88.0,11111,kill,0.0,0.0,3.41567412336
88,1_42_2,42,2.0,356.930429492,1_I,training,02,1_B,89.0,01010,kill,1.0,100.0,2.01782023634
89,1_42_2,42,2.0,360.930657208,1_I,training,02,1_B,90.0,11010,kill,0.0,0.0,1.98926654855
90,1_42_2,42,2.0,364.493341706,1_I,training,02,1_B,91.0,11101,kill,0.0,0.0,1.54512822026
91,1_42_2,42,2.0,368.415431012,1_I,training,02,1_B,92.0,00000,kill,0.0,0.0,1.88735681141
92,1_42_2,42,2.0,371.540564916,1_I,training,02,1_B,93.0,00010,ignore,1.0,100.0,1.08754020314
93,1_42_2,42,2.0,374.884521264,1_I,training,02,1_B,94.0,01110,kill,1.0,200.0,1.32057566657
94,1_42_2,42,2.0,378.57220496,1_I,training,02,1_B,95.0,01001,kill,1.0,300.0,1.67231189038
95,1_42_2,42,2.0,383.822461221,1_I,training,02,1_B,96.0,11000,kill,0.0,200.0,3.20839304202
96,1_42_2,42,2.0,387.385186451,1_I,training,02,1_B,97.0,00010,ignore,1.0,300.0,1.48952120583
97,1_42_2,42,2.0,390.713457322,1_I,training,02,1_B,98.0,00110,kill,1.0,400.0,1.29795350484
98,1_42_2,42,2.0,394.276136689,1_I,training,02,1_B,99.0,10011,ignore,1.0,500.0,1.52994596391
99,1_42_2,42,2.0,397.767126504,1_I,training,02,1_B,100.0,01001,kill,1.0,600.0,1.48139975548
100,1_42_2,42,2.0,403.283080109,1_I,training,02,1_B,101.0,00100,kill,1.0,700.0,3.44056767405
101,1_42_2,42,2.0,407.267634535,1_I,training,02,1_B,102.0,01101,ignore,0.0,600.0,1.93679592394
102,1_42_2,42,2.0,411.158490158,1_I,training,02,1_B,103.0,10100,ignore,1.0,700.0,1.86274806634
103,1_42_2,42,2.0,415.205576738,1_I,training,02,1_B,104.0,00000,kill,0.0,600.0,2.00744150901
104,1_42_2,42,2.0,419.143283206,1_I,training,02,1_B,105.0,10110,ignore,1.0,700.0,1.91548778094
105,1_42_2,42,2.0,422.674686233,1_I,training,02,1_B,106.0,11000,kill,0.0,600.0,1.51474446393
106,1_42_2,42,2.0,425.69047787,1_I,training,02,1_B,107.0,11010,kill,0.0,500.0,1.01930712694
107,1_42_2,42,2.0,428.690647856,1_I,training,02,1_B,108.0,00011,ignore,1.0,600.0,0.99200106738
108,1_42_2,42,2.0,432.597043987,1_I,training,02,1_B,109.0,01111,kill,1.0,700.0,1.90977723582
109,1_42_2,42,2.0,435.972260638,1_I,training,02,1_B,110.0,11100,ignore,1.0,800.0,1.35809816557
110,1_42_2,42,2.0,440.159979615,1_I,training,02,1_B,111.0,01011,ignore,0.0,700.0,2.17218231665
111,1_42_2,42,2.0,443.64456868,1_I,training,02,1_B,112.0,10010,kill,0.0,600.0,1.4487709098
112,1_42_2,42,2.0,447.988555817,1_I,training,02,1_B,113.0,01100,kill,1.0,700.0,2.32289869259
113,1_42_2,42,2.0,452.551258276,1_I,training,02,1_B,114.0,00111,ignore,0.0,600.0,2.53752314046
114,1_42_2,42,2.0,457.270258403,1_I,training,02,1_B,115.0,01110,ignore,0.0,500.0,2.70372999144
115,1_42_2,42,2.0,464.38001569,1_I,training,02,1_B,116.0,11110,ignore,1.0,600.0,5.11180544954
116,1_42_2,42,2.0,468.833352791,1_I,training,02,1_B,117.0,10001,kill,0.0,500.0,2.42040035716
117,1_42_2,42,2.0,472.536699193,1_I,training,02,1_B,118.0,10101,ignore,1.0,600.0,1.68741524788
118,1_42_2,42,2.0,476.240015767,1_I,training,02,1_B,119.0,11111,ignore,1.0,700.0,1.67164285375
119,1_42_2,42,2.0,481.755907792,1_I,training,02,1_B,120.0,00001,kill,0.0,600.0,3.49681710476
120,1_42_2,42,2.0,485.131080504,1_I,training,02,1_B,121.0,11011,ignore,1.0,700.0,1.38558511519
121,1_42_2,42,2.0,488.381269733,1_I,training,02,1_B,122.0,01010,kill,1.0,800.0,1.23066657344
122,1_42_2,42,2.0,492.943987587,1_I,training,02,1_B,123.0,11001,kill,0.0,700.0,2.56249847655
123,1_42_2,42,2.0,496.397335271,1_I,training,02,1_B,124.0,00101,ignore,0.0,600.0,1.38201029149
124,1_42_2,42,2.0,501.131948391,1_I,training,02,1_B,125.0,10000,kill,0.0,500.0,2.71460680788
125,1_42_2,42,2.0,504.88214211,1_I,training,02,1_B,126.0,10111,ignore,1.0,600.0,1.73027079626
126,1_42_2,42,2.0,509.323323656,1_I,training,02,1_B,127.0,01000,ignore,0.0,500.0,2.42424619522
127,1_42_2,42,2.0,513.026642475,1_I,training,02,1_B,128.0,11101,ignore,1.0,600.0,1.68390777686
128,1_42_2,42,2.0,516.373697046,1_I,training,02,1_B,129.0,11100,kill,0.0,500.0,1.35680884283
129,1_42_2,42,2.0,522.217785534,1_I,training,02,1_B,130.0,11101,ignore,1.0,600.0,3.8280174963
130,1_42_2,42,2.0,526.249226406,1_I,training,02,1_B,131.0,00000,kill,0.0,500.0,2.0218819237
131,1_42_2,42,2.0,529.546264877,1_I,training,02,1_B,132.0,11000,kill,0.0,400.0,1.30567789511
132,1_42_2,42,2.0,533.921499168,1_I,training,02,1_B,133.0,11001,kill,0.0,300.0,2.35437933543
133,1_42_2,42,2.0,537.109173884,1_I,training,02,1_B,134.0,01010,kill,1.0,400.0,1.1681148562
134,1_42_2,42,2.0,540.374989897,1_I,training,02,1_B,135.0,00010,ignore,1.0,500.0,1.25397701542
135,1_42_2,42,2.0,543.797044564,1_I,training,02,1_B,136.0,11111,ignore,1.0,600.0,1.44212320024
136,1_42_2,42,2.0,546.719024823,1_I,training,02,1_B,137.0,10011,ignore,1.0,700.0,0.884423121084
137,1_42_2,42,2.0,549.844228324,1_I,training,02,1_B,138.0,10010,kill,0.0,600.0,1.12615060829
138,1_42_2,42,2.0,555.031963658,1_I,training,02,1_B,139.0,10000,ignore,1.0,700.0,3.19082682151
139,1_42_2,42,2.0,560.079160568,1_I,training,02,1_B,140.0,10101,kill,0.0,600.0,3.00197439572
140,1_42_2,42,2.0,563.313674903,1_I,training,02,1_B,141.0,11010,ignore,1.0,700.0,1.25434585152
141,1_42_2,42,2.0,566.860742239,1_I,training,02,1_B,142.0,00111,kill,1.0,800.0,1.50367809781
142,1_42_2,42,2.0,571.048509325,1_I,training,02,1_B,143.0,00001,ignore,1.0,900.0,2.15139727946
143,1_42_2,42,2.0,575.673697431,1_I,training,02,1_B,144.0,00011,kill,0.0,800.0,2.61310920499
144,1_42_2,42,2.0,579.111433085,1_I,training,02,1_B,145.0,10001,ignore,1.0,900.0,1.40795839272
145,1_42_2,42,2.0,583.096017661,1_I,training,02,1_B,146.0,11110,kill,0.0,800.0,2.01381467621
146,1_42_2,42,2.0,586.518038972,1_I,training,02,1_B,147.0,00100,kill,1.0,900.0,1.38522750452
147,1_42_2,42,2.0,590.227774578,1_I,training,02,1_B,148.0,01111,ignore,0.0,800.0,1.68569294362
148,1_42_2,42,2.0,593.696722105,1_I,training,02,1_B,149.0,01100,ignore,0.0,700.0,1.47930444566
149,1_42_2,42,2.0,596.743725617,1_I,training,02,1_B,150.0,00110,ignore,0.0,600.0,1.03366319041
150,1_42_2,42,2.0,601.243980274,1_I,training,02,1_B,151.0,10100,ignore,1.0,700.0,2.47635888844
151,1_42_2,42,2.0,605.853573669,1_I,training,02,1_B,152.0,11011,ignore,1.0,800.0,2.59818192665
152,1_42_2,42,2.0,608.931895215,1_I,training,02,1_B,153.0,00101,kill,1.0,900.0,1.04900837611
153,1_42_2,42,2.0,611.791402013,1_I,training,02,1_B,154.0,01101,kill,1.0,1000.0,0.852585188311
154,1_42_2,42,2.0,614.541568791,1_I,training,02,1_B,155.0,01001,kill,1.0,1100.0,0.726693086022
155,1_42_2,42,2.0,617.385470295,1_I,training,02,1_B,156.0,10110,ignore,1.0,1200.0,0.831230539887
156,1_42_2,42,2.0,620.354351432,1_I,training,02,1_B,157.0,01000,kill,1.0,1300.0,0.980060078591
157,1_42_2,42,2.0,623.182654696,1_I,training,02,1_B,158.0,10111,ignore,1.0,1400.0,0.809446117214
158,1_42_2,42,2.0,626.151524929,1_I,training,02,1_B,159.0,01011,kill,1.0,1500.0,1.00857046822
159,1_42_2,42,2.0,629.120455137,1_I,training,02,1_B,160.0,01110,kill,1.0,1600.0,0.940751129921
160,1_42_2,42,2.0,631.808074368,1_I,training,02,1_B,161.0,11010,ignore,1.0,1700.0,0.69282334739
161,1_42_2,42,2.0,634.464482366,1_I,training,02,1_B,162.0,00010,kill,0.0,1600.0,0.688254269839
162,1_42_2,42,2.0,639.120987224,1_I,training,02,1_B,163.0,00111,ignore,0.0,1500.0,2.64192845478
163,1_42_2,42,2.0,642.511769721,1_I,training,02,1_B,164.0,00001,kill,0.0,1400.0,1.4053034142
164,1_42_2,42,2.0,645.730697684,1_I,training,02,1_B,165.0,10101,ignore,1.0,1500.0,1.22646889782
165,1_42_2,42,2.0,648.777728457,1_I,training,02,1_B,166.0,01001,kill,1.0,1600.0,1.03833522135
166,1_42_2,42,2.0,652.090420011,1_I,training,02,1_B,167.0,01100,kill,1.0,1700.0,1.31519547031
167,1_42_2,42,2.0,654.918695372,1_I,training,02,1_B,168.0,01011,kill,1.0,1800.0,0.860561670038
168,1_42_2,42,2.0,658.293875781,1_I,training,02,1_B,169.0,11111,ignore,1.0,1900.0,1.39271519823
169,1_42_2,42,2.0,661.294015939,1_I,training,02,1_B,170.0,00000,kill,0.0,1800.0,0.982167896762
170,1_42_2,42,2.0,664.434799398,1_I,training,02,1_B,171.0,11110,ignore,1.0,1900.0,1.13233775381
171,1_42_2,42,2.0,668.219371208,1_I,training,02,1_B,172.0,00101,kill,1.0,2000.0,1.80442417307
172,1_42_2,42,2.0,671.110150819,1_I,training,02,1_B,173.0,00100,kill,1.0,2100.0,0.905829727292
173,1_42_2,42,2.0,674.266566194,1_I,training,02,1_B,174.0,10011,ignore,1.0,2200.0,1.15526043678
174,1_42_2,42,2.0,676.954198253,1_I,training,02,1_B,175.0,11101,ignore,1.0,2300.0,0.690795069527
175,1_42_2,42,2.0,679.829364229,1_I,training,02,1_B,176.0,11100,ignore,1.0,2400.0,0.852525212354
176,1_42_2,42,2.0,682.610783613,1_I,training,02,1_B,177.0,10001,ignore,1.0,2500.0,0.808686956288
177,1_42_2,42,2.0,686.126556649,1_I,training,02,1_B,178.0,01010,ignore,0.0,2400.0,1.50187657397
178,1_42_2,42,2.0,688.845472104,1_I,training,02,1_B,179.0,11011,ignore,1.0,2500.0,0.72680213322
179,1_42_2,42,2.0,691.720631986,1_I,training,02,1_B,180.0,01000,kill,1.0,2600.0,0.871928557408
180,1_42_2,42,2.0,694.392639186,1_I,training,02,1_B,181.0,10111,ignore,1.0,2700.0,0.650128162529
181,1_42_2,42,2.0,697.095894181,1_I,training,02,1_B,182.0,11000,ignore,1.0,2800.0,0.726737346356
182,1_42_2,42,2.0,699.736639794,1_I,training,02,1_B,183.0,10110,ignore,1.0,2900.0,0.622466416671
183,1_42_2,42,2.0,702.908688688,1_I,training,02,1_B,184.0,00011,kill,0.0,2800.0,1.17155433309
184,1_42_2,42,2.0,706.065133891,1_I,training,02,1_B,185.0,10000,ignore,1.0,2900.0,1.17101775673
185,1_42_2,42,2.0,709.00275729,1_I,training,02,1_B,186.0,10010,ignore,1.0,3000.0,0.921015511643
186,1_42_2,42,2.0,712.19047338,1_I,training,02,1_B,187.0,01111,kill,1.0,3100.0,1.21047327766
187,1_42_2,42,2.0,715.456290997,1_I,training,02,1_B,188.0,01101,kill,1.0,3200.0,1.24729947824
188,1_42_2,42,2.0,718.86271888,1_I,training,02,1_B,189.0,01110,kill,1.0,3300.0,1.40255157612
189,1_42_2,42,2.0,722.034748851,1_I,training,02,1_B,190.0,11001,ignore,1.0,3400.0,1.20039571303
190,1_42_2,42,2.0,724.878655807,1_I,training,02,1_B,191.0,10100,ignore,1.0,3500.0,0.829898560449
191,1_42_2,42,2.0,728.535100048,1_I,training,02,1_B,192.0,00110,ignore,0.0,3400.0,1.64140085878
192,1_42_2,42,2.0,732.129020153,1_I,training,02,1_B,193.0,00011,ignore,1.0,3500.0,1.59624409381
193,1_42_2,42,2.0,735.191712028,1_I,training,02,1_B,194.0,00101,kill,1.0,3600.0,1.03335016081
194,1_42_2,42,2.0,738.207465179,1_I,training,02,1_B,195.0,10010,ignore,1.0,3700.0,1.0299257581
195,1_42_2,42,2.0,740.942002286,1_I,training,02,1_B,196.0,11101,ignore,1.0,3800.0,0.721589677208
196,1_42_2,42,2.0,743.973379655,1_I,training,02,1_B,197.0,01001,kill,1.0,3900.0,1.0425758744
197,1_42_2,42,2.0,747.629876815,1_I,training,02,1_B,198.0,00111,ignore,0.0,3800.0,1.6549345781
198,1_42_2,42,2.0,750.645637342,1_I,training,02,1_B,199.0,11111,ignore,1.0,3900.0,1.01814609502
199,1_42_2,42,2.0,753.708315105,1_I,training,02,1_B,200.0,00110,kill,1.0,4000.0,1.07146953285
200,1_42_2,42,2.0,756.458463602,1_I,training,02,1_B,201.0,11000,ignore,1.0,4100.0,0.745276652739
201,1_42_2,42,2.0,759.568039036,1_I,training,02,1_B,202.0,10001,ignore,1.0,4200.0,1.09712064084
202,1_42_2,42,2.0,762.474429074,1_I,training,02,1_B,203.0,00100,kill,1.0,4300.0,0.8986800799
203,1_42_2,42,2.0,767.662199687,1_I,training,02,1_B,204.0,01011,ignore,0.0,4200.0,3.18819621824
204,1_42_2,42,2.0,771.271763575,1_I,training,02,1_B,205.0,11110,ignore,1.0,4300.0,1.63371752157
205,1_42_2,42,2.0,774.084393871,1_I,training,02,1_B,206.0,11010,ignore,1.0,4400.0,0.838258311001
206,1_42_2,42,2.0,776.975154238,1_I,training,02,1_B,207.0,01101,kill,1.0,4500.0,0.882643085959
207,1_42_2,42,2.0,779.694068731,1_I,training,02,1_B,208.0,10011,ignore,1.0,4600.0,0.757997649713
208,1_42_2,42,2.0,783.303651542,1_I,training,02,1_B,209.0,01010,kill,1.0,4700.0,1.65523734443
209,1_42_2,42,2.0,786.850714067,1_I,training,02,1_B,210.0,01111,ignore,0.0,4600.0,1.53847345471
210,1_42_2,42,2.0,789.944604345,1_I,training,02,1_B,211.0,00010,kill,0.0,4500.0,1.11455792908
211,1_42_2,42,2.0,792.757223415,1_I,training,02,1_B,212.0,11011,ignore,1.0,4600.0,0.811220379253
212,1_42_2,42,2.0,795.585552978,1_I,training,02,1_B,213.0,10000,ignore,1.0,4700.0,0.849541809337
213,1_42_2,42,2.0,798.570066352,1_I,training,02,1_B,214.0,00001,kill,0.0,4600.0,0.981254145398
214,1_42_2,42,2.0,802.132767849,1_I,training,02,1_B,215.0,01110,kill,1.0,4700.0,1.5476731894
215,1_42_2,42,2.0,805.007900149,1_I,training,02,1_B,216.0,11100,ignore,1.0,4800.0,0.907126747481
216,1_42_2,42,2.0,807.789283611,1_I,training,02,1_B,217.0,10111,ignore,1.0,4900.0,0.755501110357
217,1_42_2,42,2.0,810.429982719,1_I,training,02,1_B,218.0,10110,ignore,1.0,5000.0,0.659892697558
218,1_42_2,42,2.0,813.430179004,1_I,training,02,1_B,219.0,11001,ignore,1.0,5100.0,0.990958383742
219,1_42_2,42,2.0,816.039705047,1_I,training,02,1_B,220.0,10100,ignore,1.0,5200.0,0.605204886854
220,1_42_2,42,2.0,819.821146881,1_I,training,02,1_B,221.0,00000,ignore,1.0,5300.0,1.80353383478
221,1_42_2,42,2.0,822.899417752,1_I,training,02,1_B,222.0,01000,ignore,0.0,5200.0,1.07238937803
222,1_42_2,42,2.0,825.993327915,1_I,training,02,1_B,223.0,10101,ignore,1.0,5300.0,1.1159963899
223,1_42_2,42,2.0,828.953017015,1_I,training,02,1_B,224.0,01100,kill,1.0,5400.0,0.948099307358
224,1_42_2,42,2.0,831.953172568,1_I,training,02,1_B,225.0,00110,kill,1.0,5500.0,0.979619078897
225,1_42_2,42,2.0,834.781468455,1_I,training,02,1_B,226.0,11010,ignore,1.0,5600.0,0.87517784315
226,1_42_2,42,2.0,837.531600274,1_I,training,02,1_B,227.0,00011,kill,0.0,5500.0,0.750007376722
227,1_42_2,42,2.0,840.687987425,1_I,training,02,1_B,228.0,00100,kill,1.0,5600.0,1.16641371993
228,1_42_2,42,2.0,918.801516141,1_I,test,02,2,0.0,11110,ignore,0.0,0.0,1.06294877732
229,1_42_2,42,2.0,921.879778673,1_I,test,02,2,1.0,00001,ignore,1.0,100.0,1.05784953796
230,1_42_2,42,2.0,924.833062533,1_I,test,02,2,2.0,11011,kill,1.0,200.0,0.990463501904
231,1_42_2,42,2.0,927.630075666,1_I,test,02,2,3.0,11111,kill,1.0,300.0,0.829469106929
232,1_42_2,42,2.0,930.380239237,1_I,test,02,2,4.0,00010,ignore,0.0,200.0,0.746502150795
233,1_42_2,42,2.0,933.274126372,1_I,test,02,2,5.0,10011,kill,1.0,300.0,0.915011501272
234,1_42_2,42,2.0,936.508704853,1_I,test,02,2,6.0,01111,ignore,1.0,400.0,1.26095250802
235,1_42_2,42,2.0,939.758825126,1_I,test,02,2,7.0,00000,ignore,1.0,500.0,1.26529162428
236,1_42_2,42,2.0,942.712119249,1_I,test,02,2,8.0,11100,kill,0.0,400.0,0.931136053698
237,1_42_2,42,2.0,947.446771818,1_I,test,02,2,9.0,10000,kill,0.0,300.0,2.72268111136
238,1_42_2,42,2.0,951.712602264,1_I,test,02,2,10.0,10110,kill,1.0,400.0,2.29953500992
239,1_42_2,42,2.0,954.71276391,1_I,test,02,2,11.0,10111,ignore,0.0,300.0,1.00383076388
240,1_42_2,42,2.0,957.8848019,1_I,test,02,2,12.0,10101,kill,0.0,200.0,1.21078823163
241,1_42_2,42,2.0,961.181847747,1_I,test,02,2,13.0,01010,ignore,1.0,300.0,1.30428048735
242,1_42_2,42,2.0,964.431997527,1_I,test,02,2,14.0,11001,kill,0.0,200.0,1.25009589739
243,1_42_2,42,2.0,967.697806804,1_I,test,02,2,15.0,10010,kill,1.0,300.0,1.28603240113
244,1_42_2,42,2.0,970.604248158,1_I,test,02,2,16.0,01011,ignore,1.0,400.0,0.903981377304
245,1_42_2,42,2.0,973.26063146,1_I,test,02,2,17.0,01100,ignore,1.0,500.0,0.698934159868
246,1_42_2,42,2.0,976.338882446,1_I,test,02,2,18.0,10001,kill,0.0,400.0,1.1020704214
247,1_42_2,42,2.0,979.339078089,1_I,test,02,2,19.0,01110,ignore,1.0,500.0,1.00739532431
248,1_42_2,42,2.0,982.479837173,1_I,test,02,2,20.0,01000,ignore,1.0,600.0,1.1743918053
249,1_42_2,42,2.0,985.229996575,1_I,test,02,2,21.0,01101,ignore,1.0,700.0,0.773757214755
250,1_42_2,42,2.0,987.995777308,1_I,test,02,2,22.0,01001,ignore,1.0,800.0,0.764669413801
251,1_42_2,42,2.0,991.230301265,1_I,test,02,2,23.0,00101,ignore,1.0,900.0,1.22731016487
252,1_42_2,42,2.0,994.339833722,1_I,test,02,2,24.0,10100,ignore,1.0,1000.0,1.10369137591
253,1_42_2,42,2.0,997.232684588,1_I,test,02,2,25.0,11101,kill,0.0,900.0,0.913963044547
254,1_42_2,42,2.0,1000.67039106,1_I,test,02,2,26.0,11000,kill,0.0,800.0,1.41802954281
255,1_42_2,42,2.0,1003.62366946,1_I,test,02,2,27.0,00111,ignore,0.0,700.0,0.950804640022
256,1_42_2,42,2.0,1006.92071852,1_I,test,02,2,28.0,00010,kill,1.0,800.0,1.34356377786
257,1_42_2,42,2.0,1010.07712299,1_I,test,02,2,29.0,11011,ignore,0.0,700.0,1.16816617253
258,1_42_2,42,2.0,1013.40544197,1_I,test,02,2,30.0,00001,kill,0.0,600.0,1.35211468173
259,1_42_2,42,2.0,1018.10879222,1_I,test,02,2,31.0,00111,ignore,0.0,500.0,2.66996930001
260,1_42_2,42,2.0,1021.9840217,1_I,test,02,2,32.0,10010,ignore,0.0,400.0,1.89542117235
261,1_42_2,42,2.0,1025.18728664,1_I,test,02,2,33.0,01100,kill,0.0,300.0,1.24238016675
262,1_42_2,42,2.0,1032.43768915,1_I,test,02,2,34.0,11001,ignore,1.0,400.0,5.25492604676
263,1_42_2,42,2.0,1035.9690941,1_I,test,02,2,35.0,10111,kill,1.0,500.0,1.5682686769
264,1_42_2,42,2.0,1039.60995133,1_I,test,02,2,36.0,00101,kill,0.0,400.0,1.67200655823
265,1_42_2,42,2.0,1044.14142203,1_I,test,02,2,37.0,11110,kill,1.0,500.0,2.57169211743
266,1_42_2,42,2.0,1048.29788359,1_I,test,02,2,38.0,11100,kill,0.0,400.0,2.18675262579
267,1_42_2,42,2.0,1051.67306528,1_I,test,02,2,39.0,11000,kill,0.0,300.0,1.36057738566
268,1_42_2,42,2.0,1055.28262019,1_I,test,02,2,40.0,01101,kill,0.0,200.0,1.64768550532
269,1_42_2,42,2.0,1060.31416626,1_I,test,02,2,41.0,01110,kill,0.0,100.0,3.06814968716
270,1_42_2,42,2.0,1063.43929343,1_I,test,02,2,42.0,00011,ignore,0.0,0.0,1.13396191559
271,1_42_2,42,2.0,1069.09587205,1_I,test,02,2,43.0,01000,ignore,1.0,100.0,3.72086836207
272,1_42_2,42,2.0,1073.78360738,1_I,test,02,2,44.0,01010,kill,0.0,0.0,2.73721742343
273,1_42_2,42,2.0,1079.06513357,1_I,test,02,2,45.0,11101,kill,0.0,0.0,3.31292664716
274,1_42_2,42,2.0,1082.62782512,1_I,test,02,2,46.0,11111,ignore,0.0,0.0,1.59389124017
275,1_42_2,42,2.0,1086.69055709,1_I,test,02,2,47.0,00000,ignore,1.0,100.0,2.07932702485
276,1_42_2,42,2.0,1090.61262427,1_I,test,02,2,48.0,10110,kill,1.0,200.0,1.97944973502
277,1_42_2,42,2.0,1093.73777677,1_I,test,02,2,49.0,01111,ignore,1.0,300.0,1.12165369433
278,1_42_2,42,2.0,1096.33167603,1_I,test,02,2,50.0,00100,kill,0.0,200.0,0.60227664889
279,1_42_2,42,2.0,1099.55060624,1_I,test,02,2,51.0,01011,kill,0.0,100.0,1.26588625223
280,1_42_2,42,2.0,1103.2104303,1_I,test,02,2,52.0,10100,kill,0.0,0.0,1.68546779323
281,1_42_2,42,2.0,1106.1750153,1_I,test,02,2,53.0,11010,kill,1.0,100.0,1.07511908595
282,1_42_2,42,2.0,1110.53461158,1_I,test,02,2,54.0,01001,ignore,1.0,200.0,2.35874186476
283,1_42_2,42,2.0,1114.09731564,1_I,test,02,2,55.0,00110,kill,1.0,300.0,1.58949054433
284,1_42_2,42,2.0,1117.64444328,1_I,test,02,2,56.0,10011,kill,1.0,400.0,1.59739871119
285,1_42_2,42,2.0,1121.39464213,1_I,test,02,2,57.0,10000,ignore,1.0,500.0,1.77978046875
286,1_42_2,42,2.0,1124.48855646,1_I,test,02,2,58.0,10001,ignore,1.0,600.0,1.17267880212
287,1_42_2,42,2.0,1127.8480995,1_I,test,02,2,59.0,10101,ignore,1.0,700.0,1.40561002926
288,1_42_2,42,2.0,1130.98893652,1_I,test,02,2,60.0,00000,ignore,1.0,800.0,1.1800369221
289,1_42_2,42,2.0,1134.30159536,1_I,test,02,2,61.0,01010,kill,0.0,700.0,1.38944795177
290,1_42_2,42,2.0,1137.66111916,1_I,test,02,2,62.0,11010,ignore,0.0,600.0,1.43803232672
291,1_42_2,42,2.0,1141.27071704,1_I,test,02,2,63.0,10100,ignore,1.0,700.0,1.62635651506
292,1_42_2,42,2.0,1144.84902512,1_I,test,02,2,64.0,01110,kill,0.0,600.0,1.64960537744
293,1_42_2,42,2.0,1147.9585348,1_I,test,02,2,65.0,10101,ignore,1.0,700.0,1.14176199744
294,1_42_2,42,2.0,1150.86492131,1_I,test,02,2,66.0,10010,kill,1.0,800.0,0.968724301745
295,1_42_2,42,2.0,1153.74007863,1_I,test,02,2,67.0,01000,ignore,1.0,900.0,0.887611147959
296,1_42_2,42,2.0,1156.5527333,1_I,test,02,2,68.0,00110,kill,1.0,1000.0,0.835199537127
297,1_42_2,42,2.0,1159.52167666,1_I,test,02,2,69.0,11111,ignore,0.0,900.0,1.0174700024
298,1_42_2,42,2.0,1163.16248129,1_I,test,02,2,70.0,00010,kill,1.0,1000.0,1.66359517062
299,1_42_2,42,2.0,1166.27202818,1_I,test,02,2,71.0,00011,kill,1.0,1100.0,1.18064919004
300,1_42_2,42,2.0,1169.35028686,1_I,test,02,2,72.0,11110,ignore,0.0,1000.0,1.07499111586
301,1_42_2,42,2.0,1172.52232292,1_I,test,02,2,73.0,01101,ignore,1.0,1100.0,1.18157577048
302,1_42_2,42,2.0,1176.02253011,1_I,test,02,2,74.0,00100,ignore,1.0,1200.0,1.5415550002
303,1_42_2,42,2.0,1178.92890508,1_I,test,02,2,75.0,11101,ignore,1.0,1300.0,0.958591572063
304,1_42_2,42,2.0,1182.1166109,1_I,test,02,2,76.0,00111,kill,1.0,1400.0,1.27372834932
305,1_42_2,42,2.0,1185.35115539,1_I,test,02,2,77.0,01011,ignore,1.0,1500.0,1.30306493183
306,1_42_2,42,2.0,1188.46085013,1_I,test,02,2,78.0,11000,ignore,1.0,1600.0,1.14568096126
307,1_42_2,42,2.0,1191.69534138,1_I,test,02,2,79.0,10011,kill,1.0,1700.0,1.30047794745
308,1_42_2,42,2.0,1195.89874839,1_I,test,02,2,80.0,10111,kill,1.0,1800.0,2.23097190559
309,1_42_2,42,2.0,1198.50822857,1_I,test,02,2,81.0,01100,ignore,1.0,1900.0,0.693524777448
310,1_42_2,42,2.0,1201.80528051,1_I,test,02,2,82.0,11001,ignore,1.0,2000.0,1.3541525814
311,1_42_2,42,2.0,1204.74293438,1_I,test,02,3,0.0,00101,ignore,1.0,2100.0,0.962096477263
312,1_42_2,42,2.0,1208.0243419,1_I,test,02,3,1.0,01111,ignore,1.0,2200.0,1.36503228438
313,1_42_2,42,2.0,1211.30577379,1_I,test,02,3,2.0,10001,ignore,1.0,2300.0,1.35827232036
314,1_42_2,42,2.0,1214.14970833,1_I,test,02,3,3.0,10110,kill,0.0,2200.0,0.887673369007
315,1_42_2,42,2.0,1217.16547527,1_I,test,02,3,4.0,00001,ignore,1.0,2300.0,1.0923976143
316,1_42_2,42,2.0,1220.10311246,1_I,test,02,3,5.0,11011,ignore,1.0,2400.0,0.984809084017
317,1_42_2,42,2.0,1222.63449561,1_I,test,02,3,6.0,11100,ignore,0.0,2300.0,0.634812483723
318,1_42_2,42,2.0,1226.10348611,1_I,test,02,3,7.0,01001,ignore,1.0,2400.0,1.47965371742
319,1_42_2,42,2.0,1228.7129525,1_I,test,02,3,8.0,10000,ignore,0.0,2300.0,0.635249313965
320,1_42_2,42,2.0,1231.9631289,1_I,test,02,3,9.0,01000,ignore,0.0,2200.0,1.32242786528
321,1_42_2,42,2.0,1235.44770161,1_I,test,02,3,10.0,11000,kill,1.0,2300.0,1.53310769116
322,1_42_2,42,2.0,1239.07285315,1_I,test,02,3,11.0,10010,kill,1.0,2400.0,1.72905812729
323,1_42_2,42,2.0,1242.54180934,1_I,test,02,3,12.0,00111,kill,0.0,2300.0,1.46537013826
324,1_42_2,42,2.0,1246.49515734,1_I,test,02,3,13.0,10110,ignore,1.0,2400.0,1.99754964534
325,1_42_2,42,2.0,1250.6047254,1_I,test,02,3,14.0,00110,ignore,1.0,2500.0,2.20566365483
326,1_42_2,42,2.0,1253.79238216,1_I,test,02,3,15.0,10001,kill,0.0,2400.0,1.23630944515
327,1_42_2,42,2.0,1256.90194155,1_I,test,02,3,16.0,00000,ignore,0.0,2300.0,1.1963295355
328,1_42_2,42,2.0,1260.08961723,1_I,test,02,3,17.0,11111,ignore,1.0,2400.0,1.2603428059
329,1_42_2,42,2.0,1264.15232963,1_I,test,02,3,18.0,00001,kill,0.0,2300.0,2.11323043982
330,1_42_2,42,2.0,1266.91808503,1_I,test,02,3,19.0,11001,ignore,1.0,2400.0,0.886497262915
331,1_42_2,42,2.0,1269.8088656,1_I,test,02,3,20.0,11011,ignore,1.0,2500.0,0.980713399592
332,1_42_2,42,2.0,1272.87150103,1_I,test,02,3,21.0,00010,kill,1.0,2600.0,1.1248891888
333,1_42_2,42,2.0,1276.09045722,1_I,test,02,3,22.0,01001,ignore,1.0,2700.0,1.2972546406
334,1_42_2,42,2.0,1279.1531183,1_I,test,02,3,23.0,10011,kill,0.0,2600.0,1.10038147275
335,1_42_2,42,2.0,1282.32514218,1_I,test,02,3,24.0,01110,ignore,1.0,2700.0,1.29056651943
336,1_42_2,42,2.0,1285.54407142,1_I,test,02,3,25.0,10000,ignore,0.0,2600.0,1.22873675878
337,1_42_2,42,2.0,1290.29432448,1_I,test,02,3,26.0,11010,ignore,0.0,2500.0,2.80346070901
338,1_42_2,42,2.0,1293.7944996,1_I,test,02,3,27.0,10111,kill,0.0,2400.0,1.57811980823
339,1_42_2,42,2.0,1298.37287214,1_I,test,02,3,28.0,10100,ignore,0.0,2300.0,2.60171216928
340,1_42_2,42,2.0,1301.60739802,1_I,test,02,3,29.0,00011,ignore,1.0,2400.0,1.32179635372
341,1_42_2,42,2.0,1304.73256913,1_I,test,02,3,30.0,01101,kill,0.0,2300.0,1.14606070208
342,1_42_2,42,2.0,1308.90469949,1_I,test,02,3,31.0,10101,kill,0.0,2200.0,2.21174303605
343,1_42_2,42,2.0,1311.87358928,1_I,test,02,3,32.0,01011,ignore,1.0,2300.0,1.06825167837
344,1_42_2,42,2.0,1314.93625165,1_I,test,02,3,33.0,00101,ignore,1.0,2400.0,1.08828108262
345,1_42_2,42,2.0,1318.03641503,1_I,test,02,3,34.0,00100,ignore,0.0,2300.0,1.19775131851
346,1_42_2,42,2.0,1321.25533465,1_I,test,02,3,35.0,11110,ignore,1.0,2400.0,1.32786611313
347,1_42_2,42,2.0,1324.45860536,1_I,test,02,3,36.0,01100,kill,1.0,2500.0,1.24181215915
348,1_42_2,42,2.0,1327.14628361,1_I,test,02,3,37.0,11100,kill,1.0,2600.0,0.793728567414
349,1_42_2,42,2.0,1330.44330989,1_I,test,02,3,38.0,01010,ignore,0.0,2500.0,1.42924600919
350,1_42_2,42,2.0,1333.67784475,1_I,test,02,3,39.0,01111,ignore,1.0,2600.0,1.33348076087
351,1_42_2,42,2.0,1336.64677464,1_I,test,02,3,40.0,11101,kill,0.0,2500.0,1.04013129282
352,1_42_2,42,2.0,1340.52198584,1_I,test,02,3,41.0,00000,ignore,0.0,2400.0,1.90185271188
353,1_42_2,42,2.0,1344.06900122,1_I,test,02,3,42.0,01000,kill,1.0,2500.0,1.67526193778
354,1_42_2,42,2.0,1347.7723489,1_I,test,02,3,43.0,00101,ignore,1.0,2600.0,1.79320321651
355,1_42_2,42,2.0,1350.83498337,1_I,test,02,3,44.0,01100,kill,1.0,2700.0,1.10387996341
356,1_42_2,42,2.0,1354.11643194,1_I,test,02,3,45.0,11101,kill,0.0,2600.0,1.35679633447
357,1_42_2,42,2.0,1357.33532526,1_I,test,02,3,46.0,10111,ignore,1.0,2700.0,1.25307256514
358,1_42_2,42,2.0,1360.06986205,1_I,test,02,3,47.0,01001,ignore,1.0,2800.0,0.844642382925
359,1_42_2,42,2.0,1363.13253564,1_I,test,02,3,48.0,10011,ignore,1.0,2900.0,1.08147525462
360,1_42_2,42,2.0,1366.2733345,1_I,test,02,3,49.0,10101,ignore,1.0,3000.0,1.17310376546
361,1_42_2,42,2.0,1369.03907321,1_I,test,02,3,50.0,01101,ignore,1.0,3100.0,0.847234498941
362,1_42_2,42,2.0,1373.38305394,1_I,test,02,3,51.0,01010,ignore,0.0,3000.0,2.38900374481
363,1_42_2,42,2.0,1377.30517179,1_I,test,02,3,52.0,01110,kill,0.0,2900.0,2.03867038111
364,1_42_2,42,2.0,1380.55533375,1_I,test,02,3,53.0,00010,ignore,0.0,2800.0,1.27451733786
365,1_42_2,42,2.0,1384.33678329,1_I,test,02,3,54.0,11010,ignore,0.0,2700.0,1.84805139074
366,1_42_2,42,2.0,1387.19631767,1_I,test,02,3,55.0,11111,ignore,1.0,2800.0,0.950936138112
367,1_42_2,42,2.0,1390.1652033,1_I,test,02,3,56.0,00111,ignore,1.0,2900.0,1.00772471099
368,1_42_2,42,2.0,1392.99347577,1_I,test,02,3,57.0,11110,kill,0.0,2800.0,0.954119995536
369,1_42_2,42,2.0,1395.85300502,1_I,test,02,3,58.0,11011,ignore,1.0,2900.0,0.940876213471
370,1_42_2,42,2.0,1398.74376571,1_I,test,02,3,59.0,01111,ignore,1.0,3000.0,0.951213887738
371,1_42_2,42,2.0,1401.85330009,1_I,test,02,3,60.0,11000,kill,1.0,3100.0,1.23618660669
372,1_42_2,42,2.0,1405.16598587,1_I,test,02,3,61.0,10110,kill,0.0,3000.0,1.42852116606
373,1_42_2,42,2.0,1407.65052169,1_I,test,02,3,62.0,00011,ignore,1.0,3100.0,0.539030878318
374,1_42_2,42,2.0,1410.22877557,1_I,test,02,3,63.0,00110,ignore,1.0,3200.0,0.654882941041
375,1_42_2,42,2.0,1413.05704932,1_I,test,02,3,64.0,11100,kill,1.0,3300.0,0.86827675922
376,1_42_2,42,2.0,1417.04159862,1_I,test,02,3,65.0,00100,ignore,0.0,3200.0,2.10784382902
377,1_42_2,42,2.0,1420.13554727,1_I,test,02,3,66.0,10100,kill,1.0,3300.0,1.12559863704
378,1_42_2,42,2.0,1422.85440243,1_I,test,02,3,67.0,01011,ignore,1.0,3400.0,0.776471848504
379,1_42_2,42,2.0,1425.89520789,1_I,test,02,3,68.0,10010,ignore,0.0,3300.0,1.14763418899
380,1_42_2,42,2.0,1429.89544138,1_I,test,02,3,69.0,00001,ignore,1.0,3400.0,2.05396745775
381,1_42_2,42,2.0,1432.59871401,1_I,test,02,3,70.0,10001,ignore,1.0,3500.0,0.829224712917
382,1_42_2,42,2.0,1435.39567872,1_I,test,02,3,71.0,11001,ignore,1.0,3600.0,0.843581417844
383,1_42_2,42,2.0,1439.5365507,1_I,test,02,3,72.0,10000,kill,1.0,3700.0,2.19392183753
384,1_42_2,42,2.0,1442.75546775,1_I,test,02,3,73.0,10110,ignore,1.0,3800.0,1.32337336862
385,1_42_2,42,2.0,1445.64623037,1_I,test,02,3,74.0,10001,ignore,1.0,3900.0,0.949571123789
386,1_42_2,42,2.0,1448.33391919,1_I,test,02,3,75.0,11101,ignore,1.0,4000.0,0.818701979143
387,1_42_2,42,2.0,1451.64656938,1_I,test,02,3,76.0,00110,ignore,1.0,4100.0,1.40380369452
388,1_42_2,42,2.0,1455.16238763,1_I,test,02,3,77.0,01010,ignore,0.0,4000.0,1.57989246663
389,1_42_2,42,2.0,1457.9750407,1_I,test,02,3,78.0,11100,kill,1.0,4100.0,0.959128469144
390,1_42_2,42,2.0,1460.95956594,1_I,test,02,3,79.0,01001,ignore,1.0,4200.0,1.12396100472
391,1_42_2,42,2.0,1464.02228508,1_I,test,02,3,80.0,11011,ignore,1.0,4300.0,1.21074332984
392,1_42_2,42,2.0,1467.25674649,1_I,test,02,3,81.0,01000,kill,1.0,4400.0,1.29875083229
393,1_42_2,42,2.0,1471.22573026,1_I,test,02,3,82.0,10100,ignore,0.0,4300.0,2.01424156392
394,1_42_2,42,2.0,1474.2258794,1_I,test,02,3,83.0,00010,ignore,0.0,4200.0,1.11884733264
395,1_42_2,42,2.0,1477.31980528,1_I,test,02,3,84.0,11010,ignore,0.0,4100.0,1.19634011949
396,1_42_2,42,2.0,1480.31996725,1_I,test,02,3,85.0,10010,kill,1.0,4200.0,1.05178106145
397,1_42_2,42,2.0,1483.13265271,1_I,test,02,3,86.0,10101,ignore,1.0,4300.0,0.882137940855
398,1_42_2,42,2.0,1486.75787481,1_I,test,02,3,87.0,01110,ignore,1.0,4400.0,1.68723467855
399,1_42_2,42,2.0,1489.49240775,1_I,test,02,3,88.0,00011,ignore,1.0,4500.0,0.878146813448
400,1_42_2,42,2.0,1492.71130781,1_I,test,02,3,89.0,10000,kill,1.0,4600.0,1.2506058534
401,1_42_2,42,2.0,1495.46142038,1_I,test,02,3,90.0,01111,ignore,1.0,4700.0,0.824503610746
402,1_42_2,42,2.0,1498.03970665,1_I,test,02,3,91.0,10111,ignore,1.0,4800.0,0.689560270386
403,1_42_2,42,2.0,1500.6648335,1_I,test,02,3,92.0,00111,ignore,1.0,4900.0,0.711564391087
404,1_42_2,42,2.0,1503.22745193,1_I,test,02,3,93.0,00001,ignore,1.0,5000.0,0.693769492186
405,1_42_2,42,2.0,1507.35270706,1_I,test,02,3,94.0,11110,ignore,1.0,5100.0,2.17022171219
406,1_42_2,42,2.0,1511.75916285,1_I,test,02,4,0.0,11000,ignore,1.0,5200.0,2.46702829711
407,1_42_2,42,2.0,1514.6030682,1_I,test,02,4,1.0,11001,ignore,0.0,5100.0,0.969393979824
408,1_42_2,42,2.0,1517.71260291,1_I,test,02,4,2.0,10011,ignore,0.0,5000.0,1.17084039467
409,1_42_2,42,2.0,1521.47843207,1_I,test,02,4,3.0,11111,kill,1.0,5100.0,1.9278421869
410,1_42_2,42,2.0,1525.32241183,1_I,test,02,4,4.0,01101,kill,0.0,5000.0,1.92343892523
411,1_42_2,42,2.0,1528.76007692,1_I,test,02,4,5.0,00100,kill,0.0,4900.0,1.48539793888
412,1_42_2,42,2.0,1531.94774587,1_I,test,02,4,6.0,01100,ignore,1.0,5000.0,1.31673335651
413,1_42_2,42,2.0,1534.916661,1_I,test,02,4,7.0,00000,ignore,1.0,5100.0,1.06539720762
414,1_42_2,42,2.0,1537.80742073,1_I,test,02,4,8.0,01011,kill,0.0,5000.0,0.966887497932
415,1_42_2,42,2.0,1540.91694837,1_I,test,02,4,9.0,00101,kill,0.0,4900.0,1.18519036433
416,1_42_2,42,2.0,1544.18274674,1_I,test,02,4,10.0,11000,ignore,1.0,5000.0,1.33785194983
417,1_42_2,42,2.0,1547.47981344,1_I,test,02,4,11.0,00111,kill,0.0,4900.0,1.43112803552
418,1_42_2,42,2.0,1550.4175183,1_I,test,02,4,12.0,10110,ignore,0.0,4800.0,0.981109818224
419,1_42_2,42,2.0,1553.85519366,1_I,test,02,4,13.0,10100,kill,1.0,4900.0,1.51002015449
420,1_42_2,42,2.0,1557.13657712,1_I,test,02,4,14.0,01101,ignore,1.0,5000.0,1.39574574812
421,1_42_2,42,2.0,1561.4181357,1_I,test,02,4,15.0,11010,ignore,1.0,5100.0,2.34856455402
422,1_42_2,42,2.0,1565.32459758,1_I,test,02,4,16.0,11101,ignore,0.0,5000.0,2.03228310192
423,1_42_2,42,2.0,1569.02788786,1_I,test,02,4,17.0,00001,kill,0.0,4900.0,1.73294277331
424,1_42_2,42,2.0,1572.37184228,1_I,test,02,4,18.0,00110,ignore,1.0,5000.0,1.4064808032
425,1_42_2,42,2.0,1575.26261387,1_I,test,02,4,19.0,01110,ignore,1.0,5100.0,1.00035312048
426,1_42_2,42,2.0,1578.77842091,1_I,test,02,4,20.0,01111,ignore,1.0,5200.0,1.57626119498
427,1_42_2,42,2.0,1582.23172914,1_I,test,02,4,21.0,00100,kill,0.0,5100.0,1.57940175425
428,1_42_2,42,2.0,1585.21624027,1_I,test,02,4,22.0,00101,kill,0.0,5000.0,1.08589198683
429,1_42_2,42,2.0,1588.07584714,1_I,test,02,4,23.0,11110,ignore,1.0,5100.0,0.914505714715
430,1_42_2,42,2.0,1590.7165796,1_I,test,02,4,24.0,00011,ignore,1.0,5200.0,0.760167368204
431,1_42_2,42,2.0,1593.85736434,1_I,test,02,4,25.0,01100,kill,0.0,5100.0,1.25987967604
432,1_42_2,42,2.0,1596.62316945,1_I,test,02,4,26.0,01001,kill,0.0,5000.0,0.817362622983
433,1_42_2,42,2.0,1599.76968462,1_I,test,02,4,27.0,10001,kill,1.0,5100.0,1.23394280025
434,1_42_2,42,2.0,1602.95734779,1_I,test,02,4,28.0,11001,kill,1.0,5200.0,1.24043784374
435,1_42_2,42,2.0,1605.55126726,1_I,test,02,4,29.0,01010,ignore,1.0,5300.0,0.737872348068
436,1_42_2,42,2.0,1608.83263949,1_I,test,02,4,30.0,11111,ignore,0.0,5200.0,1.38240703085
437,1_42_2,42,2.0,1612.31730201,1_I,test,02,4,31.0,11100,ignore,1.0,5300.0,1.55882358601
438,1_42_2,42,2.0,1614.98927232,1_I,test,02,4,32.0,10010,ignore,0.0,5200.0,0.736810741533
439,1_42_2,42,2.0,1618.55195682,1_I,test,02,4,33.0,01000,ignore,1.0,5300.0,1.61975883892
440,1_42_2,42,2.0,1621.75538148,1_I,test,02,4,34.0,00010,kill,0.0,5200.0,1.32483139379
441,1_42_2,42,2.0,1625.2087003,1_I,test,02,4,35.0,10101,kill,1.0,5300.0,1.4780776647
442,1_42_2,42,2.0,1629.91208775,1_I,test,02,4,36.0,10000,kill,1.0,5400.0,2.76258468798
443,1_42_2,42,2.0,1633.27162919,1_I,test,02,4,37.0,11011,ignore,0.0,5300.0,1.49350623942
444,1_42_2,42,2.0,1636.47493711,1_I,test,02,4,38.0,10111,kill,1.0,5400.0,1.25753997221
445,1_42_2,42,2.0,1639.36571864,1_I,test,02,4,39.0,01011,kill,0.0,5300.0,1.04275034991
446,1_42_2,42,2.0,1643.45967755,1_I,test,02,4,40.0,00000,ignore,1.0,5400.0,2.1441696954
447,1_42_2,42,2.0,1647.78800968,1_I,test,02,4,41.0,10011,ignore,0.0,5300.0,2.36951155836
448,1_42_2,42,2.0,1652.36637004,1_I,test,02,4,42.0,10101,ignore,0.0,5200.0,2.68338659541
449,1_42_2,42,2.0,1655.85092382,1_I,test,02,4,43.0,00000,kill,0.0,5100.0,1.53493038299
450,1_42_2,42,2.0,1659.22625177,1_I,test,02,4,44.0,10011,kill,1.0,5200.0,1.51595745363
451,1_42_2,42,2.0,1662.47643169,1_I,test,02,4,45.0,01101,ignore,1.0,5300.0,1.34393999069
452,1_42_2,42,2.0,1665.50781355,1_I,test,02,4,46.0,11101,ignore,0.0,5200.0,1.08243390778
453,1_42_2,42,2.0,1669.77369916,1_I,test,02,4,47.0,11110,kill,0.0,5100.0,2.40996678551
454,1_42_2,42,2.0,1674.05520001,1_I,test,02,4,48.0,01100,kill,0.0,5000.0,2.39455617149
455,1_42_2,42,2.0,1677.52410392,1_I,test,02,4,49.0,00110,ignore,1.0,5100.0,1.53018490556
456,1_42_2,42,2.0,1682.16495441,1_I,test,02,4,50.0,11001,ignore,0.0,5000.0,2.71727974711
457,1_42_2,42,2.0,1686.58711203,1_I,test,02,4,51.0,10010,ignore,0.0,4900.0,2.49555889254
458,1_42_2,42,2.0,1689.63419829,1_I,test,02,4,52.0,01000,kill,0.0,4800.0,1.18997913991
459,1_42_2,42,2.0,1696.05644315,1_I,test,02,4,53.0,11111,ignore,0.0,4700.0,4.47010855969
460,1_42_2,42,2.0,1700.79105402,1_I,test,02,4,54.0,10001,ignore,0.0,4600.0,2.79224712917
461,1_42_2,42,2.0,1704.55683604,1_I,test,02,4,55.0,00100,kill,0.0,4500.0,1.87364925803
462,1_42_2,42,2.0,1707.46323666,1_I,test,02,4,56.0,00010,ignore,1.0,4600.0,0.965565140305
463,1_42_2,42,2.0,1709.82277104,1_I,test,02,4,57.0,00111,kill,0.0,4500.0,0.490153358846
464,1_42_2,42,2.0,1712.83852965,1_I,test,02,4,58.0,10100,ignore,0.0,4400.0,1.06197986091
465,1_42_2,42,2.0,1716.70127771,1_I,test,02,4,59.0,11100,ignore,1.0,4500.0,1.94008626275
466,1_42_2,42,2.0,1719.81079253,1_I,test,02,4,60.0,00011,kill,0.0,4400.0,1.21682880488
467,1_42_2,42,2.0,1723.03599263,1_I,test,02,4,61.0,01111,ignore,1.0,4500.0,1.31159530917
468,1_42_2,42,2.0,1726.16111755,1_I,test,02,4,62.0,11011,ignore,0.0,4400.0,1.29596178986
469,1_42_2,42,2.0,1729.7082253,1_I,test,02,4,63.0,11010,kill,0.0,4300.0,1.67905132787
470,1_42_2,42,2.0,1735.64599816,1_I,test,02,4,64.0,01001,ignore,1.0,4400.0,4.01233099288
471,1_42_2,42,2.0,1739.81812531,1_I,test,02,4,65.0,01011,ignore,1.0,4500.0,2.2842796278
472,1_42_2,42,2.0,1746.1934446,1_I,test,02,4,66.0,10000,kill,1.0,4600.0,4.46381653643
473,1_42_2,42,2.0,1749.5686141,1_I,test,02,4,67.0,01110,ignore,1.0,4700.0,1.51877343713
474,1_42_2,42,2.0,1752.5062885,1_I,test,02,4,68.0,00001,ignore,1.0,4800.0,1.02658987606
475,1_42_2,42,2.0,1755.70956145,1_I,test,02,4,69.0,11000,kill,0.0,4700.0,1.26599369579
476,1_42_2,42,2.0,1758.70035658,1_I,test,02,4,70.0,00101,ignore,1.0,4800.0,1.13000478525
477,1_42_2,42,2.0,1762.46618671,1_I,test,02,4,71.0,01010,kill,0.0,4700.0,1.88754090873
478,1_42_2,42,2.0,1766.5601623,1_I,test,02,4,72.0,10111,ignore,0.0,4600.0,2.16318528145
479,1_42_2,42,2.0,1769.23216405,1_I,test,02,4,73.0,10110,ignore,0.0,4500.0,0.748930054562
480,1_42_2,42,2.0,1774.62306842,1_I,test,02,4,74.0,10010,ignore,0.0,4400.0,3.46341274107
481,1_42_2,42,2.0,1778.52951683,1_I,test,02,4,75.0,11000,ignore,1.0,4500.0,2.06297764276
482,1_42_2,42,2.0,1782.24847045,1_I,test,02,4,76.0,01101,ignore,1.0,4600.0,1.74727991389
483,1_42_2,42,2.0,1786.45187138,1_I,test,02,4,77.0,00011,ignore,1.0,4700.0,2.27677525629
484,1_42_2,42,2.0,1789.73322694,1_I,test,02,4,78.0,01011,ignore,1.0,4800.0,1.41115860722
485,1_42_2,42,2.0,1794.50287724,1_I,test,02,4,79.0,10100,kill,1.0,4900.0,2.84319333811
486,1_42_2,42,2.0,1799.48752211,1_I,test,02,4,80.0,11111,kill,1.0,5000.0,3.13210009506
487,1_42_2,42,2.0,1802.90955978,1_I,test,02,4,81.0,10111,kill,1.0,5100.0,1.4762860834
488,1_42_2,42,2.0,1805.87845824,1_I,test,02,4,82.0,01111,ignore,1.0,5200.0,1.04156782928
489,1_42_2,42,2.0,1810.44124056,1_I,test,02,4,83.0,01010,ignore,1.0,5300.0,2.69106704607
490,1_42_2,42,2.0,1813.22262659,1_I,test,02,4,84.0,00101,ignore,1.0,5400.0,0.830040321805
491,1_42_2,42,2.0,1816.23839225,1_I,test,02,5,0.0,11010,kill,1.0,5500.0,1.1851663098
492,1_42_2,42,2.0,1819.34790642,1_I,test,02,5,1.0,11011,kill,1.0,5600.0,1.21129016946
493,1_42_2,42,2.0,1822.20746935,1_I,test,02,5,2.0,10001,kill,0.0,5500.0,0.939202338998
494,1_42_2,42,2.0,1825.12949707,1_I,test,02,5,3.0,00110,ignore,0.0,5400.0,1.06562203728
495,1_42_2,42,2.0,1828.03590507,1_I,test,02,5,4.0,01001,ignore,1.0,5500.0,1.03408783303
496,1_42_2,42,2.0,1830.91106079,1_I,test,02,5,5.0,01100,ignore,1.0,5600.0,0.944831098721
497,1_42_2,42,2.0,1833.97371802,1_I,test,02,5,6.0,11110,kill,1.0,5700.0,1.15647182285
498,1_42_2,42,2.0,1836.73946668,1_I,test,02,5,7.0,00111,ignore,0.0,5600.0,0.838610148574
499,1_42_2,42,2.0,1839.80211462,1_I,test,02,5,8.0,11100,kill,0.0,5500.0,1.20898734924
500,1_42_2,42,2.0,1842.89604338,1_I,test,02,5,9.0,11001,ignore,1.0,5600.0,1.16045076263
501,1_42_2,42,2.0,1846.64625057,1_I,test,02,5,10.0,00100,ignore,1.0,5700.0,1.80173070731
502,1_42_2,42,2.0,1850.13080115,1_I,test,02,5,11.0,01110,kill,0.0,5600.0,1.62815130363
503,1_42_2,42,2.0,1853.75595879,1_I,test,02,5,12.0,10101,ignore,1.0,5700.0,1.68302224948
504,1_42_2,42,2.0,1856.95930711,1_I,test,02,5,13.0,11101,ignore,1.0,5800.0,1.36293889893
505,1_42_2,42,2.0,1861.11577188,1_I,test,02,5,14.0,00010,kill,1.0,5900.0,2.20417099114
506,1_42_2,42,2.0,1864.52220393,1_I,test,02,5,15.0,10011,kill,1.0,6000.0,1.45073472153
507,1_42_2,42,2.0,1867.81923856,1_I,test,02,5,16.0,10110,kill,1.0,6100.0,1.42659327577
508,1_42_2,42,2.0,1871.35064543,1_I,test,02,5,17.0,10000,kill,0.0,6000.0,1.60998532353
509,1_42_2,42,2.0,1874.25705888,1_I,test,02,5,18.0,01000,ignore,1.0,6100.0,1.05291258648
510,1_42_2,42,2.0,1877.41661514,1_I,test,02,5,19.0,00001,ignore,1.0,6200.0,1.22640699749
511,1_42_2,42,2.0,1880.26155291,1_I,test,02,5,20.0,00000,ignore,1.0,6300.0,0.905887458161
512,1_42_2,42,2.0,1883.63677341,1_I,test,02,5,21.0,00011,kill,1.0,6400.0,1.44683852933
513,1_42_2,42,2.0,1886.59005085,1_I,test,02,5,22.0,11111,ignore,0.0,6300.0,1.01264498466
514,1_42_2,42,2.0,1889.31084,1_I,test,02,5,23.0,10101,ignore,1.0,6400.0,0.847070286692
515,1_42_2,42,2.0,1892.63915481,1_I,test,02,5,24.0,10100,ignore,1.0,6500.0,1.39730736813
516,1_42_2,42,2.0,1895.96743402,1_I,test,02,5,25.0,10111,kill,1.0,6600.0,1.3807915287
517,1_42_2,42,2.0,1900.34268563,1_I,test,02,5,26.0,00110,kill,1.0,6700.0,2.52878910144
518,1_42_2,42,2.0,1904.03036323,1_I,test,02,5,27.0,01010,kill,0.0,6600.0,1.81354436746
519,1_42_2,42,2.0,1907.2492511,1_I,test,02,5,28.0,11001,ignore,1.0,6700.0,1.28437777028
520,1_42_2,42,2.0,1910.35883295,1_I,test,02,5,29.0,01100,ignore,1.0,6800.0,1.18593380963
521,1_42_2,42,2.0,1913.15586116,1_I,test,02,5,30.0,10010,kill,1.0,6900.0,0.874652492242
522,1_42_2,42,2.0,1915.49979602,1_I,test,02,5,31.0,11100,ignore,1.0,7000.0,0.499591393738
523,1_42_2,42,2.0,1917.87485615,1_I,test,02,5,32.0,00001,ignore,1.0,7100.0,0.440309488774
524,1_42_2,42,2.0,1921.00002854,1_I,test,02,5,33.0,01011,kill,0.0,7000.0,1.18367428757
525,1_42_2,42,2.0,1924.12516501,1_I,test,02,5,34.0,00100,ignore,1.0,7100.0,1.25054844325
526,1_42_2,42,2.0,1928.70770765,1_I,test,02,5,35.0,01111,kill,0.0,7000.0,2.65659017113
527,1_42_2,42,2.0,1932.05159183,1_I,test,02,5,36.0,11011,ignore,0.0,6900.0,1.49754611734
528,1_42_2,42,2.0,1935.56744665,1_I,test,02,5,37.0,10011,ignore,0.0,6800.0,1.56470411647
529,1_42_2,42,2.0,1938.98948817,1_I,test,02,5,38.0,10110,kill,1.0,6900.0,1.48580333787
530,1_42_2,42,2.0,1941.67712504,1_I,test,02,5,39.0,01001,ignore,1.0,7000.0,0.820864320912
531,1_42_2,42,2.0,1944.47413497,1_I,test,02,5,40.0,11000,ignore,1.0,7100.0,0.885388509505
532,1_42_2,42,2.0,1947.49305722,1_I,test,02,5,41.0,01101,ignore,1.0,7200.0,1.17370609086
533,1_42_2,42,2.0,1950.50915419,1_I,test,02,5,42.0,11110,kill,1.0,7300.0,1.09660010084
534,1_42_2,42,2.0,1953.04054279,1_I,test,02,5,43.0,00000,ignore,1.0,7400.0,0.587935338861
535,1_42_2,42,2.0,1955.77505616,1_I,test,02,5,44.0,10000,ignore,1.0,7500.0,0.888855248185
536,1_42_2,42,2.0,1958.22829448,1_I,test,02,5,45.0,10001,ignore,1.0,7600.0,0.567613110809
537,1_42_2,42,2.0,1960.80659165,1_I,test,02,5,46.0,01000,ignore,1.0,7700.0,0.657691227088
538,1_42_2,42,2.0,1963.63487182,1_I,test,02,5,47.0,11010,kill,1.0,7800.0,0.921613346864
539,1_42_2,42,2.0,1966.11937589,1_I,test,02,6,0.0,00101,ignore,1.0,7900.0,0.532516911938
540,1_42_2,42,2.0,1968.90076962,1_I,test,02,6,1.0,00111,kill,0.0,7800.0,0.914711942208
541,1_42_2,42,2.0,1971.80714105,1_I,test,02,6,2.0,01110,ignore,1.0,7900.0,1.03297202362
542,1_42_2,42,2.0,1975.49485618,1_I,test,02,6,3.0,11101,ignore,1.0,8000.0,1.75195098264
543,1_42_2,42,2.0,1978.52626787,1_I,test,02,6,4.0,00010,ignore,0.0,7900.0,1.15554748749
544,1_42_2,42,2.0,1983.07339069,1_I,test,02,6,5.0,11011,kill,0.0,7800.0,2.62153149732
545,1_42_2,42,2.0,1986.02668609,1_I,test,02,6,6.0,10011,ignore,1.0,7900.0,1.11981624906
546,1_42_2,42,2.0,1989.18307453,1_I,test,02,6,7.0,01111,kill,0.0,7800.0,1.22743877641
547,1_42_2,42,2.0,1992.58953865,1_I,test,02,6,8.0,10110,kill,0.0,7700.0,1.4747103514
548,1_42_2,42,2.0,1996.16783711,1_I,test,02,6,9.0,10000,ignore,0.0,7600.0,1.69792803911
549,1_42_2,42,2.0,1999.06177588,1_I,test,02,6,10.0,10001,kill,0.0,7500.0,0.973575939826
550,1_42_2,42,2.0,2002.42131924,1_I,test,02,6,11.0,11010,ignore,0.0,7400.0,1.53179303099
551,1_42_2,42,2.0,2005.64022251,1_I,test,02,6,12.0,11000,ignore,0.0,7300.0,1.2864541572
552,1_42_2,42,2.0,2008.81223965,1_I,test,02,6,13.0,00101,ignore,1.0,7400.0,1.21845008012
553,1_42_2,42,2.0,2011.74990057,1_I,test,02,6,14.0,00000,kill,1.0,7500.0,1.07644144358
554,1_42_2,42,2.0,2014.67194209,1_I,test,02,6,15.0,01110,kill,0.0,7400.0,1.01073184781
555,1_42_2,42,2.0,2018.62528657,1_I,test,02,6,16.0,01000,kill,1.0,7500.0,2.12706884983
556,1_42_2,42,2.0,2021.59417027,1_I,test,02,6,17.0,01101,ignore,1.0,7600.0,1.05833672235
557,1_42_2,42,2.0,2024.9225101,1_I,test,02,6,18.0,10010,kill,1.0,7700.0,1.40859824319
558,1_42_2,42,2.0,2027.26949892,1_I,test,02,6,19.0,10101,ignore,1.0,7800.0,0.500158439162
559,1_42_2,42,2.0,2029.89461358,1_I,test,02,6,20.0,11100,kill,1.0,7900.0,0.747140076897
560,1_42_2,42,2.0,2032.3478458,1_I,test,02,6,21.0,01011,ignore,1.0,8000.0,0.534525946176
561,1_42_2,42,2.0,2035.47302718,1_I,test,02,6,22.0,00100,kill,1.0,8100.0,1.20231879242
562,1_42_2,42,2.0,2038.25444239,1_I,test,02,6,23.0,00011,ignore,1.0,8200.0,0.84161536103
563,1_42_2,42,2.0,2041.02018881,1_I,test,02,6,24.0,00010,kill,1.0,8300.0,0.924000197569
564,1_42_2,42,2.0,2043.80161364,1_I,test,02,6,25.0,10100,kill,1.0,8400.0,0.81514094671
565,1_42_2,42,2.0,2046.30173167,1_I,test,02,7,0.0,10111,ignore,0.0,8300.0,0.5500517012
566,1_42_2,42,2.0,2048.78626012,1_I,test,02,7,1.0,01001,ignore,1.0,8400.0,0.602802641251
567,1_42_2,42,2.0,2051.7238925,1_I,test,02,7,2.0,11101,ignore,0.0,8300.0,0.994494720191
568,1_42_2,42,2.0,2054.4584341,1_I,test,02,7,3.0,01010,kill,0.0,8200.0,0.895086974761
569,1_42_2,42,2.0,2058.92742043,1_I,test,02,7,4.0,11110,ignore,1.0,8300.0,2.53213813329
570,1_42_2,42,2.0,2062.08384382,1_I,test,02,7,5.0,00111,kill,0.0,8200.0,1.19687477148
571,1_42_2,42,2.0,2065.75589689,1_I,test,02,7,6.0,11001,kill,1.0,8300.0,1.80693835241
572,1_42_2,42,2.0,2068.55289815,1_I,test,02,7,7.0,00001,ignore,1.0,8400.0,0.846758539999
573,1_42_2,42,2.0,2072.25626316,1_I,test,02,7,8.0,00110,ignore,1.0,8500.0,1.85641146201
574,1_42_2,42,2.0,2074.94389009,1_I,test,02,7,9.0,01100,kill,0.0,8400.0,0.766455542741
575,1_42_2,42,2.0,2078.25652872,1_I,test,02,7,10.0,11111,kill,1.0,8500.0,1.38434871241
576,1_42_2,42,2.0,2081.14731827,1_I,test,02,7,11.0,01011,kill,0.0,8400.0,1.03633965764
577,1_42_2,42,2.0,2085.14752097,1_I,test,02,7,12.0,01001,kill,0.0,8300.0,2.13376819645
578,1_42_2,42,2.0,2088.52273121,1_I,test,02,7,13.0,00110,ignore,1.0,8400.0,1.43328620784
579,1_42_2,42,2.0,2092.55417176,1_I,test,02,7,14.0,11000,ignore,1.0,8500.0,2.12698514007
580,1_42_2,42,2.0,2095.74185161,1_I,test,02,7,15.0,01000,ignore,1.0,8600.0,1.24978318851
581,1_42_2,42,2.0,2098.91388896,1_I,test,02,7,16.0,11110,ignore,1.0,8700.0,1.33194768557
582,1_42_2,42,2.0,2101.80468108,1_I,test,02,7,17.0,00000,ignore,1.0,8800.0,1.02458276618
583,1_42_2,42,2.0,2105.99239235,1_I,test,02,7,18.0,10000,ignore,0.0,8700.0,2.2728601412
584,1_42_2,42,2.0,2109.74256972,1_I,test,02,7,19.0,10011,kill,1.0,8800.0,1.83800589881
585,1_42_2,42,2.0,2113.4990452,1_I,test,02,7,20.0,00100,kill,0.0,8700.0,1.82845047782
586,1_42_2,42,2.0,2116.96795359,1_I,test,02,7,21.0,10111,kill,1.0,8800.0,1.61450949929
587,1_42_2,42,2.0,2120.89004611,1_I,test,02,7,22.0,00011,kill,0.0,8700.0,1.98959497305
588,1_42_2,42,2.0,2125.26527142,1_I,test,02,7,23.0,10001,ignore,0.0,8600.0,2.43764456772
589,1_42_2,42,2.0,2128.1264569,1_I,test,02,7,24.0,01101,ignore,1.0,8700.0,0.998262942299
590,1_42_2,42,2.0,2130.70471815,1_I,test,02,7,25.0,01100,kill,0.0,8600.0,0.654836114893
591,1_42_2,42,2.0,2134.23614908,1_I,test,02,7,26.0,00101,ignore,1.0,8700.0,1.68913434486
592,1_42_2,42,2.0,2137.39257857,1_I,test,02,7,27.0,11101,ignore,0.0,8600.0,1.21329599643
593,1_42_2,42,2.0,2141.70530829,1_I,test,02,7,28.0,01111,ignore,1.0,8700.0,2.38850693861
594,1_42_2,42,2.0,2146.01802743,1_I,test,02,7,29.0,11100,ignore,1.0,8800.0,2.44707233934
595,1_42_2,42,2.0,2149.08072187,1_I,test,02,7,30.0,11111,ignore,0.0,8700.0,1.13298081154
596,1_42_2,42,2.0,2152.92466731,1_I,test,02,7,31.0,10101,kill,1.0,8800.0,1.99506176561
597,1_42_2,42,2.0,2155.6904195,1_I,test,02,7,32.0,00010,ignore,1.0,8900.0,0.859628033596
598,1_42_2,42,2.0,2158.45617554,1_I,test,02,7,33.0,10100,kill,1.0,9000.0,0.825697677551
599,1_42_2,42,2.0,2161.06570158,1_I,test,02,7,34.0,01010,ignore,1.0,9100.0,0.77323058094
600,1_42_2,42,2.0,2163.7220852,1_I,test,02,7,35.0,10110,kill,1.0,9200.0,0.785080483246
