,unique_id,pair_id,sbj_id,wall_time,condition,block,rule_id,rule_num,trial,stimulus,choice,correct,points,reaction_time
0,3_21_1,21,1.0,33.8749111587,3_D,training,01,1_A,1.0,00011,kill,1.0,100.0,3.85793092831
1,3_21_1,21,1.0,37.7344755478,3_D,training,01,1_A,2.0,10100,kill,0.0,0.0,1.78274458613
2,3_21_1,21,1.0,42.7347561836,3_D,training,01,1_A,3.0,00110,kill,1.0,100.0,2.93807570432
3,3_21_1,21,1.0,49.2663589829,3_D,training,01,1_A,4.0,10111,ignore,0.0,0.0,4.46134121466
4,3_21_1,21,1.0,53.415177426,3_D,training,01,1_A,5.0,11011,kill,0.0,0.0,2.09988774568
5,3_21_1,21,1.0,58.6341788757,3_D,training,01,1_A,6.0,01010,ignore,0.0,0.0,3.17919638734
6,3_21_1,21,1.0,61.9155898804,3_D,training,01,1_A,7.0,10011,kill,0.0,0.0,1.23826461231
7,3_21_1,21,1.0,65.6345505978,3_D,training,01,1_A,8.0,01111,kill,1.0,100.0,1.69680203469
8,3_21_1,21,1.0,69.2128149536,3_D,training,01,1_A,9.0,00000,ignore,1.0,200.0,1.55300456715
9,3_21_1,21,1.0,74.1505821188,3_D,training,01,1_A,10.0,00010,ignore,0.0,100.0,2.90277428542
10,3_21_1,21,1.0,77.4945229512,3_D,training,01,1_A,11.0,10000,ignore,1.0,200.0,1.30119310309
11,3_21_1,21,1.0,80.9790713039,3_D,training,01,1_A,12.0,10010,kill,0.0,100.0,1.44446361677
12,3_21_1,21,1.0,83.9479579335,3_D,training,01,1_A,13.0,10110,kill,1.0,200.0,0.942892056243
13,3_21_1,21,1.0,88.2294212167,3_D,training,01,1_A,14.0,11101,ignore,1.0,300.0,2.23706220814
14,3_21_1,21,1.0,92.9171944758,3_D,training,01,1_A,15.0,00111,kill,1.0,400.0,2.65497575307
15,3_21_1,21,1.0,95.9954440781,3_D,training,01,1_A,16.0,11111,kill,1.0,500.0,1.06517999179
16,3_21_1,21,1.0,99.0112414687,3_D,training,01,1_A,17.0,11001,ignore,1.0,600.0,1.01106378611
17,3_21_1,21,1.0,102.403786178,3_D,training,01,1_A,18.0,01101,ignore,1.0,700.0,1.38471769641
18,3_21_1,21,1.0,105.575819457,3_D,training,01,1_A,19.0,10001,ignore,1.0,800.0,1.15721153846
19,3_21_1,21,1.0,108.954132883,3_D,training,01,1_A,20.0,01011,kill,1.0,900.0,1.38858662185
20,3_21_1,21,1.0,111.782390504,3_D,training,01,1_A,21.0,01100,ignore,1.0,1000.0,0.843136770667
21,3_21_1,21,1.0,114.891920575,3_D,training,01,1_A,22.0,01001,ignore,1.0,1100.0,1.10346064043
22,3_21_1,21,1.0,118.954650216,3_D,training,01,1_A,23.0,01110,kill,1.0,1200.0,2.08944135834
23,3_21_1,21,1.0,122.73606571,3_D,training,01,1_A,24.0,10101,ignore,1.0,1300.0,1.76216965156
24,3_21_1,21,1.0,126.4394157,3_D,training,01,1_A,25.0,11010,kill,0.0,1200.0,1.69698484887
25,3_21_1,21,1.0,129.345794632,3_D,training,01,1_A,26.0,00001,ignore,1.0,1300.0,0.897274785754
26,3_21_1,21,1.0,132.736610304,3_D,training,01,1_A,27.0,11100,ignore,1.0,1400.0,1.40381760918
27,3_21_1,21,1.0,135.439860227,3_D,training,01,1_A,28.0,11000,ignore,1.0,1500.0,0.696733719916
28,3_21_1,21,1.0,138.424380356,3_D,training,01,1_A,29.0,00100,ignore,1.0,1600.0,0.97804529943
29,3_21_1,21,1.0,141.768318623,3_D,training,01,1_A,30.0,00101,ignore,1.0,1700.0,1.32792342331
30,3_21_1,21,1.0,144.580940499,3_D,training,01,1_A,31.0,01000,ignore,1.0,1800.0,0.816609470417
31,3_21_1,21,1.0,147.534229871,3_D,training,01,1_A,32.0,11110,ignore,0.0,1700.0,0.957666008108
32,3_21_1,21,1.0,151.159412685,3_D,training,01,1_A,33.0,11011,kill,0.0,1600.0,1.62915052343
33,3_21_1,21,1.0,154.315786486,3_D,training,01,1_A,34.0,00000,ignore,1.0,1700.0,1.1606555011
34,3_21_1,21,1.0,157.284730846,3_D,training,01,1_A,35.0,11000,ignore,1.0,1800.0,0.967974162262
35,3_21_1,21,1.0,163.878816647,3_D,training,01,1_A,36.0,11010,kill,0.0,1700.0,4.60771989018
36,3_21_1,21,1.0,167.660281534,3_D,training,01,1_A,37.0,01010,ignore,0.0,1600.0,1.7860358829
37,3_21_1,21,1.0,173.582434443,3_D,training,01,1_A,38.0,11110,ignore,0.0,1500.0,3.92755234259
38,3_21_1,21,1.0,177.785779943,3_D,training,01,1_A,39.0,10010,ignore,1.0,1600.0,2.21470884436
39,3_21_1,21,1.0,184.379875686,3_D,training,01,1_A,40.0,01111,ignore,0.0,1500.0,4.58670748448
40,3_21_1,21,1.0,187.270653513,3_D,training,01,1_A,41.0,11101,ignore,1.0,1600.0,0.8939017037
41,3_21_1,21,1.0,191.348975278,3_D,training,01,1_A,42.0,00110,kill,1.0,1700.0,2.07963385847
42,3_21_1,21,1.0,195.927355737,3_D,training,01,1_A,43.0,11111,kill,1.0,1800.0,2.57752700518
43,3_21_1,21,1.0,201.771397598,3_D,training,01,1_A,44.0,10000,kill,0.0,1700.0,3.85495683019
44,3_21_1,21,1.0,206.912265549,3_D,training,01,1_A,45.0,00010,ignore,0.0,1600.0,3.13602112947
45,3_21_1,21,1.0,210.599984605,3_D,training,01,1_A,46.0,10100,ignore,1.0,1700.0,1.67777556833
46,3_21_1,21,1.0,214.350165495,3_D,training,01,1_A,47.0,00011,kill,1.0,1800.0,1.75211038128
47,3_21_1,21,1.0,219.225406681,3_D,training,01,1_A,48.0,11001,ignore,1.0,1900.0,2.87895680454
48,3_21_1,21,1.0,222.381800046,3_D,training,01,1_A,49.0,10011,kill,0.0,1800.0,1.1687740545
49,3_21_1,21,1.0,225.303849361,3_D,training,01,1_A,50.0,01000,ignore,1.0,1900.0,0.902985002822
50,3_21_1,21,1.0,229.272812965,3_D,training,01,1_A,51.0,10111,kill,1.0,2000.0,1.95173384821
51,3_21_1,21,1.0,234.398099695,3_D,training,01,1_A,52.0,00001,ignore,1.0,2100.0,3.1178699261
52,3_21_1,21,1.0,238.726434931,3_D,training,01,1_A,53.0,10110,kill,1.0,2200.0,2.31701454816
53,3_21_1,21,1.0,243.070442474,3_D,training,01,1_A,54.0,10001,kill,0.0,2100.0,2.32411030431
54,3_21_1,21,1.0,248.601953225,3_D,training,01,1_A,55.0,11100,ignore,1.0,2200.0,3.51526755016
55,3_21_1,21,1.0,252.324037499,3_D,training,01,1_A,56.0,01001,ignore,1.0,2300.0,1.72897989685
56,3_21_1,21,1.0,256.027386848,3_D,training,01,1_A,57.0,01100,ignore,1.0,2400.0,1.70613967004
57,3_21_1,21,1.0,260.340103659,3_D,training,01,1_A,58.0,01011,ignore,0.0,2300.0,2.3229159183
58,3_21_1,21,1.0,267.371726022,3_D,training,01,1_A,59.0,00100,ignore,1.0,2400.0,5.02674892236
59,3_21_1,21,1.0,271.340647611,3_D,training,01,1_A,60.0,01110,kill,1.0,2500.0,1.9801531149
60,3_21_1,21,1.0,276.309700377,3_D,training,01,1_A,61.0,10101,ignore,1.0,2600.0,2.95367520655
61,3_21_1,21,1.0,279.671690101,3_D,training,01,1_A,62.0,01101,ignore,1.0,2700.0,1.38410254272
62,3_21_1,21,1.0,282.865145674,3_D,training,01,1_A,63.0,00101,ignore,1.0,2800.0,1.22277993021
63,3_21_1,21,1.0,286.693436009,3_D,training,01,1_A,64.0,00111,kill,1.0,2900.0,1.83598488736
64,3_21_1,21,1.0,289.974846693,3_D,training,01,1_A,65.0,00111,kill,1.0,3000.0,1.27150921127
65,3_21_1,21,1.0,292.881239095,3_D,training,01,1_A,66.0,01000,ignore,1.0,3100.0,0.914067070355
66,3_21_1,21,1.0,298.319124609,3_D,training,01,1_A,67.0,11100,ignore,1.0,3200.0,3.47633967517
67,3_21_1,21,1.0,301.991186111,3_D,training,01,1_A,68.0,01111,kill,1.0,3300.0,1.69396841484
68,3_21_1,21,1.0,305.835123736,3_D,training,01,1_A,69.0,11001,ignore,1.0,3400.0,1.83938330682
69,3_21_1,21,1.0,309.382189729,3_D,training,01,1_A,70.0,11011,kill,0.0,3300.0,1.56361484579
70,3_21_1,21,1.0,312.397955688,3_D,training,01,1_A,71.0,10100,ignore,1.0,3400.0,1.02609239493
71,3_21_1,21,1.0,316.851324922,3_D,training,01,1_A,72.0,10101,kill,0.0,3300.0,2.47976279058
72,3_21_1,21,1.0,320.476502925,3_D,training,01,1_A,73.0,00101,ignore,1.0,3400.0,1.6085640427
73,3_21_1,21,1.0,328.601947131,3_D,training,01,1_A,74.0,01010,ignore,0.0,3300.0,6.13421255196
74,3_21_1,21,1.0,331.648946413,3_D,training,01,1_A,75.0,11010,kill,0.0,3200.0,1.07491532817
75,3_21_1,21,1.0,334.883493804,3_D,training,01,1_A,76.0,11110,kill,1.0,3300.0,1.24651979525
76,3_21_1,21,1.0,338.133662185,3_D,training,01,1_A,77.0,10111,kill,1.0,3400.0,1.26633011751
77,3_21_1,21,1.0,343.024536871,3_D,training,01,1_A,78.0,11000,ignore,1.0,3500.0,2.89283047673
78,3_21_1,21,1.0,345.66530283,3_D,training,01,1_A,79.0,00001,ignore,1.0,3600.0,0.645594178171
79,3_21_1,21,1.0,349.587374275,3_D,training,01,1_A,80.0,11111,kill,1.0,3700.0,1.9386655206
80,3_21_1,21,1.0,352.821923911,3_D,training,01,1_A,81.0,00010,kill,1.0,3800.0,1.24215406425
81,3_21_1,21,1.0,356.337695964,3_D,training,01,1_A,82.0,00100,ignore,1.0,3900.0,1.52604139939
82,3_21_1,21,1.0,359.528784574,3_D,training,01,1_A,83.0,00011,kill,1.0,4000.0,1.19835242726
83,3_21_1,21,1.0,362.700801817,3_D,training,01,1_A,84.0,10000,ignore,1.0,4100.0,1.16461743727
84,3_21_1,21,1.0,365.435342793,3_D,training,01,1_A,85.0,00000,ignore,1.0,4200.0,0.731241019654
85,3_21_1,21,1.0,369.160555434,3_D,training,01,1_A,86.0,00110,kill,1.0,4300.0,1.73160600657
86,3_21_1,21,1.0,372.332557282,3_D,training,01,1_A,87.0,01100,ignore,1.0,4400.0,1.17909952789
87,3_21_1,21,1.0,375.004580297,3_D,training,01,1_A,88.0,10001,ignore,1.0,4500.0,0.649175732539
88,3_21_1,21,1.0,380.895525222,3_D,training,01,1_A,89.0,01110,kill,1.0,4600.0,3.90982481911
89,3_21_1,21,1.0,383.583161531,3_D,training,01,1_A,90.0,01011,kill,1.0,4700.0,0.701482398522
90,3_21_1,21,1.0,386.564192474,3_D,training,01,1_A,91.0,01001,ignore,1.0,4800.0,0.974446425823
91,3_21_1,21,1.0,389.783125289,3_D,training,01,1_A,92.0,10110,kill,1.0,4900.0,1.2212013137
92,3_21_1,21,1.0,392.877006787,3_D,training,01,1_A,93.0,10011,kill,0.0,4800.0,1.098898304
93,3_21_1,21,1.0,396.424098117,3_D,training,01,1_A,94.0,01101,ignore,1.0,4900.0,1.53159606404
94,3_21_1,21,1.0,399.752400639,3_D,training,01,1_A,95.0,10010,kill,0.0,4800.0,1.36434065018
95,3_21_1,21,1.0,403.455714387,3_D,training,01,1_A,96.0,11101,ignore,1.0,4900.0,1.7068677195
96,3_21_1,21,1.0,406.330826641,3_D,training,01,1_A,97.0,11000,ignore,1.0,5000.0,0.884476830707
97,3_21_1,21,1.0,408.909161236,3_D,training,01,1_A,98.0,10101,ignore,1.0,5100.0,0.583018165958
98,3_21_1,21,1.0,412.221762906,3_D,training,01,1_A,99.0,01110,kill,1.0,5200.0,1.32623543901
99,3_21_1,21,1.0,415.221938664,3_D,training,01,1_A,100.0,10100,ignore,1.0,5300.0,1.0232145148
100,3_21_1,21,1.0,418.284602876,3_D,training,01,1_A,101.0,10000,ignore,1.0,5400.0,1.09290167804
101,3_21_1,21,1.0,420.862823934,3_D,training,01,1_A,102.0,00001,ignore,1.0,5500.0,0.583590021553
102,3_21_1,21,1.0,423.378591176,3_D,training,01,1_A,103.0,11100,ignore,1.0,5600.0,0.559608328629
103,3_21_1,21,1.0,427.081912301,3_D,training,01,1_A,104.0,01111,kill,1.0,5700.0,1.72811104839
104,3_21_1,21,1.0,430.332084851,3_D,training,01,1_A,105.0,01100,ignore,1.0,5800.0,1.27316223636
105,3_21_1,21,1.0,434.597913352,3_D,training,01,1_A,106.0,10010,kill,0.0,5700.0,2.28432961718
106,3_21_1,21,1.0,437.50432564,3_D,training,01,1_A,107.0,01101,ignore,1.0,5800.0,0.926367578386
107,3_21_1,21,1.0,440.910758134,3_D,training,01,1_A,108.0,00011,kill,1.0,5900.0,1.43242129368
108,3_21_1,21,1.0,444.17648753,3_D,training,01,1_A,109.0,11110,kill,1.0,6000.0,1.29276504849
109,3_21_1,21,1.0,447.114200813,3_D,training,01,1_A,110.0,00101,ignore,1.0,6100.0,0.934693321188
110,3_21_1,21,1.0,450.051827821,3_D,training,01,1_A,111.0,01001,ignore,1.0,6200.0,0.968537037512
111,3_21_1,21,1.0,453.743189691,3_D,training,01,1_A,112.0,10011,kill,0.0,6100.0,1.71994182019
112,3_21_1,21,1.0,456.743362562,3_D,training,01,1_A,113.0,01011,ignore,0.0,6000.0,1.04222975573
113,3_21_1,21,1.0,460.540434007,3_D,training,01,1_A,114.0,00010,kill,1.0,6100.0,1.79855705085
114,3_21_1,21,1.0,464.775021168,3_D,training,01,1_A,115.0,00100,ignore,1.0,6200.0,2.24327019295
115,3_21_1,21,1.0,467.509500564,3_D,training,01,1_A,116.0,10110,kill,1.0,6300.0,0.775732539642
116,3_21_1,21,1.0,470.947172474,3_D,training,01,1_A,117.0,11010,kill,0.0,6200.0,1.46415559091
117,3_21_1,21,1.0,473.619214412,3_D,training,01,1_A,118.0,00111,kill,1.0,6300.0,0.724776132806
118,3_21_1,21,1.0,476.666211449,3_D,training,01,1_A,119.0,11001,ignore,1.0,6400.0,1.08715586032
119,3_21_1,21,1.0,481.619624301,3_D,training,01,1_A,120.0,00000,ignore,1.0,6500.0,2.96971538718
120,3_21_1,21,1.0,484.447877752,3_D,training,01,1_A,121.0,01000,ignore,1.0,6600.0,0.865072227639
121,3_21_1,21,1.0,489.541904539,3_D,training,01,1_A,122.0,11011,kill,0.0,6500.0,3.12455034125
122,3_21_1,21,1.0,492.729595692,3_D,training,01,1_A,123.0,10001,ignore,1.0,6600.0,1.22111567968
123,3_21_1,21,1.0,495.479681005,3_D,training,01,1_A,124.0,11101,ignore,1.0,6700.0,0.770652550418
124,3_21_1,21,1.0,498.526735131,3_D,training,01,1_A,125.0,01010,kill,1.0,6800.0,1.06686765536
125,3_21_1,21,1.0,502.13632133,3_D,training,01,1_A,126.0,11111,kill,1.0,6900.0,1.66302951968
126,3_21_1,21,1.0,505.433367437,3_D,training,01,1_A,127.0,00110,kill,1.0,7000.0,1.32321194899
127,3_21_1,21,1.0,508.511632434,3_D,training,01,1_A,128.0,10111,kill,1.0,7100.0,1.09196226972
128,3_21_1,21,1.0,511.18364679,3_D,training,01,1_A,129.0,00110,kill,1.0,7200.0,0.694889541745
129,3_21_1,21,1.0,514.293182314,3_D,training,01,1_A,130.0,11000,ignore,1.0,7300.0,1.12170389234
130,3_21_1,21,1.0,517.558961744,3_D,training,01,1_A,131.0,11011,ignore,1.0,7400.0,1.31648374557
131,3_21_1,21,1.0,520.684166367,3_D,training,01,1_A,132.0,11101,ignore,1.0,7500.0,1.13322407246
132,3_21_1,21,1.0,524.34061618,3_D,training,01,1_A,133.0,00011,ignore,0.0,7400.0,1.66989595628
133,3_21_1,21,1.0,526.996982925,3_D,training,01,1_A,134.0,10000,ignore,1.0,7500.0,0.689679337507
134,3_21_1,21,1.0,529.65336314,3_D,training,01,1_A,135.0,00000,ignore,1.0,7600.0,0.660121491251
135,3_21_1,21,1.0,532.68478537,3_D,training,01,1_A,136.0,01101,ignore,1.0,7700.0,1.07318725304
136,3_21_1,21,1.0,535.608825756,3_D,training,01,1_A,137.0,10101,ignore,1.0,7800.0,0.907372222507
137,3_21_1,21,1.0,539.124632447,3_D,training,01,1_A,138.0,10111,kill,1.0,7900.0,1.52488582132
138,3_21_1,21,1.0,542.062262342,3_D,training,01,1_A,139.0,00010,kill,1.0,8000.0,0.966522553497
139,3_21_1,21,1.0,545.37494708,3_D,training,01,1_A,140.0,01001,ignore,1.0,8100.0,1.34205560117
140,3_21_1,21,1.0,549.859550277,3_D,training,01,1_A,141.0,10010,kill,0.0,8000.0,2.53614332632
141,3_21_1,21,1.0,553.080133551,3_D,training,01,1_A,142.0,10100,ignore,1.0,8100.0,1.23174712629
142,3_21_1,21,1.0,555.89275671,3_D,training,01,1_A,143.0,00001,ignore,1.0,8200.0,0.820244265407
143,3_21_1,21,1.0,559.158570778,3_D,training,01,1_A,144.0,11100,ignore,1.0,8300.0,1.29870683019
144,3_21_1,21,1.0,561.705568135,3_D,training,01,1_A,145.0,01000,ignore,1.0,8400.0,0.589316274953
145,3_21_1,21,1.0,566.252684482,3_D,training,01,1_A,146.0,00111,kill,1.0,8500.0,2.53198767127
146,3_21_1,21,1.0,569.534116655,3_D,training,01,1_A,147.0,00100,ignore,1.0,8600.0,1.29071336019
147,3_21_1,21,1.0,572.59678247,3_D,training,01,1_A,148.0,11110,kill,1.0,8700.0,1.06867591215
148,3_21_1,21,1.0,575.333777326,3_D,training,01,1_A,149.0,11001,ignore,1.0,8800.0,0.78550700467
149,3_21_1,21,1.0,578.22456766,3_D,training,01,1_A,150.0,01100,ignore,1.0,8900.0,0.895886039411
150,3_21_1,21,1.0,581.115363127,3_D,training,01,1_A,151.0,01111,kill,1.0,9000.0,0.906690999128
151,3_21_1,21,1.0,584.021747832,3_D,training,01,1_A,152.0,11010,kill,0.0,8900.0,0.957860047723
152,3_21_1,21,1.0,587.381316711,3_D,training,01,1_A,153.0,01010,kill,1.0,9000.0,1.39050617078
153,3_21_1,21,1.0,590.115837161,3_D,training,01,1_A,154.0,01110,kill,1.0,9100.0,0.790596615693
154,3_21_1,21,1.0,596.006711526,3_D,training,01,1_A,155.0,10011,ignore,1.0,9200.0,3.892878265
155,3_21_1,21,1.0,598.70997973,3_D,training,01,1_A,156.0,01011,ignore,0.0,9100.0,0.717276581824
156,3_21_1,21,1.0,601.64767826,3_D,training,01,1_A,157.0,10110,kill,1.0,9200.0,0.968046005029
157,3_21_1,21,1.0,604.538419844,3_D,training,01,1_A,158.0,00101,ignore,1.0,9300.0,0.9105374737
158,3_21_1,21,1.0,607.507367091,3_D,training,01,1_A,159.0,10001,ignore,1.0,9400.0,1.00150196285
159,3_21_1,21,1.0,611.116881767,3_D,training,01,1_A,160.0,11111,kill,1.0,9500.0,1.56853575461
160,3_21_1,21,1.0,614.460872954,3_D,training,01,1_A,161.0,11110,kill,1.0,9600.0,1.38160504439
161,3_21_1,21,1.0,618.040103659,3_D,training,01,1_A,162.0,10101,ignore,1.0,9700.0,1.59655988608
162,3_21_1,21,1.0,621.399656181,3_D,training,01,1_A,163.0,10111,kill,1.0,9800.0,1.40323484887
163,3_21_1,21,1.0,624.227879804,3_D,training,01,1_A,164.0,00000,ignore,1.0,9900.0,0.840797711295
164,3_21_1,21,1.0,626.884288885,3_D,training,01,1_A,165.0,00001,ignore,1.0,10000.0,0.662021796582
165,3_21_1,21,1.0,630.009462077,3_D,training,01,1_A,166.0,10110,kill,1.0,10100.0,1.16173410479
166,3_21_1,21,1.0,633.540872761,3_D,training,01,1_A,167.0,01111,kill,1.0,10200.0,1.57127668446
167,3_21_1,21,1.0,636.541014202,3_D,training,01,1_A,168.0,10001,ignore,1.0,10300.0,1.01808641658
168,3_21_1,21,1.0,640.009958883,3_D,training,01,1_A,169.0,01101,ignore,1.0,10400.0,1.46305132909
169,3_21_1,21,1.0,642.822622774,3_D,training,01,1_A,170.0,01000,ignore,1.0,10500.0,0.858780212449
170,3_21_1,21,1.0,646.166545325,3_D,training,01,1_A,171.0,00110,kill,1.0,10600.0,1.35914006774
171,3_21_1,21,1.0,648.854180351,3_D,training,01,1_A,172.0,00111,kill,1.0,10700.0,0.711059937395
172,3_21_1,21,1.0,652.338712667,3_D,training,01,1_A,173.0,11111,kill,1.0,10800.0,1.48877360548
173,3_21_1,21,1.0,655.635766473,3_D,training,01,1_A,174.0,10011,ignore,1.0,10900.0,1.29845313542
174,3_21_1,21,1.0,660.042256697,3_D,training,01,1_A,175.0,11011,ignore,1.0,11000.0,2.43704617181
175,3_21_1,21,1.0,662.870514317,3_D,training,01,1_A,176.0,11000,ignore,1.0,11100.0,0.848746600297
176,3_21_1,21,1.0,666.542566839,3_D,training,01,1_A,177.0,11010,kill,0.0,11000.0,1.7350534972
177,3_21_1,21,1.0,669.865085698,3_D,training,01,1_A,178.0,01010,kill,1.0,11100.0,1.34357520398
178,3_21_1,21,1.0,672.787109996,3_D,training,01,1_A,179.0,00101,ignore,1.0,11200.0,0.927382357469
179,3_21_1,21,1.0,676.584195553,3_D,training,01,1_A,180.0,11001,ignore,1.0,11300.0,1.8168801637
180,3_21_1,21,1.0,679.66245574,3_D,training,01,1_A,181.0,00011,ignore,0.0,11200.0,1.08588963155
181,3_21_1,21,1.0,682.256356802,3_D,training,01,1_A,182.0,01001,ignore,1.0,11300.0,0.633101875609
182,3_21_1,21,1.0,685.912783202,3_D,training,01,1_A,183.0,01110,kill,1.0,11400.0,1.69521219274
183,3_21_1,21,1.0,690.50677086,3_D,training,01,1_A,184.0,11101,ignore,1.0,11500.0,2.62533548006
184,3_21_1,21,1.0,693.866334608,3_D,training,01,1_A,185.0,00100,ignore,1.0,11600.0,1.38218684251
185,3_21_1,21,1.0,698.913456407,3_D,training,01,1_A,186.0,10000,ignore,1.0,11700.0,3.09331028378
186,3_21_1,21,1.0,702.226151409,3_D,training,01,1_A,187.0,00010,kill,1.0,11800.0,1.34322593267
187,3_21_1,21,1.0,706.53885507,3_D,training,01,1_A,188.0,10100,ignore,1.0,11900.0,2.33613145943
188,3_21_1,21,1.0,710.367204739,3_D,training,01,1_A,189.0,01011,ignore,0.0,11800.0,1.85631446605
189,3_21_1,21,1.0,713.726715888,3_D,training,01,1_A,190.0,01100,ignore,1.0,11900.0,1.40429068097
190,3_21_1,21,1.0,717.33628637,3_D,training,01,1_A,191.0,11100,ignore,1.0,12000.0,1.61812843177
191,3_21_1,21,1.0,721.367760558,3_D,training,01,1_A,192.0,10010,kill,0.0,11900.0,2.05523810746
192,3_21_1,21,1.0,724.571021386,3_D,training,01,1_A,193.0,00101,ignore,1.0,12000.0,1.24306332427
193,3_21_1,21,1.0,728.164990763,3_D,training,01,1_A,194.0,11111,kill,1.0,12100.0,1.62461416585
194,3_21_1,21,1.0,732.758987081,3_D,training,01,1_A,195.0,00000,ignore,1.0,12200.0,2.64609483245
195,3_21_1,21,1.0,736.024742777,3_D,training,01,1_A,196.0,10001,ignore,1.0,12300.0,1.24907662801
196,3_21_1,21,1.0,743.353264676,3_D,training,01,1_A,197.0,10011,kill,0.0,12200.0,5.35719325704
197,3_21_1,21,1.0,746.540878534,3_D,training,01,1_A,198.0,10111,kill,1.0,12300.0,1.23501917945
198,3_21_1,21,1.0,749.744196772,3_D,training,01,1_A,199.0,11110,kill,1.0,12400.0,1.24036216452
199,3_21_1,21,1.0,752.759972353,3_D,training,01,1_A,200.0,01101,ignore,1.0,12500.0,1.0451105224
200,3_21_1,21,1.0,755.994511084,3_D,training,01,1_A,201.0,11000,ignore,1.0,12600.0,1.29103729409
201,3_21_1,21,1.0,761.088547493,3_D,training,01,1_A,202.0,01110,kill,1.0,12700.0,3.11846647765
202,3_21_1,21,1.0,764.369939896,3_D,training,01,1_A,203.0,11010,kill,0.0,12600.0,1.35213539796
203,3_21_1,21,1.0,767.901362767,3_D,training,01,1_A,204.0,01001,ignore,1.0,12700.0,1.57747600965
204,3_21_1,21,1.0,771.276583107,3_D,training,01,1_A,205.0,11101,ignore,1.0,12800.0,1.40054266947
205,3_21_1,21,1.0,775.448627611,3_D,training,01,1_A,206.0,00011,ignore,0.0,12700.0,2.19923827423
206,3_21_1,21,1.0,780.245761597,3_D,training,01,1_A,207.0,11011,kill,0.0,12600.0,2.82898823575
207,3_21_1,21,1.0,784.339713976,3_D,training,01,1_A,208.0,01100,ignore,1.0,12700.0,2.13754522246
208,3_21_1,21,1.0,787.089855737,3_D,training,01,1_A,209.0,00001,ignore,1.0,12800.0,0.761087199158
209,3_21_1,21,1.0,793.230814774,3_D,training,01,1_A,210.0,00111,kill,1.0,12900.0,4.1531809668
210,3_21_1,21,1.0,797.152890068,3_D,training,01,1_A,211.0,10100,ignore,1.0,13000.0,1.9430504952
211,3_21_1,21,1.0,800.528068071,3_D,training,01,1_A,212.0,11001,ignore,1.0,13100.0,1.39946053779
212,3_21_1,21,1.0,807.965940435,3_D,training,01,1_A,213.0,10010,kill,0.0,13000.0,5.48689510956
213,3_21_1,21,1.0,810.778563594,3_D,training,01,1_A,214.0,10110,kill,1.0,13100.0,0.821355583209
214,3_21_1,21,1.0,815.794447901,3_D,training,01,1_A,215.0,00110,ignore,0.0,13000.0,3.05162704624
215,3_21_1,21,1.0,821.201098168,3_D,training,01,1_A,216.0,01111,ignore,0.0,12900.0,3.48024933289
216,3_21_1,21,1.0,825.029380805,3_D,training,01,1_A,217.0,11100,ignore,1.0,13000.0,1.85819520706
217,3_21_1,21,1.0,829.732744907,3_D,training,01,1_A,218.0,10101,ignore,1.0,13100.0,2.75926932057
218,3_21_1,21,1.0,833.436033959,3_D,training,01,1_A,219.0,00010,kill,1.0,13200.0,1.74260211936
219,3_21_1,21,1.0,836.873692077,3_D,training,01,1_A,220.0,00100,ignore,1.0,13300.0,1.44681550521
220,3_21_1,21,1.0,839.780113986,3_D,training,01,1_A,221.0,01000,ignore,1.0,13400.0,0.963950646585
221,3_21_1,21,1.0,845.280462616,3_D,training,01,1_A,222.0,01011,ignore,0.0,13300.0,3.51632883461
222,3_21_1,21,1.0,968.192952353,3_D,test,01,2,0.0,10000,kill,1.0,100.0,14.8606186175
223,3_21_1,21,1.0,980.849830977,3_D,test,01,2,1.0,01010,ignore,1.0,200.0,10.7100518936
224,3_21_1,21,1.0,990.787873967,3_D,test,01,2,2.0,01111,ignore,1.0,300.0,7.99381959768
225,3_21_1,21,1.0,996.41953546,3_D,test,01,2,3.0,00010,ignore,1.0,400.0,3.70073510545
226,3_21_1,21,1.0,1000.87289379,3_D,test,01,2,4.0,10010,kill,1.0,500.0,2.50280218864
227,3_21_1,21,1.0,1006.01379541,3_D,test,01,2,5.0,10101,kill,1.0,600.0,3.1682070098
228,3_21_1,21,1.0,1010.10801849,3_D,test,01,2,6.0,00000,ignore,1.0,700.0,2.13492681018
229,3_21_1,21,1.0,1015.12392941,3_D,test,01,2,7.0,11101,kill,1.0,800.0,3.05539237697
230,3_21_1,21,1.0,1020.17103422,3_D,test,01,2,8.0,00101,ignore,1.0,900.0,3.10777056499
231,3_21_1,21,1.0,1023.9368563,3_D,test,01,2,9.0,11000,kill,0.0,800.0,1.78823670909
232,3_21_1,21,1.0,1033.45298436,3_D,test,01,2,10.0,10001,kill,1.0,900.0,7.53901479191
233,3_21_1,21,1.0,1050.37572677,3_D,test,01,2,11.0,10100,kill,1.0,1000.0,14.9838260764
234,3_21_1,21,1.0,1055.01659119,3_D,test,01,2,12.0,01110,ignore,1.0,1100.0,2.69328462565
235,3_21_1,21,1.0,1060.00120401,3_D,test,01,2,13.0,10110,kill,1.0,1200.0,3.06543272438
236,3_21_1,21,1.0,1064.29831651,3_D,test,01,2,14.0,00111,ignore,1.0,1300.0,2.29855769231
237,3_21_1,21,1.0,1075.53327603,3_D,test,01,2,15.0,11110,kill,0.0,1200.0,9.29371215426
238,3_21_1,21,1.0,1084.53374461,3_D,test,01,2,16.0,11111,kill,1.0,1300.0,7.08370516242
239,3_21_1,21,1.0,1093.31540931,3_D,test,01,2,17.0,01101,ignore,1.0,1400.0,6.81976445836
240,3_21_1,21,1.0,1102.22209229,3_D,test,01,2,18.0,00100,ignore,1.0,1500.0,6.9742847796
241,3_21_1,21,1.0,1105.87856616,3_D,test,01,2,19.0,00011,ignore,1.0,1600.0,1.69810065685
242,3_21_1,21,1.0,1109.81626982,3_D,test,01,2,20.0,10111,kill,1.0,1700.0,1.96445258377
243,3_21_1,21,1.0,1113.83211885,3_D,test,01,2,21.0,01000,ignore,1.0,1800.0,2.10991590548
244,3_21_1,21,1.0,1124.03573119,3_D,test,01,2,22.0,11010,ignore,1.0,1900.0,8.29793804844
245,3_21_1,21,1.0,1127.50473521,3_D,test,01,2,23.0,01001,ignore,1.0,2000.0,1.5282556961
246,3_21_1,21,1.0,1131.442427,3_D,test,01,2,24.0,01011,ignore,1.0,2100.0,2.01130689691
247,3_21_1,21,1.0,1135.92703148,3_D,test,01,2,25.0,11001,kill,1.0,2200.0,2.5459328655
248,3_21_1,21,1.0,1139.23968992,3_D,test,01,3,0.0,00110,ignore,1.0,2300.0,1.38033560836
249,3_21_1,21,1.0,1143.20867341,3_D,test,01,3,1.0,10011,kill,1.0,2400.0,1.99476638272
250,3_21_1,21,1.0,1151.45908907,3_D,test,01,3,2.0,00001,ignore,0.0,2300.0,6.2973764561
251,3_21_1,21,1.0,1162.615909,3_D,test,01,3,3.0,01100,kill,0.0,2200.0,9.25061707805
252,3_21_1,21,1.0,1174.14773631,3_D,test,01,3,4.0,10000,ignore,1.0,2300.0,9.56114460923
253,3_21_1,21,1.0,1178.03857925,3_D,test,01,3,5.0,11100,kill,0.0,2200.0,1.98183243957
254,3_21_1,21,1.0,1205.68061432,3_D,test,01,3,6.0,11011,kill,1.0,2300.0,25.6675671602
255,3_21_1,21,1.0,1214.82172346,3_D,test,01,3,7.0,01010,kill,1.0,2400.0,7.20559539693
256,3_21_1,21,1.0,1218.49379073,3_D,test,01,3,8.0,00110,kill,0.0,2300.0,1.76144545081
257,3_21_1,21,1.0,1225.74422949,3_D,test,01,3,9.0,11000,ignore,1.0,2400.0,5.3148057038
258,3_21_1,21,1.0,1232.08832459,3_D,test,01,3,10.0,01010,kill,1.0,2500.0,4.46090053626
259,3_21_1,21,1.0,1239.19803074,3_D,test,01,3,11.0,10011,kill,1.0,2600.0,5.19310373582
260,3_21_1,21,1.0,1246.12027409,3_D,test,01,3,12.0,10110,ignore,1.0,2700.0,4.97360419767
261,3_21_1,21,1.0,1250.54238916,3_D,test,01,3,13.0,01100,ignore,1.0,2800.0,2.50076621594
262,3_21_1,21,1.0,1253.99609259,3_D,test,01,3,14.0,10001,ignore,1.0,2900.0,1.50288204957
263,3_21_1,21,1.0,1257.30873403,3_D,test,01,3,15.0,10000,ignore,1.0,3000.0,1.42008326063
264,3_21_1,21,1.0,1263.15280026,3_D,test,01,3,16.0,11110,ignore,1.0,3100.0,3.9241378868
265,3_21_1,21,1.0,1269.07495895,3_D,test,01,3,17.0,00011,kill,1.0,3200.0,3.98046293683
266,3_21_1,21,1.0,1273.65333524,3_D,test,01,3,18.0,00010,kill,1.0,3300.0,2.69303253451
267,3_21_1,21,1.0,1279.82549873,3_D,test,01,4,0.0,11100,ignore,1.0,3400.0,4.22405898804
268,3_21_1,21,1.0,1283.41944469,3_D,test,01,4,1.0,10010,kill,0.0,3300.0,1.65282175296
269,3_21_1,21,1.0,1290.70107091,3_D,test,01,4,2.0,01001,ignore,1.0,3400.0,5.35416110741
270,3_21_1,21,1.0,1301.98286871,3_D,test,01,4,3.0,01111,kill,0.0,3300.0,9.34478209832
271,3_21_1,21,1.0,1306.17061984,3_D,test,01,4,4.0,11011,kill,0.0,3200.0,2.31085210653
272,3_21_1,21,1.0,1328.46863133,3_D,test,01,4,5.0,00000,ignore,1.0,3300.0,20.3199264253
273,3_21_1,21,1.0,1337.84410055,3_D,test,01,4,6.0,10111,ignore,0.0,3200.0,7.42778037923
274,3_21_1,21,1.0,1346.89530905,3_D,test,01,4,7.0,01000,ignore,1.0,3300.0,7.15053144404
275,3_21_1,21,1.0,1357.38020379,3_D,test,01,4,8.0,01101,ignore,1.0,3400.0,8.54036473033
276,3_21_1,21,1.0,1365.92752444,3_D,test,01,4,9.0,00111,kill,1.0,3500.0,6.64214861189
277,3_21_1,21,1.0,1372.36537499,3_D,test,01,4,10.0,11101,ignore,1.0,3600.0,4.45844377021
278,3_21_1,21,1.0,1393.66332619,3_D,test,01,4,11.0,00101,ignore,0.0,3500.0,19.3323982014
279,3_21_1,21,1.0,1401.58559681,3_D,test,01,4,12.0,11010,ignore,1.0,3600.0,6.01814478883
280,3_21_1,21,1.0,1406.08584858,3_D,test,01,4,13.0,00001,kill,1.0,3700.0,2.55689369836
281,3_21_1,21,1.0,1409.83603685,3_D,test,01,4,14.0,11001,ignore,1.0,3800.0,1.87174911479
282,3_21_1,21,1.0,1413.39870106,3_D,test,01,4,15.0,11111,ignore,1.0,3900.0,1.64541649561
283,3_21_1,21,1.0,1417.28952411,3_D,test,01,4,16.0,01110,ignore,1.0,4000.0,1.97994079386
284,3_21_1,21,1.0,1420.74284331,3_D,test,01,4,17.0,10101,kill,1.0,4100.0,1.55792002361
285,3_21_1,21,1.0,1423.94611728,3_D,test,01,4,18.0,00100,kill,1.0,4200.0,1.2803603043
286,3_21_1,21,1.0,1427.36820348,3_D,test,01,4,19.0,01011,ignore,1.0,4300.0,1.48499095551
287,3_21_1,21,1.0,1430.4933539,3_D,test,01,4,20.0,10100,kill,1.0,4400.0,1.20219377021
288,3_21_1,21,1.0,1433.82162724,3_D,test,01,4,21.0,10000,kill,0.0,4300.0,1.38564170986
289,3_21_1,21,1.0,1445.90039,3_D,test,01,4,22.0,00100,kill,1.0,4400.0,10.1713559039
290,3_21_1,21,1.0,1452.19756857,3_D,test,01,4,23.0,01110,ignore,1.0,4500.0,4.32395924206
291,3_21_1,21,1.0,1456.18212109,3_D,test,01,4,24.0,11010,ignore,1.0,4600.0,2.05288493611
292,3_21_1,21,1.0,1460.11985266,3_D,test,01,4,25.0,10111,kill,1.0,4700.0,2.01021578488
293,3_21_1,21,1.0,1463.38563081,3_D,test,01,4,26.0,11000,ignore,1.0,4800.0,1.33758563401
294,3_21_1,21,1.0,1466.6358242,3_D,test,01,4,27.0,01000,ignore,1.0,4900.0,1.36623165444
295,3_21_1,21,1.0,1470.24537865,3_D,test,01,4,28.0,10101,kill,1.0,5000.0,1.62151947452
296,3_21_1,21,1.0,1473.96431018,3_D,test,01,4,29.0,11011,ignore,1.0,5100.0,1.78842433417
297,3_21_1,21,1.0,1477.15199364,3_D,test,01,4,30.0,01011,ignore,1.0,5200.0,1.29404923795
298,3_21_1,21,1.0,1481.04279872,3_D,test,01,4,31.0,00110,kill,1.0,5300.0,1.92876244419
299,3_21_1,21,1.0,1486.38680915,3_D,test,01,5,0.0,00111,kill,0.0,5200.0,3.45349912762
300,3_21_1,21,1.0,1502.5595166,3_D,test,01,5,1.0,10001,ignore,0.0,5100.0,14.2584771258
301,3_21_1,21,1.0,1507.60664546,3_D,test,01,5,2.0,10100,kill,1.0,5200.0,3.10153114897
302,3_21_1,21,1.0,1511.45060265,3_D,test,01,5,3.0,00010,ignore,1.0,5300.0,1.96132229179
303,3_21_1,21,1.0,1515.46645616,3_D,test,01,5,4.0,11111,ignore,0.0,5200.0,2.14152094986
304,3_21_1,21,1.0,1527.04515735,3_D,test,01,5,5.0,10110,kill,1.0,5300.0,9.69678567763
305,3_21_1,21,1.0,1532.13918446,3_D,test,01,5,6.0,00001,kill,0.0,5200.0,3.16731538975
306,3_21_1,21,1.0,1557.7186185,3_D,test,01,5,7.0,10011,ignore,0.0,5100.0,23.646835711
307,3_21_1,21,1.0,1569.25050867,3_D,test,01,5,8.0,01100,kill,0.0,5000.0,9.65369188433
308,3_21_1,21,1.0,1580.62611388,3_D,test,01,5,9.0,01010,ignore,1.0,5100.0,9.47821432237
309,3_21_1,21,1.0,1584.42637784,3_D,test,01,5,10.0,00011,ignore,1.0,5200.0,1.85221557962
310,3_21_1,21,1.0,1587.87963675,3_D,test,01,5,11.0,01111,ignore,1.0,5300.0,1.56321842767
311,3_21_1,21,1.0,1591.23919729,3_D,test,01,5,12.0,00000,ignore,1.0,5400.0,1.41212282547
312,3_21_1,21,1.0,1594.23932429,3_D,test,01,5,13.0,00101,ignore,1.0,5500.0,1.10933731462
313,3_21_1,21,1.0,1597.0675957,3_D,test,01,5,14.0,01101,ignore,1.0,5600.0,0.848098091034
314,3_21_1,21,1.0,1600.23965977,3_D,test,01,5,15.0,11100,kill,0.0,5500.0,1.23778961615
315,3_21_1,21,1.0,1605.19303478,3_D,test,01,5,16.0,01001,ignore,1.0,5600.0,3.06201153333
316,3_21_1,21,1.0,1617.28739192,3_D,test,01,5,17.0,10010,kill,1.0,5700.0,10.1621731796
317,3_21_1,21,1.0,1624.00649439,3_D,test,01,5,18.0,11110,ignore,1.0,5800.0,4.83958376097
318,3_21_1,21,1.0,1632.27250026,3_D,test,01,5,19.0,11101,kill,1.0,5900.0,6.28924539437
319,3_21_1,21,1.0,1637.97593877,3_D,test,01,5,20.0,11001,kill,1.0,6000.0,3.76990108791
320,3_21_1,21,1.0,1644.53880824,3_D,test,01,5,21.0,10001,kill,1.0,6100.0,4.65872151948
321,3_21_1,21,1.0,1650.72659529,3_D,test,01,5,22.0,00001,ignore,1.0,6200.0,4.23693135167
322,3_21_1,21,1.0,1654.3361661,3_D,test,01,5,23.0,11001,kill,1.0,6300.0,1.73936438395
323,3_21_1,21,1.0,1658.35514221,3_D,test,01,5,24.0,00010,ignore,1.0,6400.0,2.11035433879
324,3_21_1,21,1.0,1663.40227235,3_D,test,01,5,25.0,11110,ignore,1.0,6500.0,3.12214906091
325,3_21_1,21,1.0,1667.65251129,3_D,test,01,6,0.0,10011,kill,1.0,6600.0,2.37409619233
326,3_21_1,21,1.0,1672.63713116,3_D,test,01,6,1.0,10010,kill,1.0,6700.0,3.09599508647
327,3_21_1,21,1.0,1676.4185396,3_D,test,01,6,2.0,00110,ignore,1.0,6800.0,1.85891010674
328,3_21_1,21,1.0,1693.52883589,3_D,test,01,6,3.0,10110,ignore,1.0,6900.0,15.2019516216
329,3_21_1,21,1.0,1712.73292932,3_D,test,01,6,4.0,11101,kill,0.0,6800.0,17.2787877816
330,3_21_1,21,1.0,1727.85867886,3_D,test,01,6,5.0,00000,ignore,0.0,6700.0,13.232897252
331,3_21_1,21,1.0,1731.56203014,3_D,test,01,6,6.0,01010,kill,1.0,6800.0,1.73303356083
332,3_21_1,21,1.0,1734.56213694,3_D,test,01,6,7.0,01011,ignore,0.0,6700.0,1.07929869913
333,3_21_1,21,1.0,1754.25067994,3_D,test,01,6,8.0,00011,ignore,0.0,6600.0,17.8063308231
334,3_21_1,21,1.0,1757.98525555,3_D,test,01,6,9.0,11000,ignore,1.0,6700.0,1.80119470673
335,3_21_1,21,1.0,1761.28230968,3_D,test,01,6,10.0,10100,ignore,1.0,6800.0,1.40299109663
336,3_21_1,21,1.0,1764.61059873,3_D,test,01,6,11.0,01101,ignore,1.0,6900.0,1.36063689896
337,3_21_1,21,1.0,1768.56195701,3_D,test,01,6,12.0,00111,kill,0.0,6800.0,2.01065646328
338,3_21_1,21,1.0,1780.92199223,3_D,test,01,6,13.0,00101,kill,0.0,6700.0,10.4586855981
339,3_21_1,21,1.0,1802.64184039,3_D,test,01,6,14.0,01111,ignore,1.0,6800.0,19.7930504952
340,3_21_1,21,1.0,1808.8921624,3_D,test,01,6,15.0,01100,ignore,1.0,6900.0,4.37378348386
341,3_21_1,21,1.0,1813.6111568,3_D,test,01,6,16.0,11010,kill,1.0,7000.0,2.82170132653
342,3_21_1,21,1.0,1824.65860798,3_D,test,01,6,17.0,10000,kill,0.0,6900.0,9.10725515728
343,3_21_1,21,1.0,1842.37824255,3_D,test,01,6,18.0,10101,ignore,1.0,7000.0,15.8267534125
344,3_21_1,21,1.0,1847.46223636,3_D,test,01,6,19.0,11011,kill,1.0,7100.0,3.20810123416
345,3_21_1,21,1.0,1853.30629394,3_D,test,01,6,20.0,11111,ignore,1.0,7200.0,3.90256998255
346,3_21_1,21,1.0,1857.8690316,3_D,test,01,6,21.0,01110,ignore,1.0,7300.0,2.67406989275
347,3_21_1,21,1.0,1861.29320925,3_D,test,01,6,22.0,01001,ignore,0.0,7200.0,1.48594704162
348,3_21_1,21,1.0,1885.18506665,3_D,test,01,6,23.0,00100,kill,0.0,7100.0,22.0041120362
349,3_21_1,21,1.0,1889.65405912,3_D,test,01,6,24.0,11100,kill,0.0,7000.0,2.5733072048
350,3_21_1,21,1.0,1893.24798199,3_D,test,01,6,25.0,01000,ignore,0.0,6900.0,1.6694604095
351,3_21_1,21,1.0,1902.9828113,3_D,test,01,6,26.0,10111,kill,0.0,6800.0,7.81981352953
352,3_21_1,21,1.0,1908.28312336,3_D,test,01,6,27.0,01000,ignore,0.0,6700.0,3.38167239698
353,3_21_1,21,1.0,1914.4553154,3_D,test,01,6,28.0,10010,ignore,0.0,6600.0,4.31202596603
354,3_21_1,21,1.0,1918.03362466,3_D,test,01,6,29.0,01100,ignore,1.0,6700.0,1.61616654693
355,3_21_1,21,1.0,1920.95566692,3_D,test,01,6,30.0,00001,kill,1.0,6800.0,0.983208356853
356,3_21_1,21,1.0,1923.95579104,3_D,test,01,6,31.0,11011,ignore,0.0,6700.0,1.11430537025
357,3_21_1,21,1.0,1929.50307833,3_D,test,01,6,32.0,00011,kill,1.0,6800.0,3.60568904911
358,3_21_1,21,1.0,1934.39704579,3_D,test,01,6,33.0,11000,ignore,1.0,6900.0,3.04630587058
359,3_21_1,21,1.0,1938.18191198,3_D,test,01,6,34.0,01111,ignore,1.0,7000.0,1.83484534561
360,3_21_1,21,1.0,1941.47891928,3_D,test,01,6,35.0,00010,kill,1.0,7100.0,1.34444533535
361,3_21_1,21,1.0,1944.30723142,3_D,test,01,6,36.0,01110,ignore,1.0,7200.0,0.957112754657
362,3_21_1,21,1.0,1947.40112767,3_D,test,01,6,37.0,10000,kill,0.0,7100.0,1.1511991969
363,3_21_1,21,1.0,1958.15163442,3_D,test,01,6,38.0,01010,ignore,0.0,7000.0,8.91697798532
364,3_21_1,21,1.0,1970.76171646,3_D,test,01,6,39.0,10101,kill,0.0,6900.0,10.6912236363
365,3_21_1,21,1.0,1995.91922468,3_D,test,01,6,40.0,10110,kill,0.0,6800.0,23.2240570637
366,3_21_1,21,1.0,2008.46671403,3_D,test,01,6,41.0,00111,ignore,1.0,6900.0,10.6725134064
367,3_21_1,21,1.0,2026.34335935,3_D,test,01,6,42.0,11010,kill,1.0,7000.0,16.008553138
368,3_21_1,21,1.0,2036.92519885,3_D,test,01,6,43.0,11100,ignore,1.0,7100.0,8.66915187048
369,3_21_1,21,1.0,2045.3943613,3_D,test,01,6,44.0,10001,kill,0.0,7000.0,6.55797711295
370,3_21_1,21,1.0,2062.45773464,3_D,test,01,6,45.0,11110,ignore,1.0,7100.0,15.1480435675
371,3_21_1,21,1.0,2067.62986831,3_D,test,01,6,46.0,11101,ignore,1.0,7200.0,3.3020613101
372,3_21_1,21,1.0,2073.44265921,3_D,test,01,6,47.0,00101,kill,0.0,7100.0,3.84683923898
373,3_21_1,21,1.0,2079.28669754,3_D,test,01,6,48.0,11111,ignore,1.0,7200.0,3.92326390671
374,3_21_1,21,1.0,2092.9281056,3_D,test,01,6,49.0,00000,kill,1.0,7300.0,11.7663907348
375,3_21_1,21,1.0,2104.50680582,3_D,test,01,7,0.0,10100,ignore,0.0,7200.0,9.63973867194
376,3_21_1,21,1.0,2119.38253098,3_D,test,01,7,1.0,01011,kill,0.0,7100.0,13.0268002386
377,3_21_1,21,1.0,2142.14932936,3_D,test,01,7,2.0,00110,kill,1.0,7200.0,20.7831015549
378,3_21_1,21,1.0,2148.72780283,3_D,test,01,7,3.0,10111,kill,1.0,7300.0,4.64767473187
379,3_21_1,21,1.0,2153.56244804,3_D,test,01,7,4.0,01101,ignore,1.0,7400.0,2.9576441987
380,3_21_1,21,1.0,2160.46440608,3_D,test,01,7,5.0,00100,kill,1.0,7500.0,4.94965040796
381,3_21_1,21,1.0,2164.51153237,3_D,test,01,7,6.0,11001,ignore,1.0,7600.0,2.18393031252
382,3_21_1,21,1.0,2167.65229801,3_D,test,01,7,7.0,01001,ignore,1.0,7700.0,1.21656456869
