,unique_id,pair_id,sbj_id,wall_time,condition,block,rule_id,rule_num,trial,stimulus,choice,correct,points,reaction_time
0,1_8_2,8,2.0,38.9327593858,1_I,training,03,1_B,1.0,11010,kill,0.0,0.0,5.72122383747
1,1_8_2,8,2.0,46.7456712751,1_I,training,03,1_B,2.0,01000,ignore,1.0,100.0,5.62369723619
2,1_8_2,8,2.0,54.2022600466,1_I,training,03,1_B,3.0,00101,ignore,0.0,0.0,5.20820245997
3,1_8_2,8,2.0,68.5467217378,1_I,training,03,1_B,4.0,11100,kill,1.0,100.0,12.2126579358
4,1_8_2,8,2.0,86.5319804473,1_I,training,03,1_B,5.0,10111,ignore,1.0,200.0,15.8323549733
5,1_8_2,8,2.0,91.7666000651,1_I,training,03,1_B,6.0,10000,kill,1.0,300.0,3.08597758756
6,1_8_2,8,2.0,97.8606839667,1_I,training,03,1_B,7.0,10011,kill,0.0,200.0,3.96748648024
7,1_8_2,8,2.0,103.083502916,1_I,training,03,1_B,8.0,10100,kill,1.0,300.0,3.0942144499
8,1_8_2,8,2.0,116.227321226,1_I,training,03,1_B,9.0,10110,ignore,1.0,400.0,11.0122933036
9,1_8_2,8,2.0,120.527580393,1_I,training,03,1_B,10.0,00000,ignore,0.0,300.0,2.18102623324
10,1_8_2,8,2.0,125.621666347,1_I,training,03,1_B,11.0,11001,kill,0.0,200.0,2.97004531013
11,1_8_2,8,2.0,130.543783989,1_I,training,03,1_B,12.0,00100,ignore,0.0,100.0,2.65773956752
12,1_8_2,8,2.0,138.0910505,1_I,training,03,1_B,13.0,11110,ignore,1.0,200.0,5.39010435247
13,1_8_2,8,2.0,149.372846927,1_I,training,03,1_B,14.0,10010,kill,0.0,100.0,9.14850901872
14,1_8_2,8,2.0,157.551490858,1_I,training,03,1_B,15.0,11011,ignore,1.0,200.0,6.01015608739
15,1_8_2,8,2.0,164.442597518,1_I,training,03,1_B,16.0,01001,ignore,1.0,300.0,4.79499638529
16,1_8_2,8,2.0,169.458496502,1_I,training,03,1_B,17.0,11111,ignore,1.0,400.0,2.90741206768
17,1_8_2,8,2.0,174.099308299,1_I,training,03,1_B,18.0,00110,kill,0.0,300.0,2.52442424275
18,1_8_2,8,2.0,183.3873497,1_I,training,03,1_B,19.0,01101,kill,1.0,400.0,7.16916316451
19,1_8_2,8,2.0,189.108808771,1_I,training,03,1_B,20.0,01111,ignore,1.0,500.0,3.61853072341
20,1_8_2,8,2.0,197.718627239,1_I,training,03,1_B,21.0,00010,ignore,1.0,600.0,6.48574744476
21,1_8_2,8,2.0,204.021528573,1_I,training,03,1_B,22.0,10101,ignore,0.0,500.0,4.17980983456
22,1_8_2,8,2.0,210.287494576,1_I,training,03,1_B,23.0,01010,kill,0.0,400.0,4.17233122006
23,1_8_2,8,2.0,215.900249971,1_I,training,03,1_B,24.0,01011,kill,0.0,300.0,3.50292399581
24,1_8_2,8,2.0,222.791274526,1_I,training,03,1_B,25.0,00011,ignore,1.0,400.0,4.77398836313
25,1_8_2,8,2.0,226.200794046,1_I,training,03,1_B,26.0,01110,ignore,1.0,500.0,1.30432422957
26,1_8_2,8,2.0,231.404183049,1_I,training,03,1_B,27.0,11101,kill,1.0,600.0,3.09926806709
27,1_8_2,8,2.0,236.107545161,1_I,training,03,1_B,28.0,00001,ignore,0.0,500.0,2.56210673847
28,1_8_2,8,2.0,240.420270054,1_I,training,03,1_B,29.0,11000,ignore,1.0,600.0,2.1944328926
29,1_8_2,8,2.0,244.1704395,1_I,training,03,1_B,30.0,01100,ignore,0.0,500.0,1.61986124927
30,1_8_2,8,2.0,249.564404061,1_I,training,03,1_B,31.0,10001,ignore,0.0,400.0,3.18634915774
31,1_8_2,8,2.0,259.324284991,1_I,training,03,1_B,32.0,00111,ignore,1.0,500.0,7.64153186591
32,1_8_2,8,2.0,272.731207092,1_I,training,03,1_B,33.0,10000,ignore,0.0,400.0,11.2798106967
33,1_8_2,8,2.0,276.82837448,1_I,training,03,1_B,34.0,00000,ignore,0.0,300.0,1.96550526525
34,1_8_2,8,2.0,280.119197628,1_I,training,03,1_B,35.0,01110,ignore,1.0,400.0,1.12061641814
35,1_8_2,8,2.0,283.835010278,1_I,training,03,1_B,36.0,10111,ignore,1.0,500.0,1.58669498772
36,1_8_2,8,2.0,287.350860613,1_I,training,03,1_B,37.0,11011,ignore,1.0,600.0,1.41491223497
37,1_8_2,8,2.0,296.135656574,1_I,training,03,1_B,38.0,11010,kill,0.0,500.0,6.65516924281
38,1_8_2,8,2.0,300.412490522,1_I,training,03,1_B,39.0,01100,ignore,0.0,400.0,2.18166296438
39,1_8_2,8,2.0,306.03773997,1_I,training,03,1_B,40.0,01000,ignore,1.0,500.0,3.48718593986
40,1_8_2,8,2.0,312.522441796,1_I,training,03,1_B,41.0,11101,ignore,0.0,400.0,4.40092426594
41,1_8_2,8,2.0,316.807113161,1_I,training,03,1_B,42.0,11000,ignore,1.0,500.0,2.1903251352
42,1_8_2,8,2.0,322.779314982,1_I,training,03,1_B,43.0,10011,kill,0.0,400.0,3.8768181835
43,1_8_2,8,2.0,328.779624932,1_I,training,03,1_B,44.0,00101,ignore,0.0,300.0,3.86452159569
44,1_8_2,8,2.0,333.129444443,1_I,training,03,1_B,45.0,11100,ignore,0.0,200.0,2.24338401045
45,1_8_2,8,2.0,336.917272163,1_I,training,03,1_B,46.0,00001,ignore,0.0,100.0,1.69559202243
46,1_8_2,8,2.0,339.814379121,1_I,training,03,1_B,47.0,00011,ignore,1.0,200.0,0.76784479032
47,1_8_2,8,2.0,344.439585464,1_I,training,03,1_B,48.0,00110,ignore,1.0,300.0,2.49030144765
48,1_8_2,8,2.0,348.814853693,1_I,training,03,1_B,49.0,01001,ignore,1.0,400.0,2.23814031814
49,1_8_2,8,2.0,353.580697974,1_I,training,03,1_B,50.0,01111,ignore,1.0,500.0,2.63946238709
50,1_8_2,8,2.0,358.784054955,1_I,training,03,1_B,51.0,11110,ignore,1.0,600.0,3.09178001042
51,1_8_2,8,2.0,362.893664258,1_I,training,03,1_B,52.0,11111,kill,0.0,500.0,1.98832002739
52,1_8_2,8,2.0,367.909513568,1_I,training,03,1_B,53.0,00111,kill,0.0,400.0,2.89523617552
53,1_8_2,8,2.0,401.536203974,1_I,training,03,1_B,54.0,11001,,,300.0,
54,1_8_2,8,2.0,411.192941439,1_I,training,03,1_B,55.0,00010,ignore,1.0,400.0,7.50772595847
55,1_8_2,8,2.0,416.599479695,1_I,training,03,1_B,56.0,01010,ignore,1.0,500.0,3.29043068231
56,1_8_2,8,2.0,420.990293442,1_I,training,03,1_B,57.0,10101,kill,1.0,600.0,2.25850257751
57,1_8_2,8,2.0,424.896739945,1_I,training,03,1_B,58.0,10110,ignore,1.0,700.0,1.77582876654
58,1_8_2,8,2.0,431.881473998,1_I,training,03,1_B,59.0,01011,kill,0.0,600.0,4.8886180307
59,1_8_2,8,2.0,436.850479847,1_I,training,03,1_B,60.0,10010,ignore,1.0,700.0,2.8552025778
60,1_8_2,8,2.0,443.272656811,1_I,training,03,1_B,61.0,10100,kill,1.0,800.0,4.28750853388
61,1_8_2,8,2.0,447.663544043,1_I,training,03,1_B,62.0,00100,ignore,0.0,700.0,2.26332752982
62,1_8_2,8,2.0,451.929324897,1_I,training,03,1_B,63.0,10001,ignore,0.0,600.0,2.14240567779
63,1_8_2,8,2.0,457.117077655,1_I,training,03,1_B,64.0,01101,kill,1.0,700.0,3.06625411197
64,1_8_2,8,2.0,460.523503425,1_I,training,03,1_B,65.0,10110,ignore,1.0,800.0,1.26489739433
65,1_8_2,8,2.0,465.445613678,1_I,training,03,1_B,66.0,01000,ignore,1.0,900.0,2.7863305197
66,1_8_2,8,2.0,470.89904712,1_I,training,03,1_B,67.0,11001,kill,0.0,800.0,3.34544737239
67,1_8_2,8,2.0,474.180416187,1_I,training,03,1_B,68.0,01011,ignore,1.0,900.0,1.15648519487
68,1_8_2,8,2.0,478.13376116,1_I,training,03,1_B,69.0,00011,ignore,1.0,1000.0,1.81874510187
69,1_8_2,8,2.0,485.180983949,1_I,training,03,1_B,70.0,11100,ignore,0.0,900.0,4.91786332572
70,1_8_2,8,2.0,492.8844996,1_I,training,03,1_B,71.0,01110,ignore,1.0,1000.0,5.56658643553
71,1_8_2,8,2.0,498.119146723,1_I,training,03,1_B,72.0,01001,ignore,1.0,1100.0,3.10018724247
72,1_8_2,8,2.0,504.169452177,1_I,training,03,1_B,73.0,01100,kill,1.0,1200.0,3.92184915589
73,1_8_2,8,2.0,507.10714859,1_I,training,03,1_B,74.0,00100,kill,1.0,1300.0,0.78832322952
74,1_8_2,8,2.0,510.904175454,1_I,training,03,1_B,75.0,10011,ignore,1.0,1400.0,1.67788096207
75,1_8_2,8,2.0,517.860801789,1_I,training,03,1_B,76.0,10010,ignore,1.0,1500.0,4.83897147601
76,1_8_2,8,2.0,524.064257707,1_I,training,03,1_B,77.0,01101,ignore,0.0,1400.0,4.10846392616
77,1_8_2,8,2.0,529.267669289,1_I,training,03,1_B,78.0,10001,ignore,0.0,1300.0,3.05301002225
78,1_8_2,8,2.0,533.080356619,1_I,training,03,1_B,79.0,11110,ignore,1.0,1400.0,1.69132415855
79,1_8_2,8,2.0,536.517974826,1_I,training,03,1_B,80.0,10000,ignore,0.0,1300.0,1.29501711702
80,1_8_2,8,2.0,541.971431668,1_I,training,03,1_B,81.0,00110,kill,0.0,1200.0,3.305174436
81,1_8_2,8,2.0,545.830984216,1_I,training,03,1_B,82.0,00001,ignore,0.0,1100.0,1.7232641687
82,1_8_2,8,2.0,549.503004049,1_I,training,03,1_B,83.0,00000,ignore,0.0,1000.0,1.52218603633
83,1_8_2,8,2.0,554.6438842,1_I,training,03,1_B,84.0,00101,kill,1.0,1100.0,2.98607484198
84,1_8_2,8,2.0,557.753440544,1_I,training,03,1_B,85.0,11011,ignore,1.0,1200.0,1.0210938228
85,1_8_2,8,2.0,564.519421121,1_I,training,03,1_B,86.0,01111,ignore,1.0,1300.0,4.65591763795
86,1_8_2,8,2.0,574.629272226,1_I,training,03,1_B,87.0,11000,ignore,1.0,1400.0,8.01504549282
87,1_8_2,8,2.0,581.332752161,1_I,training,03,1_B,88.0,11101,ignore,0.0,1300.0,4.56540657397
88,1_8_2,8,2.0,589.458162331,1_I,training,03,1_B,89.0,10100,ignore,0.0,1200.0,5.96589855243
89,1_8_2,8,2.0,595.083399873,1_I,training,03,1_B,90.0,01010,kill,0.0,1100.0,3.50791931783
90,1_8_2,8,2.0,598.239834163,1_I,training,03,1_B,91.0,11111,ignore,1.0,1200.0,1.0164125558
91,1_8_2,8,2.0,606.505849018,1_I,training,03,1_B,92.0,11010,ignore,1.0,1300.0,6.13836278403
92,1_8_2,8,2.0,611.584242074,1_I,training,03,1_B,93.0,10101,kill,1.0,1400.0,2.96442844657
93,1_8_2,8,2.0,616.834465505,1_I,training,03,1_B,94.0,00010,ignore,1.0,1500.0,3.12154134093
94,1_8_2,8,2.0,626.991289387,1_I,training,03,1_B,95.0,10111,kill,0.0,1400.0,8.02163818482
95,1_8_2,8,2.0,631.819599414,1_I,training,03,1_B,96.0,00111,kill,0.0,1300.0,2.69286487547
96,1_8_2,8,2.0,636.116676978,1_I,training,03,1_B,97.0,11100,kill,1.0,1400.0,2.15518710084
97,1_8_2,8,2.0,640.023131691,1_I,training,03,1_B,98.0,11000,ignore,1.0,1500.0,1.79500418535
98,1_8_2,8,2.0,644.304587379,1_I,training,03,1_B,99.0,10000,kill,1.0,1600.0,2.16513587087
99,1_8_2,8,2.0,647.867305806,1_I,training,03,1_B,100.0,00001,ignore,0.0,1500.0,1.45835815326
100,1_8_2,8,2.0,652.226883191,1_I,training,03,1_B,101.0,01101,ignore,0.0,1400.0,2.230792252
101,1_8_2,8,2.0,657.289644929,1_I,training,03,1_B,102.0,11110,ignore,1.0,1500.0,2.96439314104
102,1_8_2,8,2.0,663.133721338,1_I,training,03,1_B,103.0,01000,kill,0.0,1400.0,3.75229393578
103,1_8_2,8,2.0,671.806000626,1_I,training,03,1_B,104.0,00011,ignore,1.0,1500.0,6.56570297622
104,1_8_2,8,2.0,676.774971992,1_I,training,03,1_B,105.0,01100,kill,1.0,1600.0,2.86743512301
105,1_8_2,8,2.0,682.697146287,1_I,training,03,1_B,106.0,10111,ignore,1.0,1700.0,3.78614454987
106,1_8_2,8,2.0,688.025521793,1_I,training,03,1_B,107.0,00111,kill,0.0,1600.0,3.20459226423
107,1_8_2,8,2.0,691.244441534,1_I,training,03,1_B,108.0,11010,ignore,1.0,1700.0,1.13046378741
108,1_8_2,8,2.0,701.151172944,1_I,training,03,1_B,109.0,10010,ignore,1.0,1800.0,7.73764911968
109,1_8_2,8,2.0,710.932915387,1_I,training,03,1_B,110.0,10100,kill,1.0,1900.0,7.68339929857
110,1_8_2,8,2.0,715.917535313,1_I,training,03,1_B,111.0,00010,ignore,1.0,2000.0,2.86262782347
111,1_8_2,8,2.0,722.058472937,1_I,training,03,1_B,112.0,01010,ignore,1.0,2100.0,4.02124818187
112,1_8_2,8,2.0,726.183651158,1_I,training,03,1_B,113.0,00100,kill,1.0,2200.0,1.99016823085
113,1_8_2,8,2.0,731.293294946,1_I,training,03,1_B,114.0,10101,kill,1.0,2300.0,2.96402694879
114,1_8_2,8,2.0,735.35597622,1_I,training,03,1_B,115.0,01011,ignore,1.0,2400.0,1.9458187373
115,1_8_2,8,2.0,738.778038236,1_I,training,03,1_B,116.0,11011,ignore,1.0,2500.0,1.30841392368
116,1_8_2,8,2.0,743.059527177,1_I,training,03,1_B,117.0,11101,kill,1.0,2600.0,2.13929673847
117,1_8_2,8,2.0,747.358179942,1_I,training,03,1_B,118.0,10001,ignore,0.0,2500.0,2.1745989846
118,1_8_2,8,2.0,752.552711773,1_I,training,03,1_B,119.0,11001,kill,0.0,2400.0,3.08261206735
119,1_8_2,8,2.0,755.743518048,1_I,training,03,1_B,120.0,01001,ignore,1.0,2500.0,1.08926305453
120,1_8_2,8,2.0,758.783667005,1_I,training,03,1_B,121.0,11111,ignore,1.0,2600.0,0.900946639796
121,1_8_2,8,2.0,762.908905984,1_I,training,03,1_B,122.0,00101,kill,1.0,2700.0,1.99891702338
122,1_8_2,8,2.0,766.346604655,1_I,training,03,1_B,123.0,01111,ignore,1.0,2800.0,1.33525392682
123,1_8_2,8,2.0,772.815674342,1_I,training,03,1_B,124.0,01110,ignore,1.0,2900.0,4.363901491
124,1_8_2,8,2.0,776.815891101,1_I,training,03,1_B,125.0,00110,ignore,1.0,3000.0,1.8594958945
125,1_8_2,8,2.0,782.988038404,1_I,training,03,1_B,126.0,10110,ignore,1.0,3100.0,4.05227024823
126,1_8_2,8,2.0,787.050789879,1_I,training,03,1_B,127.0,10011,ignore,1.0,3200.0,1.95404985223
127,1_8_2,8,2.0,792.302346299,1_I,training,03,1_B,128.0,00000,kill,1.0,3300.0,3.07807982252
128,1_8_2,8,2.0,796.083784539,1_I,training,03,1_B,129.0,10100,kill,1.0,3400.0,1.64031669882
129,1_8_2,8,2.0,799.274287023,1_I,training,03,1_B,130.0,11010,ignore,1.0,3500.0,1.05445631741
130,1_8_2,8,2.0,805.89961283,1_I,training,03,1_B,131.0,01100,kill,1.0,3600.0,4.51876386307
131,1_8_2,8,2.0,812.071786406,1_I,training,03,1_B,132.0,00101,kill,1.0,3700.0,3.9876615382
132,1_8_2,8,2.0,817.606461569,1_I,training,03,1_B,133.0,11110,ignore,1.0,3800.0,3.44016841559
133,1_8_2,8,2.0,822.578584158,1_I,training,03,1_B,134.0,10111,ignore,1.0,3900.0,2.87345964229
134,1_8_2,8,2.0,826.656930414,1_I,training,03,1_B,135.0,01101,kill,1.0,4000.0,1.94563235694
135,1_8_2,8,2.0,836.50122112,1_I,training,03,1_B,136.0,01001,kill,0.0,3900.0,7.7420109948
136,1_8_2,8,2.0,839.704438931,1_I,training,03,1_B,137.0,01011,ignore,1.0,4000.0,1.06890243727
137,1_8_2,8,2.0,842.892162542,1_I,training,03,1_B,138.0,10011,ignore,1.0,4100.0,0.948158755012
138,1_8_2,8,2.0,939.76331583,1_I,test,03,2,0.0,00001,ignore,0.0,0.0,1.94441472668
139,1_8_2,8,2.0,942.997903016,1_I,test,03,2,1.0,10010,ignore,1.0,100.0,1.11923129187
140,1_8_2,8,2.0,947.732467417,1_I,test,03,2,2.0,10000,kill,0.0,0.0,2.63277034697
141,1_8_2,8,2.0,950.888876664,1_I,test,03,2,3.0,11111,ignore,0.0,0.0,1.04801264759
142,1_8_2,8,2.0,958.311148871,1_I,test,03,2,4.0,00000,kill,0.0,0.0,5.29988722757
143,1_8_2,8,2.0,962.905113924,1_I,test,03,2,5.0,11000,ignore,1.0,100.0,2.48503189198
144,1_8_2,8,2.0,965.952155669,1_I,test,03,2,6.0,01010,ignore,1.0,200.0,0.960929093769
145,1_8_2,8,2.0,974.140038976,1_I,test,03,2,7.0,11100,kill,0.0,100.0,6.07162671052
146,1_8_2,8,2.0,978.952782548,1_I,test,03,2,8.0,01000,kill,0.0,0.0,2.62148325102
147,1_8_2,8,2.0,981.906050342,1_I,test,03,2,9.0,00011,ignore,0.0,0.0,0.825712196706
148,1_8_2,8,2.0,984.984344871,1_I,test,03,2,10.0,00010,ignore,1.0,100.0,0.967370710942
149,1_8_2,8,2.0,988.890762226,1_I,test,03,2,11.0,10001,kill,1.0,200.0,1.76635046322
150,1_8_2,8,2.0,993.312883768,1_I,test,03,2,12.0,11101,kill,0.0,100.0,2.27042106771
151,1_8_2,8,2.0,996.187987991,1_I,test,03,2,13.0,11011,ignore,0.0,0.0,0.76263804565
152,1_8_2,8,2.0,999.578792707,1_I,test,03,2,14.0,00110,ignore,1.0,100.0,1.2558542522
153,1_8_2,8,2.0,1002.40704362,1_I,test,03,2,15.0,01110,ignore,1.0,200.0,0.726116937664
154,1_8_2,8,2.0,1005.90723102,1_I,test,03,2,16.0,11001,kill,1.0,300.0,1.35194892686
155,1_8_2,8,2.0,1010.62626058,1_I,test,03,2,17.0,00100,ignore,1.0,400.0,2.57540337595
156,1_8_2,8,2.0,1016.54838767,1_I,test,03,2,18.0,01111,kill,1.0,500.0,3.85092527174
157,1_8_2,8,2.0,1020.11107818,1_I,test,03,2,19.0,10110,kill,0.0,400.0,1.31791891141
158,1_8_2,8,2.0,1023.92374827,1_I,test,03,2,20.0,00111,kill,1.0,500.0,1.58730092915
159,1_8_2,8,2.0,1029.28339133,1_I,test,03,2,21.0,10101,kill,0.0,400.0,3.22665698912
160,1_8_2,8,2.0,1032.8148619,1_I,test,03,2,22.0,10111,kill,1.0,500.0,1.40678375239
161,1_8_2,8,2.0,1037.97132986,1_I,test,03,2,23.0,01100,ignore,1.0,600.0,3.06053379499
162,1_8_2,8,2.0,1043.45600623,1_I,test,03,2,24.0,00101,ignore,1.0,700.0,3.38058581728
163,1_8_2,8,2.0,1047.40932123,1_I,test,03,2,25.0,10001,ignore,0.0,600.0,1.8406513624
164,1_8_2,8,2.0,1058.84734997,1_I,test,03,2,26.0,11100,ignore,1.0,700.0,9.3303883321
165,1_8_2,8,2.0,1065.94146795,1_I,test,03,2,27.0,11011,kill,1.0,800.0,4.97529187616
166,1_8_2,8,2.0,1069.28540375,1_I,test,03,2,28.0,00000,ignore,1.0,900.0,1.23314048029
167,1_8_2,8,2.0,1075.77008669,1_I,test,03,2,29.0,10110,ignore,1.0,1000.0,4.36833931406
168,1_8_2,8,2.0,1079.34840934,1_I,test,03,2,30.0,01000,ignore,1.0,1100.0,1.46378986805
169,1_8_2,8,2.0,1082.53607425,1_I,test,03,2,31.0,11110,ignore,1.0,1200.0,1.09062067533
170,1_8_2,8,2.0,1087.59881587,1_I,test,03,2,32.0,10101,kill,0.0,1100.0,2.94763697212
171,1_8_2,8,2.0,1092.89596569,1_I,test,03,2,33.0,10000,ignore,1.0,1200.0,3.21107698699
172,1_8_2,8,2.0,1097.78683054,1_I,test,03,2,34.0,00110,kill,0.0,1100.0,2.7479702399
173,1_8_2,8,2.0,1101.72449781,1_I,test,03,2,35.0,00011,kill,1.0,1200.0,1.80649490389
174,1_8_2,8,2.0,1106.39660632,1_I,test,03,2,36.0,11000,ignore,1.0,1300.0,2.55064927281
175,1_8_2,8,2.0,1110.17809382,1_I,test,03,2,37.0,11111,kill,1.0,1400.0,1.66384701375
176,1_8_2,8,2.0,1114.78762287,1_I,test,03,2,38.0,01001,ignore,0.0,1300.0,2.48828697977
177,1_8_2,8,2.0,1117.99092525,1_I,test,03,2,39.0,00001,kill,1.0,1400.0,1.08243307652
178,1_8_2,8,2.0,1123.78812289,1_I,test,03,2,40.0,01010,ignore,1.0,1500.0,3.69762989048
179,1_8_2,8,2.0,1128.41335099,1_I,test,03,2,41.0,01101,ignore,1.0,1600.0,2.53281997997
180,1_8_2,8,2.0,1133.8979859,1_I,test,03,2,42.0,11010,ignore,1.0,1700.0,3.38390741084
181,1_8_2,8,2.0,1140.5389225,1_I,test,03,2,43.0,01011,kill,1.0,1800.0,4.55679900356
182,1_8_2,8,2.0,1148.25804237,1_I,test,03,2,44.0,00111,kill,1.0,1900.0,5.58794381823
183,1_8_2,8,2.0,1154.39901613,1_I,test,03,2,45.0,10011,kill,1.0,2000.0,4.03293225977
184,1_8_2,8,2.0,1157.63356185,1_I,test,03,2,46.0,00010,ignore,1.0,2100.0,1.135243992
185,1_8_2,8,2.0,1162.43065891,1_I,test,03,2,47.0,11101,kill,0.0,2000.0,2.67054439075
186,1_8_2,8,2.0,1166.29019791,1_I,test,03,2,48.0,01110,ignore,1.0,2100.0,1.74305373953
187,1_8_2,8,2.0,1171.16547086,1_I,test,03,2,49.0,11001,kill,1.0,2200.0,2.76241923347
188,1_8_2,8,2.0,1174.55627188,1_I,test,03,2,50.0,10010,ignore,1.0,2300.0,1.25152480891
189,1_8_2,8,2.0,1178.40021077,1_I,test,03,2,51.0,00100,ignore,1.0,2400.0,1.72024513533
190,1_8_2,8,2.0,1183.08787998,1_I,test,03,2,52.0,01111,kill,1.0,2500.0,2.5452089369
191,1_8_2,8,2.0,1191.55706954,1_I,test,03,2,53.0,10100,kill,0.0,2400.0,6.33488362928
192,1_8_2,8,2.0,1195.32294174,1_I,test,03,2,54.0,01000,ignore,1.0,2500.0,1.66464672506
193,1_8_2,8,2.0,1200.43255186,1_I,test,03,2,55.0,11001,ignore,0.0,2400.0,2.989137802
194,1_8_2,8,2.0,1204.68277201,1_I,test,03,2,56.0,10000,ignore,1.0,2500.0,2.15309381131
195,1_8_2,8,2.0,1212.948761,1_I,test,03,2,57.0,00100,ignore,1.0,2600.0,6.08851424886
196,1_8_2,8,2.0,1216.62080752,1_I,test,03,2,58.0,00000,ignore,1.0,2700.0,1.56756349556
197,1_8_2,8,2.0,1219.74602105,1_I,test,03,2,59.0,01100,ignore,1.0,2800.0,1.01888722716
198,1_8_2,8,2.0,1223.13679538,1_I,test,03,2,60.0,01110,ignore,1.0,2900.0,1.27198190058
199,1_8_2,8,2.0,1227.12136851,1_I,test,03,2,61.0,11100,ignore,1.0,3000.0,1.90848478106
200,1_8_2,8,2.0,1230.0590251,1_I,test,03,2,62.0,00010,ignore,1.0,3100.0,0.820707432512
201,1_8_2,8,2.0,1235.4968108,1_I,test,03,2,63.0,01101,ignore,1.0,3200.0,3.30360128726
202,1_8_2,8,2.0,1238.84071705,1_I,test,03,2,64.0,11011,kill,1.0,3300.0,1.24407821571
203,1_8_2,8,2.0,1242.04398289,1_I,test,03,2,65.0,11110,ignore,1.0,3400.0,1.14045853673
204,1_8_2,8,2.0,1245.24728445,1_I,test,03,3,0.0,10110,ignore,0.0,3300.0,1.10757759314
205,1_8_2,8,2.0,1249.68496424,1_I,test,03,3,1.0,11010,ignore,0.0,3200.0,2.33541157011
206,1_8_2,8,2.0,1253.8883048,1_I,test,03,3,2.0,00111,ignore,1.0,3300.0,2.07461454366
207,1_8_2,8,2.0,1256.84156807,1_I,test,03,3,3.0,10010,kill,1.0,3400.0,0.856889443195
208,1_8_2,8,2.0,1260.73240296,1_I,test,03,3,4.0,01001,ignore,1.0,3500.0,1.76497683177
209,1_8_2,8,2.0,1267.56087022,1_I,test,03,3,5.0,10111,ignore,1.0,3600.0,4.71553020491
210,1_8_2,8,2.0,1270.57661977,1_I,test,03,3,6.0,01011,ignore,1.0,3700.0,0.917508217773
211,1_8_2,8,2.0,1273.57682176,1_I,test,03,3,7.0,00110,kill,0.0,3600.0,0.869888857369
212,1_8_2,8,2.0,1277.48324157,1_I,test,03,3,8.0,00101,ignore,1.0,3700.0,1.79276679999
213,1_8_2,8,2.0,1281.01468751,1_I,test,03,3,9.0,01111,ignore,1.0,3800.0,1.38715100381
214,1_8_2,8,2.0,1285.15550772,1_I,test,03,3,10.0,10100,kill,1.0,3900.0,2.01554223342
215,1_8_2,8,2.0,1289.0462991,1_I,test,03,3,11.0,10001,ignore,1.0,4000.0,1.76975334161
216,1_8_2,8,2.0,1292.6246431,1_I,test,03,3,12.0,00011,ignore,1.0,4100.0,1.45856629168
217,1_8_2,8,2.0,1296.23416352,1_I,test,03,3,13.0,01010,kill,0.0,4000.0,1.50439615432
218,1_8_2,8,2.0,1299.92185326,1_I,test,03,3,14.0,11111,ignore,0.0,3900.0,1.61592960898
219,1_8_2,8,2.0,1303.21889963,1_I,test,03,3,15.0,10101,ignore,1.0,4000.0,1.13956850895
220,1_8_2,8,2.0,1311.21929373,1_I,test,03,3,16.0,11000,kill,1.0,4100.0,5.91328551213
221,1_8_2,8,2.0,1314.65698296,1_I,test,03,3,17.0,10011,ignore,1.0,4200.0,1.28678559157
222,1_8_2,8,2.0,1317.95398499,1_I,test,03,3,18.0,00001,ignore,1.0,4300.0,1.21132002041
223,1_8_2,8,2.0,1321.76666123,1_I,test,03,3,19.0,11101,ignore,0.0,4200.0,1.63634400559
224,1_8_2,8,2.0,1324.92308567,1_I,test,03,3,20.0,10011,ignore,1.0,4300.0,1.00305598102
225,1_8_2,8,2.0,1328.57952468,1_I,test,03,3,21.0,00010,ignore,1.0,4400.0,1.55172609148
226,1_8_2,8,2.0,1331.72031944,1_I,test,03,3,22.0,01010,ignore,1.0,4500.0,1.03695544812
227,1_8_2,8,2.0,1334.87672294,1_I,test,03,3,23.0,01111,ignore,1.0,4600.0,1.03066038995
228,1_8_2,8,2.0,1338.23628883,1_I,test,03,3,24.0,00110,ignore,1.0,4700.0,1.24949925674
229,1_8_2,8,2.0,1341.22078601,1_I,test,03,3,25.0,10010,ignore,0.0,4600.0,0.851034062037
230,1_8_2,8,2.0,1344.98657405,1_I,test,03,3,26.0,01101,kill,0.0,4500.0,1.65816816024
231,1_8_2,8,2.0,1348.56488315,1_I,test,03,3,27.0,00101,ignore,1.0,4600.0,1.41608183329
232,1_8_2,8,2.0,1352.1587858,1_I,test,03,3,28.0,11001,kill,1.0,4700.0,1.48009117037
233,1_8_2,8,2.0,1355.69028182,1_I,test,03,3,29.0,11110,ignore,0.0,4600.0,1.31448606437
234,1_8_2,8,2.0,1358.94040426,1_I,test,03,3,30.0,00001,ignore,1.0,4700.0,1.07610024964
235,1_8_2,8,2.0,1363.11247849,1_I,test,03,3,31.0,11011,ignore,0.0,4600.0,2.08614467303
236,1_8_2,8,2.0,1366.17514253,1_I,test,03,3,32.0,00111,ignore,1.0,4700.0,0.90910960684
237,1_8_2,8,2.0,1369.33155547,1_I,test,03,3,33.0,01100,kill,0.0,4600.0,1.01709896099
238,1_8_2,8,2.0,1372.72231461,1_I,test,03,3,34.0,00000,ignore,1.0,4700.0,1.26879701332
239,1_8_2,8,2.0,1375.92566256,1_I,test,03,3,35.0,10101,ignore,1.0,4800.0,1.08110747701
240,1_8_2,8,2.0,1379.16014917,1_I,test,03,3,36.0,11010,ignore,0.0,4700.0,1.16183275113
241,1_8_2,8,2.0,1382.48845078,1_I,test,03,3,37.0,10110,kill,1.0,4800.0,1.20927763653
242,1_8_2,8,2.0,1385.8479711,1_I,test,03,3,38.0,11000,ignore,0.0,4700.0,1.2167028822
243,1_8_2,8,2.0,1389.19191553,1_I,test,03,3,39.0,11100,ignore,0.0,4600.0,1.23300705823
244,1_8_2,8,2.0,1392.27020185,1_I,test,03,3,40.0,01000,kill,0.0,4500.0,0.976138387826
245,1_8_2,8,2.0,1396.00475147,1_I,test,03,3,41.0,10111,ignore,1.0,4600.0,1.58705666414
246,1_8_2,8,2.0,1399.94243351,1_I,test,03,3,42.0,11111,ignore,0.0,4500.0,1.84775557407
247,1_8_2,8,2.0,1405.59895504,1_I,test,03,3,43.0,00100,kill,0.0,4400.0,3.40327126265
248,1_8_2,8,2.0,1408.45856588,1_I,test,03,3,44.0,11101,ignore,0.0,4300.0,0.767234743598
249,1_8_2,8,2.0,1412.78684902,1_I,test,03,3,45.0,01011,ignore,1.0,4400.0,2.19293281809
250,1_8_2,8,2.0,1416.44326997,1_I,test,03,3,46.0,10000,kill,1.0,4500.0,1.52854308445
251,1_8_2,8,2.0,1420.45911681,1_I,test,03,3,47.0,10001,kill,0.0,4400.0,1.9153291276
252,1_8_2,8,2.0,1423.63113521,1_I,test,03,3,48.0,00011,ignore,1.0,4500.0,1.05458111836
253,1_8_2,8,2.0,1432.75658397,1_I,test,03,3,49.0,01110,ignore,1.0,4600.0,7.07156513111
254,1_8_2,8,2.0,1437.64744349,1_I,test,03,3,50.0,10100,kill,1.0,4700.0,2.72456062062
255,1_8_2,8,2.0,1442.96018645,1_I,test,03,3,51.0,01001,kill,0.0,4600.0,3.20001486117
256,1_8_2,8,2.0,1446.06973992,1_I,test,03,3,52.0,11101,ignore,0.0,4500.0,1.0093288706
257,1_8_2,8,2.0,1449.47618663,1_I,test,03,3,53.0,01000,ignore,1.0,4600.0,1.24742074627
258,1_8_2,8,2.0,1453.52322303,1_I,test,03,3,54.0,10111,kill,0.0,4500.0,1.95292048579
259,1_8_2,8,2.0,1457.94531255,1_I,test,03,3,55.0,11100,ignore,0.0,4400.0,2.32238547153
260,1_8_2,8,2.0,1462.28930008,1_I,test,03,3,56.0,01001,ignore,1.0,4500.0,2.19010796513
261,1_8_2,8,2.0,1466.61762961,1_I,test,03,3,57.0,01010,ignore,1.0,4600.0,2.26873666549
262,1_8_2,8,2.0,1470.77407252,1_I,test,03,3,58.0,11011,kill,1.0,4700.0,2.08147243767
263,1_8_2,8,2.0,1477.22756836,1_I,test,03,3,59.0,00001,ignore,1.0,4800.0,4.31758843522
264,1_8_2,8,2.0,1480.66521613,1_I,test,03,3,60.0,11111,kill,1.0,4900.0,1.25380283668
265,1_8_2,8,2.0,1483.96222514,1_I,test,03,3,61.0,00100,ignore,1.0,5000.0,1.09219587672
266,1_8_2,8,2.0,1487.79055446,1_I,test,03,3,62.0,10110,kill,1.0,5100.0,1.71846918505
267,1_8_2,8,2.0,1491.02511988,1_I,test,03,3,63.0,00101,ignore,1.0,5200.0,1.16132944206
268,1_8_2,8,2.0,1494.16590192,1_I,test,03,3,64.0,10100,ignore,0.0,5100.0,1.01044427905
269,1_8_2,8,2.0,1497.4004382,1_I,test,03,3,65.0,01011,kill,0.0,5000.0,1.14124962693
270,1_8_2,8,2.0,1500.50998223,1_I,test,03,3,66.0,00010,ignore,1.0,5100.0,0.970344586081
271,1_8_2,8,2.0,1516.85450796,1_I,test,03,3,67.0,10000,ignore,0.0,5000.0,14.2551822155
272,1_8_2,8,2.0,1524.04232805,1_I,test,03,3,68.0,11001,ignore,0.0,4900.0,5.05316068655
273,1_8_2,8,2.0,1527.35504062,1_I,test,03,3,69.0,10101,ignore,1.0,5000.0,1.19485861161
274,1_8_2,8,2.0,1530.7926773,1_I,test,03,3,70.0,01101,ignore,1.0,5100.0,1.31038815967
275,1_8_2,8,2.0,1534.91789945,1_I,test,03,3,71.0,11010,ignore,0.0,5000.0,2.01027431987
276,1_8_2,8,2.0,1538.35559648,1_I,test,03,3,72.0,00110,ignore,1.0,5100.0,1.34574418516
277,1_8_2,8,2.0,1546.85597232,1_I,test,03,3,73.0,10001,ignore,1.0,5200.0,6.34454461818
278,1_8_2,8,2.0,1549.87178838,1_I,test,03,3,74.0,11110,kill,1.0,5300.0,0.908012261693
279,1_8_2,8,2.0,1555.35640358,1_I,test,03,3,75.0,01110,ignore,1.0,5400.0,3.41365478335
280,1_8_2,8,2.0,1559.29409302,1_I,test,03,3,76.0,11000,kill,1.0,5500.0,1.8217760406
281,1_8_2,8,2.0,1562.82555455,1_I,test,03,3,77.0,00111,ignore,1.0,5600.0,1.44819631845
282,1_8_2,8,2.0,1566.7632173,1_I,test,03,3,78.0,00000,ignore,1.0,5700.0,1.81720766918
283,1_8_2,8,2.0,1570.7477658,1_I,test,03,3,79.0,01111,ignore,1.0,5800.0,1.85945935738
284,1_8_2,8,2.0,1573.71672115,1_I,test,03,3,80.0,10011,kill,0.0,5700.0,0.900135433656
285,1_8_2,8,2.0,1576.65438185,1_I,test,03,3,81.0,10010,kill,1.0,5800.0,0.859185123727
286,1_8_2,8,2.0,1579.76386142,1_I,test,03,3,82.0,01100,ignore,1.0,5900.0,0.970548208676
287,1_8_2,8,2.0,1582.76405519,1_I,test,03,3,83.0,00011,ignore,1.0,6000.0,0.882822586836
288,1_8_2,8,2.0,1585.7329424,1_I,test,03,3,84.0,01010,ignore,1.0,6100.0,0.888711220878
289,1_8_2,8,2.0,1588.9361988,1_I,test,03,3,85.0,10100,kill,1.0,6200.0,1.09564062911
290,1_8_2,8,2.0,1592.21765203,1_I,test,03,3,86.0,00001,ignore,1.0,6300.0,1.11941397746
291,1_8_2,8,2.0,1595.13964528,1_I,test,03,3,87.0,01111,ignore,1.0,6400.0,0.79886521457
292,1_8_2,8,2.0,1598.31168749,1_I,test,03,3,88.0,10010,kill,1.0,6500.0,1.07255532808
293,1_8_2,8,2.0,1601.42116665,1_I,test,03,3,89.0,01110,ignore,1.0,6600.0,0.993993954544
294,1_8_2,8,2.0,1605.10886173,1_I,test,03,3,90.0,01000,ignore,1.0,6700.0,1.60576900577
295,1_8_2,8,2.0,1608.43717155,1_I,test,03,4,0.0,01011,ignore,0.0,6600.0,1.19241924578
296,1_8_2,8,2.0,1611.43732222,1_I,test,03,4,1.0,00111,ignore,0.0,6500.0,0.880652117778
297,1_8_2,8,2.0,1614.40619013,1_I,test,03,4,2.0,01001,kill,0.0,6400.0,0.886669658058
298,1_8_2,8,2.0,1618.42201563,1_I,test,03,4,3.0,00110,ignore,0.0,6300.0,1.88831629157
299,1_8_2,8,2.0,1622.03162185,1_I,test,03,4,4.0,11100,ignore,1.0,6400.0,1.56212644388
300,1_8_2,8,2.0,1624.84422092,1_I,test,03,4,5.0,10101,ignore,1.0,6500.0,0.702112871781
301,1_8_2,8,2.0,1627.98503251,1_I,test,03,4,6.0,00100,kill,0.0,6400.0,1.01694378087
302,1_8_2,8,2.0,1631.06330569,1_I,test,03,4,7.0,11001,ignore,1.0,6500.0,1.028379899
303,1_8_2,8,2.0,1634.45406935,1_I,test,03,4,8.0,10000,ignore,1.0,6600.0,1.28837228779
304,1_8_2,8,2.0,1637.71989865,1_I,test,03,4,9.0,11011,ignore,0.0,6500.0,1.16335540476
305,1_8_2,8,2.0,1641.01694789,1_I,test,03,4,10.0,00000,kill,0.0,6400.0,1.15498019401
306,1_8_2,8,2.0,1644.07960781,1_I,test,03,4,11.0,11000,ignore,1.0,6500.0,0.935634733909
307,1_8_2,8,2.0,1646.95470054,1_I,test,03,4,12.0,11110,ignore,1.0,6600.0,0.826055399304
308,1_8_2,8,2.0,1650.25172186,1_I,test,03,4,13.0,10110,ignore,1.0,6700.0,1.19136829046
309,1_8_2,8,2.0,1654.64257666,1_I,test,03,4,14.0,11101,ignore,1.0,6800.0,1.99094946834
310,1_8_2,8,2.0,1657.61148563,1_I,test,03,4,15.0,00011,kill,1.0,6900.0,0.882137413229
311,1_8_2,8,2.0,1661.06477621,1_I,test,03,4,16.0,00010,kill,1.0,7000.0,1.31461209691
312,1_8_2,8,2.0,1664.40870462,1_I,test,03,4,17.0,10001,ignore,1.0,7100.0,1.25082239307
313,1_8_2,8,2.0,1667.84638523,1_I,test,03,4,18.0,11111,ignore,1.0,7200.0,1.30703536588
314,1_8_2,8,2.0,1671.03403987,1_I,test,03,4,19.0,01100,kill,0.0,7100.0,1.05726721237
315,1_8_2,8,2.0,1674.12792836,1_I,test,03,4,20.0,11010,ignore,0.0,7000.0,1.04735662157
316,1_8_2,8,2.0,1678.44067337,1_I,test,03,4,21.0,01101,ignore,1.0,7100.0,2.19337372669
317,1_8_2,8,2.0,1681.87831128,1_I,test,03,4,22.0,10011,kill,1.0,7200.0,1.35864671439
318,1_8_2,8,2.0,1688.70679948,1_I,test,03,4,23.0,10111,kill,0.0,7100.0,4.68046852902
319,1_8_2,8,2.0,1692.33199063,1_I,test,03,4,24.0,00101,kill,0.0,7000.0,1.49606404916
320,1_8_2,8,2.0,1695.16020377,1_I,test,03,4,25.0,01111,ignore,0.0,6900.0,0.742889938294
321,1_8_2,8,2.0,1698.22289202,1_I,test,03,4,26.0,00011,ignore,0.0,6800.0,0.946816323799
322,1_8_2,8,2.0,1701.33242333,1_I,test,03,4,27.0,00101,kill,0.0,6700.0,1.03305788177
323,1_8_2,8,2.0,1704.73883473,1_I,test,03,4,28.0,10100,ignore,1.0,6800.0,1.31646727937
324,1_8_2,8,2.0,1708.14526173,1_I,test,03,4,29.0,00110,kill,1.0,6900.0,1.28585984772
325,1_8_2,8,2.0,1711.14540501,1_I,test,03,4,30.0,11000,ignore,1.0,7000.0,0.962738296935
326,1_8_2,8,2.0,1714.06740688,1_I,test,03,4,31.0,01101,kill,0.0,6900.0,0.8296565634
327,1_8_2,8,2.0,1717.70822237,1_I,test,03,4,32.0,10010,ignore,0.0,6800.0,1.50212223185
328,1_8_2,8,2.0,1725.42734758,1_I,test,03,4,33.0,11100,ignore,1.0,6900.0,5.60886480815
329,1_8_2,8,2.0,1728.64627266,1_I,test,03,4,34.0,01000,kill,0.0,6800.0,1.07791232652
330,1_8_2,8,2.0,1731.95892202,1_I,test,03,4,35.0,01011,kill,1.0,6900.0,1.22634950258
331,1_8_2,8,2.0,1735.88104007,1_I,test,03,4,36.0,01100,kill,0.0,6800.0,1.75136696035
332,1_8_2,8,2.0,1739.89765789,1_I,test,03,4,37.0,00001,kill,0.0,6700.0,1.83950680637
333,1_8_2,8,2.0,1742.64778998,1_I,test,03,4,38.0,10110,ignore,1.0,6800.0,0.635021279792
334,1_8_2,8,2.0,1746.38238229,1_I,test,03,4,39.0,10001,ignore,1.0,6900.0,1.59603247945
335,1_8_2,8,2.0,1750.77320261,1_I,test,03,4,40.0,11011,ignore,0.0,6800.0,2.16866519232
336,1_8_2,8,2.0,1753.96088804,1_I,test,03,4,41.0,10000,ignore,1.0,6900.0,1.03744972554
337,1_8_2,8,2.0,1759.08615781,1_I,test,03,4,42.0,11111,kill,0.0,6800.0,2.76431916364
338,1_8_2,8,2.0,1762.89879875,1_I,test,03,4,43.0,00010,ignore,0.0,6700.0,1.62048279081
339,1_8_2,8,2.0,1766.4615767,1_I,test,03,4,44.0,11101,ignore,1.0,6800.0,1.44402123422
340,1_8_2,8,2.0,1770.03983203,1_I,test,03,4,45.0,00000,kill,0.0,6700.0,1.49030842665
341,1_8_2,8,2.0,1773.27434039,1_I,test,03,4,46.0,11001,ignore,1.0,6800.0,1.1081490501
342,1_8_2,8,2.0,1779.43089497,1_I,test,03,4,47.0,01110,kill,1.0,6900.0,4.04586886294
343,1_8_2,8,2.0,1783.55609289,1_I,test,03,4,48.0,00100,ignore,1.0,7000.0,2.02345559857
344,1_8_2,8,2.0,1787.60319417,1_I,test,03,4,49.0,00111,kill,1.0,7100.0,1.93230903505
345,1_8_2,8,2.0,1791.47842524,1_I,test,03,4,50.0,11110,ignore,1.0,7200.0,1.74582234996
346,1_8_2,8,2.0,1796.54109584,1_I,test,03,4,51.0,10101,ignore,1.0,7300.0,2.91488124
347,1_8_2,8,2.0,1800.57259371,1_I,test,03,4,52.0,01010,kill,1.0,7400.0,1.92700704756
348,1_8_2,8,2.0,1804.0258572,1_I,test,03,4,53.0,10111,ignore,1.0,7500.0,1.38102795746
349,1_8_2,8,2.0,1808.16674556,1_I,test,03,4,54.0,10011,ignore,0.0,7400.0,1.991119017
350,1_8_2,8,2.0,1811.77624874,1_I,test,03,4,55.0,11010,ignore,0.0,7300.0,1.48513493486
351,1_8_2,8,2.0,1815.74522339,1_I,test,03,4,56.0,01001,ignore,1.0,7400.0,1.86187327039
352,1_8_2,8,2.0,1819.24536974,1_I,test,03,4,57.0,01000,ignore,1.0,7500.0,1.37758361561
353,1_8_2,8,2.0,1822.07366006,1_I,test,03,4,58.0,01011,ignore,0.0,7400.0,0.744077189384
354,1_8_2,8,2.0,1825.38632297,1_I,test,03,4,59.0,11010,kill,1.0,7500.0,1.17647099876
355,1_8_2,8,2.0,1829.79278733,1_I,test,03,4,60.0,01101,ignore,1.0,7600.0,2.27173640398
356,1_8_2,8,2.0,1833.24607339,1_I,test,03,4,61.0,10010,kill,1.0,7700.0,1.35931218258
357,1_8_2,8,2.0,1836.23063379,1_I,test,03,4,62.0,01010,ignore,0.0,7600.0,0.826711014792
358,1_8_2,8,2.0,1839.57453921,1_I,test,03,4,63.0,00010,kill,1.0,7700.0,1.25868649469
359,1_8_2,8,2.0,1845.74667502,1_I,test,03,4,64.0,10011,kill,1.0,7800.0,4.07830725582
360,1_8_2,8,2.0,1848.87185981,1_I,test,03,4,65.0,11111,kill,0.0,7700.0,1.01528072618
361,1_8_2,8,2.0,1852.87207082,1_I,test,03,4,66.0,10101,kill,0.0,7600.0,1.81178047021
362,1_8_2,8,2.0,1855.59094561,1_I,test,03,4,67.0,11101,ignore,1.0,7700.0,0.633382856866
363,1_8_2,8,2.0,1858.74734993,1_I,test,03,4,68.0,10111,ignore,1.0,7800.0,1.06814829472
364,1_8_2,8,2.0,1862.73195631,1_I,test,03,4,69.0,10000,kill,0.0,7700.0,1.86096107401
365,1_8_2,8,2.0,1865.87270509,1_I,test,03,4,70.0,00001,kill,0.0,7600.0,0.992455290267
366,1_8_2,8,2.0,1870.21670083,1_I,test,03,4,71.0,01100,kill,0.0,7500.0,2.29082602215
367,1_8_2,8,2.0,1873.63872302,1_I,test,03,4,72.0,00101,ignore,1.0,7600.0,1.31678543967
368,1_8_2,8,2.0,1879.40464243,1_I,test,03,4,73.0,11011,kill,1.0,7700.0,3.64301592977
369,1_8_2,8,2.0,1883.57671255,1_I,test,03,4,74.0,11000,ignore,1.0,7800.0,2.05067944672
370,1_8_2,8,2.0,1887.70192813,1_I,test,03,4,75.0,00000,ignore,1.0,7900.0,1.98981558608
371,1_8_2,8,2.0,1891.04582412,1_I,test,03,4,76.0,01110,kill,1.0,8000.0,1.16159957042
372,1_8_2,8,2.0,1897.0617543,1_I,test,03,4,77.0,10001,kill,0.0,7900.0,3.86451543775
373,1_8_2,8,2.0,1900.1244015,1_I,test,03,4,78.0,11110,ignore,1.0,8000.0,0.949733956408
374,1_8_2,8,2.0,1903.73396503,1_I,test,03,4,79.0,11100,kill,0.0,7900.0,1.50663148703
375,1_8_2,8,2.0,1908.76546208,1_I,test,03,4,80.0,00110,kill,1.0,8000.0,2.8841559864
376,1_8_2,8,2.0,1912.56253533,1_I,test,03,4,81.0,01111,ignore,0.0,7900.0,1.71405188846
377,1_8_2,8,2.0,1920.17229058,1_I,test,03,4,82.0,00011,ignore,0.0,7800.0,5.48145577018
378,1_8_2,8,2.0,1925.36004128,1_I,test,03,4,83.0,11001,kill,0.0,7700.0,3.06608866861
379,1_8_2,8,2.0,1928.45396344,1_I,test,03,4,84.0,01001,ignore,1.0,7800.0,0.996937450506
380,1_8_2,8,2.0,1932.34475317,1_I,test,03,4,85.0,10110,kill,0.0,7700.0,1.76373908556
381,1_8_2,8,2.0,1935.42302799,1_I,test,03,4,86.0,00111,ignore,0.0,7600.0,0.996197676486
382,1_8_2,8,2.0,1960.00237409,1_I,test,03,4,87.0,10100,kill,0.0,7500.0,22.4460923552
383,1_8_2,8,2.0,1963.06503853,1_I,test,03,4,88.0,00100,ignore,1.0,7600.0,0.929201327323
384,1_8_2,8,2.0,1965.77154777,1_I,test,03,4,89.0,01011,ignore,0.0,7500.0,0.605249686048
385,1_8_2,8,2.0,1969.13105741,1_I,test,03,4,90.0,00010,ignore,0.0,7400.0,1.26751698258
386,1_8_2,8,2.0,1972.57514721,1_I,test,03,4,91.0,00011,ignore,0.0,7300.0,1.32203282675
387,1_8_2,8,2.0,1975.49720737,1_I,test,03,4,92.0,00111,ignore,0.0,7200.0,0.789458753904
388,1_8_2,8,2.0,1979.09111906,1_I,test,03,4,93.0,11010,ignore,0.0,7100.0,1.47175167568
389,1_8_2,8,2.0,1982.24749669,1_I,test,03,4,94.0,01000,ignore,1.0,7200.0,1.07037049049
390,1_8_2,8,2.0,1985.21636912,1_I,test,03,4,95.0,11110,kill,0.0,7100.0,0.854789585197
391,1_8_2,8,2.0,1988.66965724,1_I,test,03,4,96.0,01001,kill,0.0,7000.0,1.28188263867
392,1_8_2,8,2.0,1992.51363799,1_I,test,03,4,97.0,10100,ignore,1.0,7100.0,1.5454991812
393,1_8_2,8,2.0,1998.4844317,1_I,test,03,4,98.0,10010,kill,1.0,7200.0,3.73745534979
394,1_8_2,8,2.0,2002.09723307,1_I,test,03,4,99.0,10111,ignore,1.0,7300.0,1.54848290904
395,1_8_2,8,2.0,2005.69106963,1_I,test,03,4,100.0,00001,kill,0.0,7200.0,1.44246081189
396,1_8_2,8,2.0,2011.66013829,1_I,test,03,4,101.0,10011,ignore,0.0,7100.0,3.73228965807
397,1_8_2,8,2.0,2015.05091468,1_I,test,03,4,102.0,00110,ignore,0.0,7000.0,1.18881233427
398,1_8_2,8,2.0,2018.16047924,1_I,test,03,4,103.0,00100,ignore,1.0,7100.0,0.840601688343
399,1_8_2,8,2.0,2021.95760298,1_I,test,03,4,104.0,10000,ignore,1.0,7200.0,1.64768652302
400,1_8_2,8,2.0,2025.09830538,1_I,test,03,4,105.0,11001,ignore,1.0,7300.0,0.958267220991
401,1_8_2,8,2.0,2028.3172477,1_I,test,03,4,106.0,10110,kill,0.0,7200.0,0.989355382595
402,1_8_2,8,2.0,2031.87995134,1_I,test,03,5,0.0,01111,ignore,0.0,7100.0,1.34544121444
403,1_8_2,8,2.0,2035.23944334,1_I,test,03,5,1.0,01110,kill,0.0,7000.0,1.2463398223
404,1_8_2,8,2.0,2038.38018925,1_I,test,03,5,2.0,11101,ignore,1.0,7100.0,0.957322592789
405,1_8_2,8,2.0,2041.44290993,1_I,test,03,5,3.0,10101,ignore,1.0,7200.0,0.50251469798
406,1_8_2,8,2.0,2044.67740105,1_I,test,03,5,4.0,00101,ignore,1.0,7300.0,0.826354675253
407,1_8_2,8,2.0,2047.64461002,1_I,test,03,5,5.0,11000,ignore,1.0,7400.0,0.912186114335
408,1_8_2,8,2.0,2050.87917134,1_I,test,03,5,6.0,01010,kill,0.0,7300.0,1.12057208096
409,1_8_2,8,2.0,2054.13255174,1_I,test,03,5,7.0,11011,ignore,0.0,7200.0,1.1551140266
410,1_8_2,8,2.0,2056.99202136,1_I,test,03,5,8.0,00000,ignore,1.0,7300.0,0.763712401149
411,1_8_2,8,2.0,2059.88279878,1_I,test,03,5,9.0,01100,ignore,1.0,7400.0,0.754438130958
412,1_8_2,8,2.0,2062.60487241,1_I,test,03,5,10.0,11100,ignore,1.0,7500.0,0.696308396271
413,1_8_2,8,2.0,2065.52687018,1_I,test,03,5,11.0,11111,kill,1.0,7600.0,0.777719254528
414,1_8_2,8,2.0,2068.4489131,1_I,test,03,5,12.0,01101,ignore,1.0,7700.0,0.807946125402
415,1_8_2,8,2.0,2071.07405376,1_I,test,03,5,13.0,10001,ignore,0.0,7600.0,0.510998288503
416,1_8_2,8,2.0,2075.01170666,1_I,test,03,5,14.0,10000,ignore,1.0,7700.0,1.8001464769
417,1_8_2,8,2.0,2077.91809486,1_I,test,03,5,15.0,00101,ignore,1.0,7800.0,0.790234243983
418,1_8_2,8,2.0,2080.96833833,1_I,test,03,5,16.0,00011,kill,1.0,7900.0,0.906813515778
419,1_8_2,8,2.0,2085.04670593,1_I,test,03,5,17.0,11010,kill,0.0,7800.0,1.98501526554
420,1_8_2,8,2.0,2087.80617633,1_I,test,03,5,18.0,11101,ignore,1.0,7900.0,0.668882567648
421,1_8_2,8,2.0,2090.69377954,1_I,test,03,5,19.0,10010,ignore,1.0,8000.0,0.783252780618
422,1_8_2,8,2.0,2093.80336174,1_I,test,03,5,20.0,00001,ignore,0.0,7900.0,0.984098142806
423,1_8_2,8,2.0,2097.12562365,1_I,test,03,5,21.0,11100,kill,0.0,7800.0,1.20477823406
424,1_8_2,8,2.0,2100.79765087,1_I,test,03,5,22.0,01111,ignore,0.0,7700.0,1.55188209267
425,1_8_2,8,2.0,2103.72280191,1_I,test,03,5,23.0,00100,ignore,1.0,7800.0,0.842580029632
426,1_8_2,8,2.0,2106.81677579,1_I,test,03,5,24.0,11110,kill,0.0,7700.0,0.95487460584
427,1_8_2,8,2.0,2109.59817421,1_I,test,03,5,25.0,01001,ignore,0.0,7600.0,0.654778418797
428,1_8_2,8,2.0,2112.84835823,1_I,test,03,5,26.0,01110,ignore,1.0,7700.0,1.14833700689
429,1_8_2,8,2.0,2116.5738097,1_I,test,03,5,27.0,01101,ignore,1.0,7800.0,1.57924880505
430,1_8_2,8,2.0,2119.84273316,1_I,test,03,5,28.0,11000,kill,0.0,7700.0,1.16524835593
431,1_8_2,8,2.0,2122.84288587,1_I,test,03,5,29.0,10110,kill,0.0,7600.0,0.83960820714
432,1_8_2,8,2.0,2125.90553349,1_I,test,03,5,30.0,10101,ignore,1.0,7700.0,0.924139910069
433,1_8_2,8,2.0,2128.68695448,1_I,test,03,5,31.0,00111,ignore,0.0,7600.0,0.688886024306
434,1_8_2,8,2.0,2132.47160676,1_I,test,03,5,32.0,01010,ignore,1.0,7700.0,1.68821357711
435,1_8_2,8,2.0,2135.42487086,1_I,test,03,5,33.0,01011,ignore,0.0,7600.0,0.902556736192
436,1_8_2,8,2.0,2140.59706003,1_I,test,03,5,34.0,01000,ignore,1.0,7700.0,3.04854920955
437,1_8_2,8,2.0,2144.58157404,1_I,test,03,5,35.0,00110,ignore,1.0,7800.0,1.84642874297
438,1_8_2,8,2.0,2147.67552452,1_I,test,03,5,36.0,10111,kill,1.0,7900.0,1.01489770223
439,1_8_2,8,2.0,2150.95691247,1_I,test,03,5,37.0,00010,ignore,1.0,8000.0,1.14036083073
440,1_8_2,8,2.0,2153.87889957,1_I,test,03,5,38.0,11111,kill,1.0,8100.0,0.872296201905
441,1_8_2,8,2.0,2157.97283404,1_I,test,03,5,39.0,10001,ignore,0.0,8000.0,1.98903475912
442,1_8_2,8,2.0,2161.09802129,1_I,test,03,5,40.0,10100,ignore,1.0,8100.0,0.982286886992
443,1_8_2,8,2.0,2164.0200248,1_I,test,03,5,41.0,01100,ignore,1.0,8200.0,0.832081560701
444,1_8_2,8,2.0,2167.52023438,1_I,test,03,5,42.0,10011,kill,1.0,8300.0,1.37763493178
