,unique_id,pair_id,sbj_id,wall_time,condition,block,rule_id,rule_num,trial,stimulus,choice,correct,points,reaction_time
0,1_18_2,18,2.0,33.847190811,1_I,training,03,1_B,1.0,11110,kill,0.0,0.0,4.10074260606
1,1_18_2,18,2.0,39.8630951184,1_I,training,03,1_B,2.0,10011,ignore,1.0,100.0,3.82180697661
2,1_18_2,18,2.0,43.8164183718,1_I,training,03,1_B,3.0,00011,ignore,1.0,200.0,1.77481822798
3,1_18_2,18,2.0,47.6134954868,1_I,training,03,1_B,4.0,10010,ignore,1.0,300.0,1.64911175874
4,1_18_2,18,2.0,52.2543096317,1_I,training,03,1_B,5.0,10000,kill,1.0,400.0,2.32599498908
5,1_18_2,18,2.0,58.9265518307,1_I,training,03,1_B,6.0,01101,kill,1.0,500.0,4.49113359807
6,1_18_2,18,2.0,62.7392335668,1_I,training,03,1_B,7.0,10101,kill,1.0,600.0,1.6388641317
7,1_18_2,18,2.0,66.6925194622,1_I,training,03,1_B,8.0,10111,ignore,1.0,700.0,1.77835493606
8,1_18_2,18,2.0,70.2083447426,1_I,training,03,1_B,9.0,01010,ignore,1.0,800.0,1.34830970807
9,1_18_2,18,2.0,73.8960560881,1_I,training,03,1_B,10.0,11101,kill,1.0,900.0,1.51391385704
10,1_18_2,18,2.0,78.9587533217,1_I,training,03,1_B,11.0,00101,kill,1.0,1000.0,2.8718607354
11,1_18_2,18,2.0,82.4745679284,1_I,training,03,1_B,12.0,00010,ignore,1.0,1100.0,1.35020922615
12,1_18_2,18,2.0,85.5372039931,1_I,training,03,1_B,13.0,00110,ignore,1.0,1200.0,0.915363681559
13,1_18_2,18,2.0,89.0217494204,1_I,training,03,1_B,14.0,10100,kill,1.0,1300.0,1.29388997246
14,1_18_2,18,2.0,92.896921894,1_I,training,03,1_B,15.0,10001,kill,1.0,1400.0,1.71268506138
15,1_18_2,18,2.0,96.1783765299,1_I,training,03,1_B,16.0,01000,kill,0.0,1300.0,1.13092059916
16,1_18_2,18,2.0,99.5066368185,1_I,training,03,1_B,17.0,11010,ignore,1.0,1400.0,1.19537530774
17,1_18_2,18,2.0,103.397445113,1_I,training,03,1_B,18.0,11001,kill,0.0,1300.0,1.73318442075
18,1_18_2,18,2.0,107.835151635,1_I,training,03,1_B,19.0,11000,ignore,1.0,1400.0,2.28338412262
19,1_18_2,18,2.0,111.600994055,1_I,training,03,1_B,20.0,01110,ignore,1.0,1500.0,1.61727194391
20,1_18_2,18,2.0,114.866760733,1_I,training,03,1_B,21.0,00111,ignore,1.0,1600.0,1.12265459602
21,1_18_2,18,2.0,119.866994734,1_I,training,03,1_B,22.0,00001,ignore,0.0,1500.0,2.84771341457
22,1_18_2,18,2.0,124.273494477,1_I,training,03,1_B,23.0,11100,kill,1.0,1600.0,2.28171080607
23,1_18_2,18,2.0,127.711153377,1_I,training,03,1_B,24.0,00100,kill,1.0,1700.0,1.26703028596
24,1_18_2,18,2.0,131.055038813,1_I,training,03,1_B,25.0,10110,ignore,1.0,1800.0,1.19263995244
25,1_18_2,18,2.0,134.352114081,1_I,training,03,1_B,26.0,00000,kill,1.0,1900.0,1.14102536208
26,1_18_2,18,2.0,137.946052373,1_I,training,03,1_B,27.0,11111,ignore,1.0,2000.0,1.4532594162
27,1_18_2,18,2.0,141.414941452,1_I,training,03,1_B,28.0,01011,ignore,1.0,2100.0,1.32795690758
28,1_18_2,18,2.0,145.087012871,1_I,training,03,1_B,29.0,11011,ignore,1.0,2200.0,1.51825356001
29,1_18_2,18,2.0,150.07163322,1_I,training,03,1_B,30.0,01001,ignore,1.0,2300.0,2.84468288886
30,1_18_2,18,2.0,153.540530921,1_I,training,03,1_B,31.0,01111,ignore,1.0,2400.0,1.3464610956
31,1_18_2,18,2.0,159.853357779,1_I,training,03,1_B,32.0,01100,ignore,0.0,2300.0,4.16892040293
32,1_18_2,18,2.0,164.322314596,1_I,training,03,1_B,33.0,11000,kill,0.0,2200.0,2.31972620994
33,1_18_2,18,2.0,167.244320227,1_I,training,03,1_B,34.0,11110,ignore,1.0,2300.0,0.782750881508
34,1_18_2,18,2.0,170.400725241,1_I,training,03,1_B,35.0,11111,ignore,1.0,2400.0,1.01311968852
35,1_18_2,18,2.0,174.244638798,1_I,training,03,1_B,36.0,01101,kill,1.0,2500.0,1.7104764149
36,1_18_2,18,2.0,177.91673608,1_I,training,03,1_B,37.0,00111,ignore,1.0,2600.0,1.47481670903
37,1_18_2,18,2.0,180.901238607,1_I,training,03,1_B,38.0,01010,ignore,1.0,2700.0,0.838999524196
38,1_18_2,18,2.0,184.651433301,1_I,training,03,1_B,39.0,10001,kill,1.0,2800.0,1.63015927297
39,1_18_2,18,2.0,188.042201569,1_I,training,03,1_B,40.0,11101,kill,1.0,2900.0,1.24935085088
40,1_18_2,18,2.0,192.151811193,1_I,training,03,1_B,41.0,00101,kill,1.0,3000.0,1.96312627751
41,1_18_2,18,2.0,196.308256848,1_I,training,03,1_B,42.0,11100,kill,1.0,3100.0,1.9929089311
42,1_18_2,18,2.0,199.870918982,1_I,training,03,1_B,43.0,10000,kill,1.0,3200.0,1.40119037014
43,1_18_2,18,2.0,203.933632226,1_I,training,03,1_B,44.0,10110,ignore,1.0,3300.0,1.92399341347
44,1_18_2,18,2.0,207.293177294,1_I,training,03,1_B,45.0,10100,kill,1.0,3400.0,1.18995386064
45,1_18_2,18,2.0,210.527687929,1_I,training,03,1_B,46.0,00011,ignore,1.0,3500.0,1.06949313205
46,1_18_2,18,2.0,214.184120653,1_I,training,03,1_B,47.0,11001,kill,0.0,3400.0,1.51280912327
47,1_18_2,18,2.0,217.340529771,1_I,training,03,1_B,48.0,00010,ignore,1.0,3500.0,0.986140127536
48,1_18_2,18,2.0,220.418797142,1_I,training,03,1_B,49.0,10111,ignore,1.0,3600.0,0.852901270629
49,1_18_2,18,2.0,223.528325891,1_I,training,03,1_B,50.0,01011,ignore,1.0,3700.0,0.877071581082
50,1_18_2,18,2.0,226.669116841,1_I,training,03,1_B,51.0,10011,ignore,1.0,3800.0,0.972150527879
51,1_18_2,18,2.0,231.606834652,1_I,training,03,1_B,52.0,01100,ignore,0.0,3700.0,2.77787872232
52,1_18_2,18,2.0,235.622657675,1_I,training,03,1_B,53.0,10101,kill,1.0,3800.0,1.84788706838
53,1_18_2,18,2.0,238.622797665,1_I,training,03,1_B,54.0,00100,kill,1.0,3900.0,0.834185249609
54,1_18_2,18,2.0,241.59172554,1_I,training,03,1_B,55.0,00001,kill,1.0,4000.0,0.792663927343
55,1_18_2,18,2.0,244.919961607,1_I,training,03,1_B,56.0,00110,ignore,1.0,4100.0,1.17087698455
56,1_18_2,18,2.0,247.982653093,1_I,training,03,1_B,57.0,01110,ignore,1.0,4200.0,0.923125144454
57,1_18_2,18,2.0,251.326534014,1_I,training,03,1_B,58.0,11011,ignore,1.0,4300.0,1.21470876451
58,1_18_2,18,2.0,255.608014924,1_I,training,03,1_B,59.0,01000,kill,0.0,4200.0,2.13285788592
59,1_18_2,18,2.0,260.545728219,1_I,training,03,1_B,60.0,00000,ignore,0.0,4100.0,2.77841528383
60,1_18_2,18,2.0,264.92099532,1_I,training,03,1_B,61.0,01001,ignore,1.0,4200.0,2.22219312027
61,1_18_2,18,2.0,268.186778829,1_I,training,03,1_B,62.0,01111,ignore,1.0,4300.0,1.12077190963
62,1_18_2,18,2.0,271.202509893,1_I,training,03,1_B,63.0,10010,ignore,1.0,4400.0,0.851762873473
63,1_18_2,18,2.0,274.233920294,1_I,training,03,1_B,64.0,11010,ignore,1.0,4500.0,0.92597421631
64,1_18_2,18,2.0,279.281041233,1_I,training,03,1_B,65.0,11000,kill,0.0,4400.0,2.90877058444
65,1_18_2,18,2.0,283.484375058,1_I,training,03,1_B,66.0,10100,ignore,0.0,4300.0,2.03824899492
66,1_18_2,18,2.0,286.297058025,1_I,training,03,1_B,67.0,00011,ignore,1.0,4400.0,0.659884452483
67,1_18_2,18,2.0,291.109768499,1_I,training,03,1_B,68.0,00001,ignore,0.0,4300.0,2.66093828065
68,1_18_2,18,2.0,294.156758068,1_I,training,03,1_B,69.0,01101,ignore,0.0,4200.0,0.813981881711
69,1_18_2,18,2.0,298.516328179,1_I,training,03,1_B,70.0,10000,kill,1.0,4300.0,2.20898598905
70,1_18_2,18,2.0,301.579009812,1_I,training,03,1_B,71.0,11011,ignore,1.0,4400.0,0.858174106206
71,1_18_2,18,2.0,304.329193011,1_I,training,03,1_B,72.0,01100,kill,1.0,4500.0,0.592518682151
72,1_18_2,18,2.0,307.126153946,1_I,training,03,1_B,73.0,10001,kill,1.0,4600.0,0.572749243496
73,1_18_2,18,2.0,309.829409154,1_I,training,03,1_B,74.0,10101,kill,1.0,4700.0,0.565616300632
74,1_18_2,18,2.0,312.517050299,1_I,training,03,1_B,75.0,11001,kill,0.0,4600.0,0.546359202277
75,1_18_2,18,2.0,315.56404808,1_I,training,03,1_B,76.0,11111,ignore,1.0,4700.0,0.904189900903
76,1_18_2,18,2.0,318.689244672,1_I,training,03,1_B,77.0,11101,kill,1.0,4800.0,0.96747993847
77,1_18_2,18,2.0,323.283232227,1_I,training,03,1_B,78.0,10011,ignore,1.0,4900.0,2.41494309451
78,1_18_2,18,2.0,326.580252073,1_I,training,03,1_B,79.0,00010,ignore,1.0,5000.0,1.13464204532
79,1_18_2,18,2.0,330.174172712,1_I,training,03,1_B,80.0,10111,ignore,1.0,5100.0,1.449149199
80,1_18_2,18,2.0,334.346230378,1_I,training,03,1_B,81.0,00101,kill,1.0,5200.0,2.01407457918
81,1_18_2,18,2.0,337.533875013,1_I,training,03,1_B,82.0,10010,ignore,1.0,5300.0,1.04120069905
82,1_18_2,18,2.0,341.799700396,1_I,training,03,1_B,83.0,11100,kill,1.0,5400.0,2.13073873477
83,1_18_2,18,2.0,344.690475027,1_I,training,03,1_B,84.0,11010,ignore,1.0,5500.0,0.782728302409
84,1_18_2,18,2.0,348.612555786,1_I,training,03,1_B,85.0,11110,ignore,1.0,5600.0,1.79530239778
85,1_18_2,18,2.0,351.737701472,1_I,training,03,1_B,86.0,01011,ignore,1.0,5700.0,0.992254547738
86,1_18_2,18,2.0,355.472243923,1_I,training,03,1_B,87.0,01001,kill,0.0,5600.0,1.60117591951
87,1_18_2,18,2.0,358.847457244,1_I,training,03,1_B,88.0,01010,ignore,1.0,5700.0,1.22771391542
88,1_18_2,18,2.0,362.175714249,1_I,training,03,1_B,89.0,00111,ignore,1.0,5800.0,1.09920722728
89,1_18_2,18,2.0,365.160261523,1_I,training,03,1_B,90.0,01111,ignore,1.0,5900.0,0.798874411352
90,1_18_2,18,2.0,368.050999207,1_I,training,03,1_B,91.0,10110,ignore,1.0,6000.0,0.629761470285
91,1_18_2,18,2.0,372.58246113,1_I,training,03,1_B,92.0,01000,kill,0.0,5900.0,2.41118962708
92,1_18_2,18,2.0,377.285877266,1_I,training,03,1_B,93.0,00100,kill,1.0,6000.0,2.53501956787
93,1_18_2,18,2.0,381.832926157,1_I,training,03,1_B,94.0,00000,ignore,0.0,5900.0,2.38570316038
94,1_18_2,18,2.0,385.239346257,1_I,training,03,1_B,95.0,01110,ignore,1.0,6000.0,1.15297791641
95,1_18_2,18,2.0,388.755113653,1_I,training,03,1_B,96.0,00110,ignore,1.0,6100.0,1.36365241159
96,1_18_2,18,2.0,393.489728357,1_I,training,03,1_B,97.0,10100,kill,1.0,6200.0,2.57412903176
97,1_18_2,18,2.0,401.162050199,1_I,training,03,1_B,98.0,10001,kill,1.0,6300.0,5.50570450691
98,1_18_2,18,2.0,406.037251409,1_I,training,03,1_B,99.0,00100,kill,1.0,6400.0,2.67609583555
99,1_18_2,18,2.0,409.849929861,1_I,training,03,1_B,100.0,00101,kill,1.0,6500.0,1.64236142899
100,1_18_2,18,2.0,413.053241928,1_I,training,03,1_B,101.0,01110,ignore,1.0,6600.0,1.02830680152
101,1_18_2,18,2.0,416.975249612,1_I,training,03,1_B,102.0,11010,ignore,1.0,6700.0,1.76581327249
102,1_18_2,18,2.0,420.63170902,1_I,training,03,1_B,103.0,10110,ignore,1.0,6800.0,1.43648027141
103,1_18_2,18,2.0,424.569396452,1_I,training,03,1_B,104.0,11100,kill,1.0,6900.0,1.77870799107
104,1_18_2,18,2.0,427.772661719,1_I,training,03,1_B,105.0,11110,ignore,1.0,7000.0,1.06664282861
105,1_18_2,18,2.0,431.600996929,1_I,training,03,1_B,106.0,01100,kill,1.0,7100.0,1.67388924172
106,1_18_2,18,2.0,434.397982085,1_I,training,03,1_B,107.0,01111,ignore,1.0,7200.0,0.648844093779
107,1_18_2,18,2.0,438.038813472,1_I,training,03,1_B,108.0,01101,kill,1.0,7300.0,1.48397479187
108,1_18_2,18,2.0,441.64832888,1_I,training,03,1_B,109.0,10000,kill,1.0,7400.0,1.43377899002
109,1_18_2,18,2.0,444.695385366,1_I,training,03,1_B,110.0,00000,kill,1.0,7500.0,0.883448739902
110,1_18_2,18,2.0,448.429924122,1_I,training,03,1_B,111.0,00001,kill,1.0,7600.0,1.58418699436
111,1_18_2,18,2.0,451.836379117,1_I,training,03,1_B,112.0,01000,kill,0.0,7500.0,1.24127697535
112,1_18_2,18,2.0,456.117832111,1_I,training,03,1_B,113.0,11001,kill,0.0,7400.0,2.12579103823
113,1_18_2,18,2.0,459.13359848,1_I,training,03,1_B,114.0,10111,ignore,1.0,7500.0,0.848592357344
114,1_18_2,18,2.0,462.258742935,1_I,training,03,1_B,115.0,01011,ignore,1.0,7600.0,0.980692406565
115,1_18_2,18,2.0,465.774550974,1_I,training,03,1_B,116.0,11011,ignore,1.0,7700.0,1.41365731741
116,1_18_2,18,2.0,469.024671156,1_I,training,03,1_B,117.0,01001,kill,0.0,7600.0,1.08395894545
117,1_18_2,18,2.0,472.149857074,1_I,training,03,1_B,118.0,10010,ignore,1.0,7700.0,0.992773867032
118,1_18_2,18,2.0,475.243774224,1_I,training,03,1_B,119.0,00110,ignore,1.0,7800.0,0.925869941922
119,1_18_2,18,2.0,478.025110833,1_I,training,03,1_B,120.0,00111,ignore,1.0,7900.0,0.617804400134
120,1_18_2,18,2.0,481.27528931,1_I,training,03,1_B,121.0,11101,kill,1.0,8000.0,1.09327877676
121,1_18_2,18,2.0,484.572311619,1_I,training,03,1_B,122.0,10101,kill,1.0,8100.0,1.14087551896
122,1_18_2,18,2.0,487.635008853,1_I,training,03,1_B,123.0,00011,ignore,1.0,8200.0,0.917792371631
123,1_18_2,18,2.0,491.057033164,1_I,training,03,1_B,124.0,10011,ignore,1.0,8300.0,1.27615060013
124,1_18_2,18,2.0,494.135296839,1_I,training,03,1_B,125.0,11111,ignore,1.0,8400.0,0.94461469998
125,1_18_2,18,2.0,496.994811733,1_I,training,03,1_B,126.0,01010,ignore,1.0,8500.0,0.731314871293
126,1_18_2,18,2.0,499.838751565,1_I,training,03,1_B,127.0,00010,ignore,1.0,8600.0,0.695256049043
127,1_18_2,18,2.0,503.135750474,1_I,training,03,1_B,128.0,11000,kill,0.0,8500.0,1.14151019693
128,1_18_2,18,2.0,506.120230011,1_I,training,03,1_B,129.0,11111,ignore,1.0,8600.0,0.825965225722
129,1_18_2,18,2.0,511.339242763,1_I,training,03,1_B,130.0,10001,kill,1.0,8700.0,3.04598664713
130,1_18_2,18,2.0,516.917683581,1_I,training,03,1_B,131.0,00111,ignore,1.0,8800.0,3.42350960494
131,1_18_2,18,2.0,521.058499984,1_I,training,03,1_B,132.0,11000,kill,0.0,8700.0,1.99536143186
132,1_18_2,18,2.0,524.886803173,1_I,training,03,1_B,133.0,00101,kill,1.0,8800.0,1.65528324249
133,1_18_2,18,2.0,527.777586426,1_I,training,03,1_B,134.0,01111,ignore,1.0,8900.0,0.744102031256
134,1_18_2,18,2.0,530.730841942,1_I,training,03,1_B,135.0,01110,ignore,1.0,9000.0,0.789880129612
135,1_18_2,18,2.0,533.543475235,1_I,training,03,1_B,136.0,10010,ignore,1.0,9100.0,0.676106098779
136,1_18_2,18,2.0,536.528006089,1_I,training,03,1_B,137.0,00010,ignore,1.0,9200.0,0.803842223819
137,1_18_2,18,2.0,539.606277154,1_I,training,03,1_B,138.0,11010,ignore,1.0,9300.0,0.941052128572
138,1_18_2,18,2.0,542.747060714,1_I,training,03,1_B,139.0,01011,ignore,1.0,9400.0,0.956036029675
139,1_18_2,18,2.0,545.575272766,1_I,training,03,1_B,140.0,00110,ignore,1.0,9500.0,0.672714718001
140,1_18_2,18,2.0,548.387924533,1_I,training,03,1_B,141.0,10011,ignore,1.0,9600.0,0.668655816931
141,1_18_2,18,2.0,551.856879297,1_I,training,03,1_B,142.0,00100,kill,1.0,9700.0,1.29386287754
142,1_18_2,18,2.0,555.435141126,1_I,training,03,1_B,143.0,11100,kill,1.0,9800.0,1.42612672787
143,1_18_2,18,2.0,558.607203718,1_I,training,03,1_B,144.0,00001,kill,1.0,9900.0,1.00408106964
144,1_18_2,18,2.0,561.654240909,1_I,training,03,1_B,145.0,10101,kill,1.0,10000.0,0.915225333256
145,1_18_2,18,2.0,564.904364786,1_I,training,03,1_B,146.0,10100,kill,1.0,10100.0,1.10358059363
146,1_18_2,18,2.0,567.716980427,1_I,training,03,1_B,147.0,01101,kill,1.0,10200.0,0.662761029789
147,1_18_2,18,2.0,570.607766964,1_I,training,03,1_B,148.0,01001,kill,0.0,10100.0,0.744070009987
148,1_18_2,18,2.0,574.623617903,1_I,training,03,1_B,149.0,11001,kill,0.0,10000.0,1.89012927971
149,1_18_2,18,2.0,577.842484095,1_I,training,03,1_B,150.0,00000,kill,1.0,10100.0,1.07022305277
150,1_18_2,18,2.0,580.780187948,1_I,training,03,1_B,151.0,10000,kill,1.0,10200.0,0.770290092169
151,1_18_2,18,2.0,584.264695197,1_I,training,03,1_B,152.0,10111,ignore,1.0,10300.0,1.34876129006
152,1_18_2,18,2.0,588.202393302,1_I,training,03,1_B,153.0,01100,kill,1.0,10400.0,1.78276566056
153,1_18_2,18,2.0,591.73383552,1_I,training,03,1_B,154.0,11101,kill,1.0,10500.0,1.39920792518
154,1_18_2,18,2.0,596.405922128,1_I,training,03,1_B,155.0,01010,ignore,1.0,10600.0,2.50722223294
155,1_18_2,18,2.0,599.609220237,1_I,training,03,1_B,156.0,00011,ignore,1.0,10700.0,1.03311656029
156,1_18_2,18,2.0,603.812544619,1_I,training,03,1_B,157.0,01000,ignore,1.0,10800.0,2.09723627714
157,1_18_2,18,2.0,606.812680915,1_I,training,03,1_B,158.0,10110,ignore,1.0,10900.0,0.849916313646
158,1_18_2,18,2.0,609.656568609,1_I,training,03,1_B,159.0,11011,ignore,1.0,11000.0,0.713121043269
159,1_18_2,18,2.0,612.531671703,1_I,training,03,1_B,160.0,11110,ignore,1.0,11100.0,0.71798868664
160,1_18_2,18,2.0,616.656906064,1_I,training,03,1_B,161.0,11001,kill,0.0,11000.0,1.96506028004
161,1_18_2,18,2.0,619.782078845,1_I,training,03,1_B,162.0,01100,ignore,0.0,10900.0,0.967266873875
162,1_18_2,18,2.0,622.641569929,1_I,training,03,1_B,163.0,01000,ignore,1.0,11000.0,0.697265999448
163,1_18_2,18,2.0,626.516771961,1_I,training,03,1_B,164.0,11101,kill,1.0,11100.0,1.72496891269
164,1_18_2,18,2.0,629.907542281,1_I,training,03,1_B,165.0,11111,ignore,1.0,11200.0,1.23371708224
165,1_18_2,18,2.0,633.204591275,1_I,training,03,1_B,166.0,01010,ignore,1.0,11300.0,1.15805985596
166,1_18_2,18,2.0,635.81410463,1_I,training,03,1_B,167.0,11010,ignore,1.0,11400.0,0.473305140933
167,1_18_2,18,2.0,640.376823416,1_I,training,03,1_B,168.0,10001,kill,1.0,11500.0,2.38703861149
168,1_18_2,18,2.0,644.080136099,1_I,training,03,1_B,169.0,00000,ignore,0.0,11400.0,1.54170503403
169,1_18_2,18,2.0,647.002151172,1_I,training,03,1_B,170.0,11011,ignore,1.0,11500.0,0.765172847114
170,1_18_2,18,2.0,649.892903225,1_I,training,03,1_B,171.0,10011,ignore,1.0,11600.0,0.745137385611
171,1_18_2,18,2.0,652.893067847,1_I,training,03,1_B,172.0,11110,ignore,1.0,11700.0,0.872988048266
172,1_18_2,18,2.0,655.877572427,1_I,training,03,1_B,173.0,01011,ignore,1.0,11800.0,0.805979027711
173,1_18_2,18,2.0,658.612056582,1_I,training,03,1_B,174.0,10111,ignore,1.0,11900.0,0.568953081041
174,1_18_2,18,2.0,661.393465855,1_I,training,03,1_B,175.0,10100,ignore,0.0,11800.0,0.628172312194
175,1_18_2,18,2.0,666.159369444,1_I,training,03,1_B,176.0,01101,kill,1.0,11900.0,2.61223598361
176,1_18_2,18,2.0,669.409514668,1_I,training,03,1_B,177.0,00111,ignore,1.0,12000.0,1.09675842129
177,1_18_2,18,2.0,673.8315632,1_I,training,03,1_B,178.0,10010,ignore,1.0,12100.0,2.21517430449
178,1_18_2,18,2.0,677.128612605,1_I,training,03,1_B,179.0,01001,kill,0.0,12000.0,1.13672548043
179,1_18_2,18,2.0,680.535070473,1_I,training,03,1_B,180.0,00011,ignore,1.0,12100.0,1.23862577852
180,1_18_2,18,2.0,683.644570897,1_I,training,03,1_B,181.0,00110,ignore,1.0,12200.0,0.951379808785
181,1_18_2,18,2.0,687.566634002,1_I,training,03,1_B,182.0,10101,kill,1.0,12300.0,1.61987018249
182,1_18_2,18,2.0,690.769929648,1_I,training,03,1_B,183.0,01111,ignore,1.0,12400.0,1.05913753587
183,1_18_2,18,2.0,694.066971252,1_I,training,03,1_B,184.0,10000,kill,1.0,12500.0,1.13821775366
184,1_18_2,18,2.0,697.082702316,1_I,training,03,1_B,185.0,01110,ignore,1.0,12600.0,0.890163764157
185,1_18_2,18,2.0,700.17659196,1_I,training,03,1_B,186.0,10110,ignore,1.0,12700.0,0.963044992755
186,1_18_2,18,2.0,703.817422115,1_I,training,03,1_B,187.0,00001,kill,1.0,12800.0,1.49312179043
187,1_18_2,18,2.0,707.223803215,1_I,training,03,1_B,188.0,11100,kill,1.0,12900.0,1.24350081141
188,1_18_2,18,2.0,710.09896091,1_I,training,03,1_B,189.0,00101,kill,1.0,13000.0,0.699652405025
189,1_18_2,18,2.0,713.177236901,1_I,training,03,1_B,190.0,00010,ignore,1.0,13100.0,0.9459530248
190,1_18_2,18,2.0,716.224242481,1_I,training,03,1_B,191.0,00100,ignore,0.0,13000.0,0.89399317947
191,1_18_2,18,2.0,719.568200581,1_I,training,03,1_B,192.0,11000,ignore,1.0,13100.0,1.19130080657
192,1_18_2,18,2.0,724.427832887,1_I,training,03,1_B,193.0,00000,ignore,0.0,13000.0,2.70512352615
193,1_18_2,18,2.0,728.615488606,1_I,training,03,1_B,194.0,10101,kill,1.0,13100.0,2.00385692076
194,1_18_2,18,2.0,731.89694201,1_I,training,03,1_B,195.0,01011,ignore,1.0,13200.0,1.14535521234
195,1_18_2,18,2.0,735.131455108,1_I,training,03,1_B,196.0,11011,ignore,1.0,13300.0,1.06689899876
196,1_18_2,18,2.0,741.303635522,1_I,training,03,1_B,197.0,10000,kill,1.0,13400.0,4.00770891517
197,1_18_2,18,2.0,744.772564834,1_I,training,03,1_B,198.0,11111,ignore,1.0,13500.0,1.33634565892
198,1_18_2,18,2.0,748.757119498,1_I,training,03,1_B,199.0,11000,kill,0.0,13400.0,1.84980382868
199,1_18_2,18,2.0,752.038513786,1_I,training,03,1_B,200.0,01101,ignore,0.0,13300.0,1.13896984294
200,1_18_2,18,2.0,754.89806727,1_I,training,03,1_B,201.0,10010,ignore,1.0,13400.0,0.704958493458
201,1_18_2,18,2.0,758.163805621,1_I,training,03,1_B,202.0,11010,ignore,1.0,13500.0,1.12733791183
202,1_18_2,18,2.0,761.257696497,1_I,training,03,1_B,203.0,11110,ignore,1.0,13600.0,0.982394870685
203,1_18_2,18,2.0,764.054735022,1_I,training,03,1_B,204.0,01010,ignore,1.0,13700.0,0.658601549092
204,1_18_2,18,2.0,767.914288506,1_I,training,03,1_B,205.0,00001,kill,1.0,13800.0,1.74945492001
205,1_18_2,18,2.0,771.055083972,1_I,training,03,1_B,206.0,01111,ignore,1.0,13900.0,0.992746361584
206,1_18_2,18,2.0,774.320868302,1_I,training,03,1_B,207.0,00110,ignore,1.0,14000.0,1.10219875273
207,1_18_2,18,2.0,777.28975225,1_I,training,03,1_B,208.0,00101,ignore,0.0,13900.0,0.817667201312
208,1_18_2,18,2.0,780.961804784,1_I,training,03,1_B,209.0,00100,kill,1.0,14000.0,1.50347451292
209,1_18_2,18,2.0,784.290065073,1_I,training,03,1_B,210.0,11100,kill,1.0,14100.0,1.18462683522
210,1_18_2,18,2.0,787.227729516,1_I,training,03,1_B,211.0,10100,kill,1.0,14200.0,0.77120146674
211,1_18_2,18,2.0,790.024785694,1_I,training,03,1_B,212.0,01100,kill,1.0,14300.0,0.651723544786
212,1_18_2,18,2.0,792.884260766,1_I,training,03,1_B,213.0,11001,kill,0.0,14200.0,0.726731314051
213,1_18_2,18,2.0,796.91571961,1_I,training,03,1_B,214.0,01001,kill,0.0,14100.0,1.79705782015
214,1_18_2,18,2.0,800.275260573,1_I,training,03,1_B,215.0,00111,ignore,1.0,14200.0,1.20244954495
215,1_18_2,18,2.0,802.869125791,1_I,training,03,1_B,216.0,10111,ignore,1.0,14300.0,0.452758981248
216,1_18_2,18,2.0,805.509861935,1_I,training,03,1_B,217.0,00011,ignore,1.0,14400.0,0.465821606229
217,1_18_2,18,2.0,810.010084236,1_I,training,03,1_B,218.0,01000,kill,0.0,14300.0,2.37833826858
218,1_18_2,18,2.0,813.58842037,1_I,training,03,1_B,219.0,11101,kill,1.0,14400.0,1.40903147568
219,1_18_2,18,2.0,816.869836827,1_I,training,03,1_B,220.0,01110,ignore,1.0,14500.0,1.13764465505
220,1_18_2,18,2.0,819.698087058,1_I,training,03,1_B,221.0,10110,ignore,1.0,14600.0,0.695434218667
221,1_18_2,18,2.0,825.651520743,1_I,training,03,1_B,222.0,10011,ignore,1.0,14700.0,3.79518621805
222,1_18_2,18,2.0,828.636016291,1_I,training,03,1_B,223.0,00010,ignore,1.0,14800.0,0.857745513842
223,1_18_2,18,2.0,831.917401137,1_I,training,03,1_B,224.0,10001,kill,1.0,14900.0,1.1401308192
224,1_18_2,18,2.0,835.79265038,1_I,training,03,1_B,225.0,11000,kill,0.0,14800.0,1.71618810607
225,1_18_2,18,2.0,839.667829011,1_I,training,03,1_B,226.0,10110,ignore,1.0,14900.0,1.74128949649
226,1_18_2,18,2.0,843.44925881,1_I,training,03,1_B,227.0,01100,kill,1.0,15000.0,1.58950252496
227,1_18_2,18,2.0,936.703756464,1_I,test,03,2,0.0,00001,ignore,0.0,0.0,2.39235947897
228,1_18_2,18,2.0,940.078978407,1_I,test,03,2,1.0,00011,ignore,0.0,0.0,1.2506735756
229,1_18_2,18,2.0,944.360422779,1_I,test,03,2,2.0,00000,ignore,1.0,100.0,2.12533781412
230,1_18_2,18,2.0,948.438722581,1_I,test,03,2,3.0,01011,kill,1.0,200.0,1.96231507204
231,1_18_2,18,2.0,952.110800979,1_I,test,03,2,4.0,11101,ignore,1.0,300.0,1.52388314536
232,1_18_2,18,2.0,955.75158064,1_I,test,03,2,5.0,00110,kill,0.0,200.0,1.48216312702
233,1_18_2,18,2.0,958.954899275,1_I,test,03,2,6.0,01111,ignore,0.0,100.0,1.08094976725
234,1_18_2,18,2.0,962.892537854,1_I,test,03,2,7.0,11110,ignore,1.0,200.0,1.78976641306
235,1_18_2,18,2.0,966.345830112,1_I,test,03,2,8.0,11011,kill,1.0,300.0,1.33500281828
236,1_18_2,18,2.0,974.424426316,1_I,test,03,2,9.0,11001,kill,1.0,400.0,5.91134542287
237,1_18_2,18,2.0,979.955907534,1_I,test,03,2,10.0,11100,kill,0.0,300.0,3.3880140286
238,1_18_2,18,2.0,984.143639201,1_I,test,03,2,11.0,10000,kill,0.0,200.0,2.03590487384
239,1_18_2,18,2.0,987.268782424,1_I,test,03,2,12.0,00010,ignore,1.0,300.0,0.919497709454
240,1_18_2,18,2.0,991.909616685,1_I,test,03,2,13.0,10001,ignore,0.0,200.0,2.51313508336
241,1_18_2,18,2.0,995.191011384,1_I,test,03,2,14.0,10111,ignore,0.0,100.0,1.11469813181
242,1_18_2,18,2.0,999.081834457,1_I,test,03,2,15.0,10100,kill,0.0,0.0,1.72148557339
243,1_18_2,18,2.0,1003.59767082,1_I,test,03,2,16.0,11111,ignore,0.0,0.0,2.39010895852
244,1_18_2,18,2.0,1006.64473223,1_I,test,03,2,17.0,01001,ignore,0.0,0.0,0.906891182287
245,1_18_2,18,2.0,1020.33289065,1_I,test,03,2,18.0,10011,kill,1.0,100.0,11.5533106913
246,1_18_2,18,2.0,1029.81772468,1_I,test,03,2,19.0,00101,kill,0.0,0.0,7.30413103103
247,1_18_2,18,2.0,1033.14601083,1_I,test,03,2,20.0,00111,kill,1.0,100.0,1.15738823038
248,1_18_2,18,2.0,1038.36500141,1_I,test,03,2,21.0,10101,kill,0.0,0.0,3.10039529846
249,1_18_2,18,2.0,1042.11515382,1_I,test,03,2,22.0,01000,kill,0.0,0.0,1.61610480972
250,1_18_2,18,2.0,1045.08407266,1_I,test,03,2,23.0,11010,ignore,1.0,100.0,0.857598954957
251,1_18_2,18,2.0,1048.53740474,1_I,test,03,2,24.0,01010,ignore,1.0,200.0,1.32052345743
252,1_18_2,18,2.0,1053.64702545,1_I,test,03,2,25.0,01101,ignore,1.0,300.0,2.95670847632
253,1_18_2,18,2.0,1057.47531961,1_I,test,03,2,26.0,00100,kill,0.0,200.0,1.69293040177
254,1_18_2,18,2.0,1060.6004772,1_I,test,03,2,27.0,10010,ignore,1.0,300.0,0.951782127288
255,1_18_2,18,2.0,1063.63185394,1_I,test,03,2,28.0,01110,ignore,1.0,400.0,0.820478504491
256,1_18_2,18,2.0,1066.53826521,1_I,test,03,2,29.0,01111,ignore,0.0,300.0,0.754333647661
257,1_18_2,18,2.0,1069.61654736,1_I,test,03,2,30.0,01011,ignore,0.0,200.0,0.944675458284
258,1_18_2,18,2.0,1072.49170423,1_I,test,03,2,31.0,00010,ignore,1.0,300.0,0.765841598995
259,1_18_2,18,2.0,1079.78890102,1_I,test,03,2,32.0,01010,kill,0.0,200.0,5.13642127838
260,1_18_2,18,2.0,1082.67967154,1_I,test,03,2,33.0,10011,ignore,0.0,100.0,0.726339258772
261,1_18_2,18,2.0,1086.03924494,1_I,test,03,2,34.0,11011,ignore,0.0,0.0,1.22506353964
262,1_18_2,18,2.0,1089.0706188,1_I,test,03,2,35.0,10001,ignore,0.0,0.0,0.892087092925
263,1_18_2,18,2.0,1093.18020749,1_I,test,03,2,36.0,00001,kill,1.0,100.0,1.9786434559
264,1_18_2,18,2.0,1096.35222369,1_I,test,03,2,37.0,00111,ignore,0.0,0.0,1.0208667829
265,1_18_2,18,2.0,1100.61803553,1_I,test,03,2,38.0,11100,kill,0.0,0.0,2.12968326449
266,1_18_2,18,2.0,1104.25886445,1_I,test,03,2,39.0,11010,ignore,1.0,100.0,1.54058223698
267,1_18_2,18,2.0,1107.72775066,1_I,test,03,2,40.0,01000,kill,0.0,0.0,1.34807201173
268,1_18_2,18,2.0,1111.47793714,1_I,test,03,2,41.0,01001,kill,1.0,100.0,1.63338438947
269,1_18_2,18,2.0,1115.41567712,1_I,test,03,2,42.0,11001,ignore,0.0,0.0,1.7999463028
270,1_18_2,18,2.0,1118.86896158,1_I,test,03,2,43.0,00110,ignore,1.0,100.0,1.24394459335
271,1_18_2,18,2.0,1122.82226307,1_I,test,03,2,44.0,01101,kill,0.0,0.0,1.83375706777
272,1_18_2,18,2.0,1126.02555626,1_I,test,03,2,45.0,01110,ignore,1.0,100.0,1.06983017643
273,1_18_2,18,2.0,1128.96320551,1_I,test,03,2,46.0,10110,ignore,1.0,200.0,0.769645972032
274,1_18_2,18,2.0,1131.60707769,1_I,test,03,2,47.0,00011,ignore,0.0,100.0,0.509983862101
275,1_18_2,18,2.0,1135.79477446,1_I,test,03,2,48.0,00000,kill,0.0,0.0,2.0319720052
276,1_18_2,18,2.0,1139.52937151,1_I,test,03,2,49.0,11101,kill,0.0,0.0,1.62306533037
277,1_18_2,18,2.0,1142.54510627,1_I,test,03,2,50.0,10101,ignore,1.0,100.0,0.842677454277
278,1_18_2,18,2.0,1146.37338031,1_I,test,03,2,51.0,00100,ignore,1.0,200.0,1.65031912478
279,1_18_2,18,2.0,1149.65481893,1_I,test,03,2,52.0,10100,ignore,1.0,300.0,1.10415820806
280,1_18_2,18,2.0,1153.21750324,1_I,test,03,2,53.0,00101,ignore,1.0,400.0,1.40228360909
281,1_18_2,18,2.0,1157.01455572,1_I,test,03,2,54.0,10111,kill,1.0,500.0,1.69320340361
282,1_18_2,18,2.0,1160.37409873,1_I,test,03,2,55.0,11110,kill,0.0,400.0,1.20246021871
283,1_18_2,18,2.0,1163.85866264,1_I,test,03,2,56.0,01100,ignore,1.0,500.0,1.33488048062
284,1_18_2,18,2.0,1167.51507976,1_I,test,03,2,57.0,11000,ignore,1.0,600.0,1.54333319239
285,1_18_2,18,2.0,1171.64028867,1_I,test,03,2,58.0,10010,ignore,1.0,700.0,1.97501930513
286,1_18_2,18,2.0,1175.45293346,1_I,test,03,2,59.0,10000,kill,0.0,600.0,1.71331727617
287,1_18_2,18,2.0,1178.593763,1_I,test,03,2,60.0,11111,ignore,0.0,500.0,1.00278133456
288,1_18_2,18,2.0,1182.8283504,1_I,test,03,2,61.0,01000,ignore,1.0,600.0,2.08899449521
289,1_18_2,18,2.0,1188.93802201,1_I,test,03,2,62.0,00010,ignore,1.0,700.0,3.99132305724
290,1_18_2,18,2.0,1193.06320547,1_I,test,03,2,63.0,01101,kill,0.0,600.0,1.98520863704
291,1_18_2,18,2.0,1196.29773745,1_I,test,03,2,64.0,00001,ignore,0.0,500.0,1.07774764038
292,1_18_2,18,2.0,1200.21980918,1_I,test,03,2,65.0,10101,kill,0.0,400.0,1.76857736482
293,1_18_2,18,2.0,1203.53246443,1_I,test,03,2,66.0,11101,ignore,1.0,500.0,1.17488498001
294,1_18_2,18,2.0,1206.81389526,1_I,test,03,2,67.0,01001,ignore,0.0,400.0,1.17620606261
295,1_18_2,18,2.0,1210.26715878,1_I,test,03,2,68.0,10011,ignore,0.0,300.0,1.30563931489
296,1_18_2,18,2.0,1215.29864759,1_I,test,03,2,69.0,00100,kill,0.0,200.0,2.85580658497
297,1_18_2,18,2.0,1219.78325255,1_I,test,03,2,70.0,00101,kill,0.0,100.0,2.34060325607
298,1_18_2,18,2.0,1223.04906274,1_I,test,03,2,71.0,10110,ignore,1.0,200.0,1.11920656223
299,1_18_2,18,2.0,1226.68986991,1_I,test,03,2,72.0,10100,kill,0.0,100.0,1.51630067315
300,1_18_2,18,2.0,1229.97124572,1_I,test,03,2,73.0,01011,ignore,0.0,0.0,1.11006161631
301,1_18_2,18,2.0,1234.40894198,1_I,test,03,2,74.0,01110,ignore,1.0,100.0,2.31421773067
302,1_18_2,18,2.0,1238.08100888,1_I,test,03,2,75.0,01100,kill,0.0,0.0,1.53808047273
303,1_18_2,18,2.0,1241.03428575,1_I,test,03,2,76.0,01010,ignore,1.0,100.0,0.820639021365
304,1_18_2,18,2.0,1244.98760695,1_I,test,03,2,77.0,10010,ignore,1.0,200.0,1.85290742857
305,1_18_2,18,2.0,1248.40964111,1_I,test,03,2,78.0,11001,kill,1.0,300.0,1.2934445484
306,1_18_2,18,2.0,1252.97238987,1_I,test,03,2,79.0,00000,kill,0.0,200.0,2.40146501409
307,1_18_2,18,2.0,1256.3944269,1_I,test,03,2,80.0,11100,kill,0.0,100.0,1.32913102077
308,1_18_2,18,2.0,1260.56646856,1_I,test,03,2,81.0,00111,kill,1.0,200.0,2.03299134892
309,1_18_2,18,2.0,1263.51976841,1_I,test,03,2,82.0,11010,ignore,1.0,300.0,0.802653331588
310,1_18_2,18,2.0,1267.00430152,1_I,test,03,2,83.0,11011,ignore,0.0,200.0,1.35345445857
311,1_18_2,18,2.0,1270.30130905,1_I,test,03,2,84.0,11110,ignore,1.0,300.0,1.17637971641
312,1_18_2,18,2.0,1275.67663117,1_I,test,03,2,85.0,11111,ignore,0.0,200.0,3.26064779026
313,1_18_2,18,2.0,1278.61430177,1_I,test,03,2,86.0,10111,ignore,0.0,100.0,0.778763823027
314,1_18_2,18,2.0,1281.77061975,1_I,test,03,2,87.0,00011,ignore,0.0,0.0,1.01310326736
315,1_18_2,18,2.0,1285.52083661,1_I,test,03,2,88.0,10001,kill,1.0,100.0,1.61826911906
316,1_18_2,18,2.0,1289.17727303,1_I,test,03,2,89.0,01111,ignore,0.0,0.0,1.52389176647
317,1_18_2,18,2.0,1291.97427009,1_I,test,03,2,90.0,10000,kill,0.0,0.0,0.706542314671
318,1_18_2,18,2.0,1296.31823968,1_I,test,03,2,91.0,11000,kill,0.0,0.0,2.18941688859
319,1_18_2,18,2.0,1299.77154385,1_I,test,03,2,92.0,00110,kill,0.0,0.0,1.28827147139
320,1_18_2,18,2.0,1303.69362461,1_I,test,03,2,93.0,11101,kill,0.0,0.0,1.8100169918
321,1_18_2,18,2.0,1307.42812436,1_I,test,03,2,94.0,01000,ignore,1.0,100.0,1.58718631986
322,1_18_2,18,2.0,1311.03771777,1_I,test,03,2,95.0,01111,kill,1.0,200.0,1.49015120197
323,1_18_2,18,2.0,1316.66297533,1_I,test,03,2,96.0,11100,kill,0.0,100.0,3.50462809965
324,1_18_2,18,2.0,1320.38189673,1_I,test,03,2,97.0,00011,ignore,0.0,0.0,1.58149967096
325,1_18_2,18,2.0,1329.74176037,1_I,test,03,2,98.0,10010,ignore,1.0,100.0,7.22998126756
326,1_18_2,18,2.0,1333.7575834,1_I,test,03,2,99.0,01101,kill,0.0,0.0,1.85748975422
327,1_18_2,18,2.0,1338.03900601,1_I,test,03,2,100.0,11000,ignore,1.0,100.0,2.14156849206
328,1_18_2,18,2.0,1347.94577855,1_I,test,03,2,101.0,10001,kill,1.0,200.0,7.67569515917
329,1_18_2,18,2.0,1355.97739627,1_I,test,03,2,102.0,00101,kill,0.0,100.0,5.87659454629
330,1_18_2,18,2.0,1360.6026645,1_I,test,03,3,0.0,00001,kill,0.0,0.0,2.51482974743
331,1_18_2,18,2.0,1363.72784262,1_I,test,03,3,1.0,01010,ignore,1.0,100.0,0.999124751988
332,1_18_2,18,2.0,1367.43109454,1_I,test,03,3,2.0,00000,kill,0.0,0.0,1.54310658033
333,1_18_2,18,2.0,1371.04061446,1_I,test,03,3,3.0,11110,ignore,0.0,0.0,1.48618015412
334,1_18_2,18,2.0,1374.27514152,1_I,test,03,3,4.0,00100,kill,0.0,0.0,1.05671993008
335,1_18_2,18,2.0,1377.69723028,1_I,test,03,3,5.0,01100,kill,0.0,0.0,1.3055194404
336,1_18_2,18,2.0,1380.54109417,1_I,test,03,3,6.0,00110,ignore,1.0,100.0,0.658108093128
337,1_18_2,18,2.0,1384.10374932,1_I,test,03,3,7.0,10100,kill,1.0,200.0,1.40568402151
338,1_18_2,18,2.0,1387.07270183,1_I,test,03,3,8.0,11011,ignore,0.0,100.0,0.85531682377
339,1_18_2,18,2.0,1390.66660194,1_I,test,03,3,9.0,11001,kill,1.0,200.0,1.42000943396
340,1_18_2,18,2.0,1394.10423785,1_I,test,03,3,10.0,01011,ignore,1.0,300.0,1.34357959194
341,1_18_2,18,2.0,1397.24501936,1_I,test,03,3,11.0,10011,ignore,1.0,400.0,0.960076867466
342,1_18_2,18,2.0,1402.38593183,1_I,test,03,3,12.0,00010,ignore,1.0,500.0,2.96959662644
343,1_18_2,18,2.0,1405.21418082,1_I,test,03,3,13.0,11010,ignore,0.0,400.0,0.735702606162
344,1_18_2,18,2.0,1408.51121052,1_I,test,03,3,14.0,01001,ignore,1.0,500.0,1.15190848814
345,1_18_2,18,2.0,1412.0895446,1_I,test,03,3,15.0,01110,kill,0.0,400.0,1.49069556354
346,1_18_2,18,2.0,1415.19906104,1_I,test,03,3,16.0,10111,ignore,1.0,500.0,0.999114899292
347,1_18_2,18,2.0,1418.66795545,1_I,test,03,3,17.0,00111,kill,0.0,400.0,1.28314971052
348,1_18_2,18,2.0,1421.98066572,1_I,test,03,3,18.0,10101,kill,0.0,300.0,1.21300465827
349,1_18_2,18,2.0,1424.82450662,1_I,test,03,3,19.0,11111,ignore,0.0,200.0,0.700927918891
350,1_18_2,18,2.0,1428.27783993,1_I,test,03,3,20.0,10110,ignore,0.0,100.0,1.28472080533
351,1_18_2,18,2.0,1431.52802333,1_I,test,03,3,21.0,10000,kill,1.0,200.0,1.10373084728
352,1_18_2,18,2.0,1434.79379411,1_I,test,03,3,22.0,01111,ignore,1.0,300.0,1.10239950145
353,1_18_2,18,2.0,1438.35639672,1_I,test,03,3,23.0,00001,ignore,1.0,400.0,1.44510795068
354,1_18_2,18,2.0,1441.90351499,1_I,test,03,3,24.0,11110,kill,1.0,500.0,1.39556037426
355,1_18_2,18,2.0,1445.98186159,1_I,test,03,3,25.0,01001,kill,0.0,400.0,1.93803473979
356,1_18_2,18,2.0,1449.70072471,1_I,test,03,3,26.0,00010,ignore,1.0,500.0,1.59528072184
357,1_18_2,18,2.0,1454.12282825,1_I,test,03,3,27.0,00100,kill,0.0,400.0,1.89998197777
358,1_18_2,18,2.0,1457.43552251,1_I,test,03,3,28.0,10010,ignore,0.0,300.0,1.20555355537
359,1_18_2,18,2.0,1460.88881271,1_I,test,03,3,29.0,11011,ignore,0.0,200.0,1.26620306985
360,1_18_2,18,2.0,1464.18582312,1_I,test,03,3,30.0,00000,kill,0.0,100.0,1.11561935907
361,1_18_2,18,2.0,1467.45161319,1_I,test,03,3,31.0,10001,kill,0.0,0.0,1.14740908936
362,1_18_2,18,2.0,1470.45176057,1_I,test,03,3,32.0,10111,ignore,1.0,100.0,0.836989573792
363,1_18_2,18,2.0,1473.88944329,1_I,test,03,3,33.0,01101,kill,0.0,0.0,1.32836497349
364,1_18_2,18,2.0,1476.57702901,1_I,test,03,3,34.0,01010,ignore,1.0,100.0,0.571311570638
365,1_18_2,18,2.0,1479.32715597,1_I,test,03,3,35.0,01110,ignore,1.0,200.0,0.615051392084
366,1_18_2,18,2.0,1482.0772977,1_I,test,03,3,36.0,10011,ignore,1.0,300.0,0.625517831126
367,1_18_2,18,2.0,1486.01501141,1_I,test,03,3,37.0,10101,ignore,1.0,400.0,1.77736309779
368,1_18_2,18,2.0,1488.98386621,1_I,test,03,3,38.0,00011,ignore,1.0,500.0,0.81793322416
369,1_18_2,18,2.0,1492.12467891,1_I,test,03,3,39.0,10110,ignore,0.0,400.0,1.0047748638
370,1_18_2,18,2.0,1496.84676715,1_I,test,03,3,40.0,11100,kill,1.0,500.0,2.53873280345
371,1_18_2,18,2.0,1500.26884606,1_I,test,03,3,41.0,00111,ignore,1.0,600.0,1.31775895456
372,1_18_2,18,2.0,1504.81855682,1_I,test,03,3,42.0,01011,kill,0.0,500.0,2.4236360479
373,1_18_2,18,2.0,1509.10307811,1_I,test,03,3,43.0,10000,ignore,0.0,400.0,2.09029874612
374,1_18_2,18,2.0,1512.85644332,1_I,test,03,3,44.0,11001,kill,1.0,500.0,1.62178078486
375,1_18_2,18,2.0,1516.69148,1_I,test,03,3,45.0,11101,kill,1.0,600.0,1.68633484148
376,1_18_2,18,2.0,1519.83231036,1_I,test,03,3,46.0,11000,kill,1.0,700.0,1.04562086572
377,1_18_2,18,2.0,1523.0607698,1_I,test,03,3,47.0,10100,kill,1.0,800.0,1.03634331891
378,1_18_2,18,2.0,1526.2171937,1_I,test,03,3,48.0,11010,ignore,0.0,700.0,1.02927400805
379,1_18_2,18,2.0,1529.93617751,1_I,test,03,3,49.0,00101,kill,0.0,600.0,1.60379263191
380,1_18_2,18,2.0,1533.20193885,1_I,test,03,3,50.0,00110,ignore,1.0,700.0,1.100889986
381,1_18_2,18,2.0,1537.32712394,1_I,test,03,3,51.0,01000,kill,0.0,600.0,2.02354466413
382,1_18_2,18,2.0,1543.12429014,1_I,test,03,3,52.0,11111,ignore,0.0,500.0,3.62828274452
383,1_18_2,18,2.0,1547.26510162,1_I,test,03,3,53.0,01100,kill,0.0,400.0,1.9718007571
384,1_18_2,18,2.0,1552.54661989,1_I,test,03,3,54.0,11011,ignore,0.0,300.0,3.16860470606
385,1_18_2,18,2.0,1560.00011207,1_I,test,03,3,55.0,00110,ignore,1.0,400.0,5.31095032967
386,1_18_2,18,2.0,1571.62566234,1_I,test,03,3,56.0,01110,ignore,1.0,500.0,9.52249309387
387,1_18_2,18,2.0,1576.57903075,1_I,test,03,3,57.0,01100,kill,0.0,400.0,2.8083219172
388,1_18_2,18,2.0,1582.43868317,1_I,test,03,3,58.0,00000,kill,0.0,300.0,3.68616200873
389,1_18_2,18,2.0,1591.57976354,1_I,test,03,3,59.0,00101,kill,0.0,200.0,7.01750783392
390,1_18_2,18,2.0,1596.01746596,1_I,test,03,3,60.0,01111,ignore,1.0,300.0,2.32039947764
391,1_18_2,18,2.0,1600.8926996,1_I,test,03,3,61.0,10011,ignore,1.0,400.0,2.69768884441
392,1_18_2,18,2.0,1604.62725724,1_I,test,03,3,62.0,11010,ignore,0.0,300.0,1.57737221153
393,1_18_2,18,2.0,1610.83072244,1_I,test,03,3,63.0,11000,ignore,0.0,200.0,4.07637770482
394,1_18_2,18,2.0,1616.5810058,1_I,test,03,3,64.0,10100,kill,1.0,300.0,3.63631023026
395,1_18_2,18,2.0,1620.53428718,1_I,test,03,3,65.0,01001,kill,0.0,200.0,1.77143136303
396,1_18_2,18,2.0,1624.75327243,1_I,test,03,3,66.0,01101,ignore,1.0,300.0,2.09083982346
397,1_18_2,18,2.0,1628.50342443,1_I,test,03,3,67.0,00100,kill,0.0,200.0,1.64833996406
398,1_18_2,18,2.0,1631.45673947,1_I,test,03,3,68.0,11110,ignore,0.0,100.0,0.838835312563
399,1_18_2,18,2.0,1634.58185724,1_I,test,03,3,69.0,01010,ignore,1.0,200.0,1.04065921118
400,1_18_2,18,2.0,1640.58213353,1_I,test,03,3,70.0,10001,kill,0.0,100.0,3.72942274274
401,1_18_2,18,2.0,1643.41042112,1_I,test,03,3,71.0,01000,ignore,1.0,200.0,0.685509267489
402,1_18_2,18,2.0,1646.62931769,1_I,test,03,3,72.0,10110,ignore,0.0,100.0,1.09350046246
403,1_18_2,18,2.0,1649.41070684,1_I,test,03,3,73.0,10010,ignore,0.0,0.0,0.634266616473
404,1_18_2,18,2.0,1652.11394522,1_I,test,03,3,74.0,00011,ignore,1.0,100.0,0.614356366341
405,1_18_2,18,2.0,1655.61415356,1_I,test,03,3,75.0,11101,kill,1.0,200.0,1.31454656447
406,1_18_2,18,2.0,1658.75495437,1_I,test,03,3,76.0,11111,ignore,0.0,100.0,0.880586531115
407,1_18_2,18,2.0,1664.67706715,1_I,test,03,3,77.0,00111,ignore,1.0,200.0,3.65344201954
408,1_18_2,18,2.0,1667.97412066,1_I,test,03,3,78.0,10101,kill,0.0,100.0,1.14816446288
409,1_18_2,18,2.0,1672.00554255,1_I,test,03,3,79.0,11001,ignore,0.0,0.0,1.94719159105
410,1_18_2,18,2.0,1675.25572349,1_I,test,03,3,80.0,10000,kill,1.0,100.0,1.12687729819
411,1_18_2,18,2.0,1678.0683728,1_I,test,03,3,81.0,01011,ignore,1.0,200.0,0.659846683808
412,1_18_2,18,2.0,1680.91225105,1_I,test,03,3,82.0,00010,ignore,1.0,300.0,0.73188181196
413,1_18_2,18,2.0,1684.31865514,1_I,test,03,3,83.0,11100,ignore,0.0,200.0,1.28602916152
414,1_18_2,18,2.0,1687.10003691,1_I,test,03,3,84.0,10111,ignore,1.0,300.0,0.617300680944
415,1_18_2,18,2.0,1690.287723,1_I,test,03,3,85.0,00001,kill,0.0,200.0,1.02362635942
416,1_18_2,18,2.0,1693.35038206,1_I,test,03,3,86.0,00000,ignore,1.0,300.0,0.885463206125
417,1_18_2,18,2.0,1696.16300181,1_I,test,03,3,87.0,00011,ignore,1.0,400.0,0.707427825908
418,1_18_2,18,2.0,1699.47568539,1_I,test,03,3,88.0,01111,ignore,1.0,500.0,1.14416385694
419,1_18_2,18,2.0,1702.25703596,1_I,test,03,3,89.0,10111,ignore,1.0,600.0,0.600856117357
420,1_18_2,18,2.0,1705.67907505,1_I,test,03,3,90.0,11100,ignore,0.0,500.0,1.32843599502
421,1_18_2,18,2.0,1708.77301149,1_I,test,03,3,91.0,11101,ignore,0.0,400.0,0.93435845183
422,1_18_2,18,2.0,1711.86689785,1_I,test,03,3,92.0,01100,kill,0.0,300.0,0.983020927541
423,1_18_2,18,2.0,1714.91389768,1_I,test,03,3,93.0,11011,ignore,0.0,200.0,0.843498922977
424,1_18_2,18,2.0,1718.41409782,1_I,test,03,3,94.0,10000,kill,1.0,300.0,1.29627432539
425,1_18_2,18,2.0,1724.03936317,1_I,test,03,3,95.0,00110,kill,0.0,200.0,3.48909983698
426,1_18_2,18,2.0,1727.28953344,1_I,test,03,3,96.0,00101,kill,0.0,100.0,1.08336696251
427,1_18_2,18,2.0,1731.07095831,1_I,test,03,3,97.0,01000,ignore,1.0,200.0,1.6876349871
428,1_18_2,18,2.0,1735.68058087,1_I,test,03,3,98.0,11110,ignore,0.0,100.0,2.47336836241
429,1_18_2,18,2.0,1738.79004763,1_I,test,03,3,99.0,10001,ignore,1.0,200.0,0.95052344511
430,1_18_2,18,2.0,1741.64958551,1_I,test,03,3,100.0,11001,ignore,0.0,100.0,0.751369217132
431,1_18_2,18,2.0,1744.30594762,1_I,test,03,3,101.0,00010,ignore,1.0,200.0,0.52076558748
432,1_18_2,18,2.0,1747.13420812,1_I,test,03,3,102.0,01010,ignore,1.0,300.0,0.695628398924
433,1_18_2,18,2.0,1751.55632356,1_I,test,03,3,103.0,11000,kill,1.0,400.0,2.28051206114
434,1_18_2,18,2.0,1754.69712724,1_I,test,03,3,104.0,10011,ignore,1.0,500.0,0.96954079448
435,1_18_2,18,2.0,1757.8378989,1_I,test,03,3,105.0,10010,ignore,0.0,400.0,1.06401749511
436,1_18_2,18,2.0,1761.19740086,1_I,test,03,3,106.0,11010,kill,1.0,500.0,1.20188465693
437,1_18_2,18,2.0,1765.85388285,1_I,test,03,3,107.0,11111,kill,1.0,600.0,2.48726928779
438,1_18_2,18,2.0,1771.07288205,1_I,test,03,3,108.0,00001,ignore,1.0,700.0,3.10017730751
439,1_18_2,18,2.0,1774.24493972,1_I,test,03,3,109.0,10110,ignore,0.0,600.0,1.0146041617
440,1_18_2,18,2.0,1778.04198317,1_I,test,03,3,110.0,01001,ignore,1.0,700.0,1.69464887653
441,1_18_2,18,2.0,1781.26088426,1_I,test,03,4,0.0,00111,kill,1.0,800.0,1.0472748874
442,1_18_2,18,2.0,1784.71422249,1_I,test,03,4,1.0,00100,ignore,1.0,900.0,1.23258155879
443,1_18_2,18,2.0,1787.90188026,1_I,test,03,4,2.0,01110,kill,1.0,1000.0,1.05160884296
444,1_18_2,18,2.0,1790.83949339,1_I,test,03,4,3.0,10101,ignore,1.0,1100.0,0.757060381849
445,1_18_2,18,2.0,1794.99597107,1_I,test,03,4,4.0,01011,kill,1.0,1200.0,2.06140406695
446,1_18_2,18,2.0,1798.62114652,1_I,test,03,4,5.0,10100,ignore,1.0,1300.0,1.4815461018
447,1_18_2,18,2.0,1802.43380116,1_I,test,03,4,6.0,01101,ignore,1.0,1400.0,1.6396700003
448,1_18_2,18,2.0,1805.73086001,1_I,test,03,4,7.0,11100,ignore,1.0,1500.0,1.17915407198
449,1_18_2,18,2.0,1808.99666938,1_I,test,03,4,8.0,10001,ignore,1.0,1600.0,1.11324937466
450,1_18_2,18,2.0,1812.38746392,1_I,test,03,4,9.0,00110,kill,1.0,1700.0,1.26936291223
451,1_18_2,18,2.0,1816.04382685,1_I,test,03,4,10.0,01000,ignore,1.0,1800.0,1.49974978252
452,1_18_2,18,2.0,1819.2940119,1_I,test,03,5,0.0,00100,ignore,1.0,1900.0,1.06867905288
453,1_18_2,18,2.0,1823.23167429,1_I,test,03,5,1.0,01100,ignore,1.0,2000.0,1.84363275546
454,1_18_2,18,2.0,1826.56002243,1_I,test,03,5,2.0,11011,kill,1.0,2100.0,1.16421697119
455,1_18_2,18,2.0,1829.66952573,1_I,test,03,5,3.0,01011,kill,1.0,2200.0,0.928836014567
456,1_18_2,18,2.0,1832.79465417,1_I,test,03,5,4.0,00000,kill,0.0,2100.0,0.969826522723
457,1_18_2,18,2.0,1835.77921992,1_I,test,03,5,5.0,00101,ignore,1.0,2200.0,0.805377192071
458,1_18_2,18,2.0,1838.59184377,1_I,test,03,5,6.0,10101,ignore,1.0,2300.0,0.684043268122
459,1_18_2,18,2.0,1841.90446865,1_I,test,03,5,7.0,00010,kill,0.0,2200.0,1.16455565769
460,1_18_2,18,2.0,1845.56094325,1_I,test,03,5,8.0,00111,ignore,0.0,2100.0,1.46604534458
461,1_18_2,18,2.0,1849.37359502,1_I,test,03,5,9.0,10110,kill,0.0,2000.0,1.69522731201
462,1_18_2,18,2.0,1852.54563092,1_I,test,03,5,10.0,11110,ignore,1.0,2100.0,1.01589486514
463,1_18_2,18,2.0,1855.63953247,1_I,test,03,5,11.0,01010,ignore,1.0,2200.0,1.00923977813
464,1_18_2,18,2.0,1858.87406076,1_I,test,03,5,12.0,00001,kill,1.0,2300.0,1.04823757811
465,1_18_2,18,2.0,1862.06174645,1_I,test,03,5,13.0,01111,ignore,0.0,2200.0,1.03748007394
466,1_18_2,18,2.0,1865.28064015,1_I,test,03,5,14.0,00011,ignore,0.0,2100.0,1.08400040889
467,1_18_2,18,2.0,1868.51513108,1_I,test,03,5,15.0,10111,kill,1.0,2200.0,1.07681204459
468,1_18_2,18,2.0,1871.56221014,1_I,test,03,5,16.0,01110,kill,0.0,2100.0,0.952696786091
469,1_18_2,18,2.0,1877.12497737,1_I,test,03,5,17.0,01001,ignore,0.0,2000.0,3.41054879118
470,1_18_2,18,2.0,1880.93763858,1_I,test,03,5,18.0,11001,kill,1.0,2100.0,1.65415182433
471,1_18_2,18,2.0,1884.04716446,1_I,test,03,5,19.0,11101,kill,0.0,2000.0,1.00710872165
472,1_18_2,18,2.0,1887.0316912,1_I,test,03,5,20.0,10100,ignore,1.0,2100.0,0.861260053345
473,1_18_2,18,2.0,1890.89124756,1_I,test,03,5,21.0,11111,kill,1.0,2200.0,1.71539291123
474,1_18_2,18,2.0,1894.04769445,1_I,test,03,5,22.0,10010,kill,0.0,2100.0,1.00391932118
475,1_18_2,18,2.0,1898.98538434,1_I,test,03,5,23.0,10000,ignore,1.0,2200.0,2.77164032233
476,1_18_2,18,2.0,1902.42308553,1_I,test,03,5,24.0,10011,kill,1.0,2300.0,1.34183402227
477,1_18_2,18,2.0,1905.75138071,1_I,test,03,5,25.0,01101,kill,0.0,2200.0,1.15219175321
478,1_18_2,18,2.0,1910.65783263,1_I,test,03,5,26.0,11010,kill,0.0,2100.0,2.76448356878
479,1_18_2,18,2.0,1914.564271,1_I,test,03,5,27.0,11000,ignore,1.0,2200.0,1.7901551841
480,1_18_2,18,2.0,1918.90824593,1_I,test,03,5,28.0,01110,kill,0.0,2100.0,2.19487405173
481,1_18_2,18,2.0,1922.08028923,1_I,test,03,5,29.0,01001,ignore,0.0,2000.0,1.07740238542
482,1_18_2,18,2.0,1925.58047499,1_I,test,03,5,30.0,00001,ignore,0.0,1900.0,1.30320775112
483,1_18_2,18,2.0,1929.09626743,1_I,test,03,5,31.0,01111,kill,1.0,2000.0,1.36058247509
484,1_18_2,18,2.0,1932.72146258,1_I,test,03,5,32.0,10110,kill,0.0,1900.0,1.49056419423
485,1_18_2,18,2.0,1935.70595895,1_I,test,03,5,33.0,10010,ignore,1.0,2000.0,0.828608622507
486,1_18_2,18,2.0,1938.5967381,1_I,test,03,5,34.0,10100,ignore,1.0,2100.0,0.761808150726
487,1_18_2,18,2.0,1941.98752074,1_I,test,03,5,35.0,00100,ignore,1.0,2200.0,1.24280168038
488,1_18_2,18,2.0,1945.40952822,1_I,test,03,5,36.0,11010,ignore,1.0,2300.0,1.27213932044
489,1_18_2,18,2.0,1948.67530516,1_I,test,03,5,37.0,01100,ignore,1.0,2400.0,1.13280739084
490,1_18_2,18,2.0,1952.45676739,1_I,test,03,5,38.0,00110,kill,0.0,2300.0,1.61936153696
491,1_18_2,18,2.0,1956.48821843,1_I,test,03,5,39.0,11101,kill,0.0,2200.0,1.93465936965
492,1_18_2,18,2.0,1959.55083479,1_I,test,03,5,40.0,10011,ignore,0.0,2100.0,0.92635641889
493,1_18_2,18,2.0,1962.7854304,1_I,test,03,5,41.0,01101,ignore,1.0,2200.0,1.06760716143
494,1_18_2,18,2.0,1966.44181715,1_I,test,03,5,42.0,11011,kill,1.0,2300.0,1.55749398267
495,1_18_2,18,2.0,1970.16076771,1_I,test,03,5,43.0,11111,kill,1.0,2400.0,1.60571226591
496,1_18_2,18,2.0,1973.62966787,1_I,test,03,5,44.0,01010,kill,0.0,2300.0,1.32291807358
497,1_18_2,18,2.0,1976.67673996,1_I,test,03,5,45.0,00010,ignore,1.0,2400.0,0.894596246697
498,1_18_2,18,2.0,1980.09875729,1_I,test,03,5,46.0,10001,kill,1.0,2500.0,1.27993157301
499,1_18_2,18,2.0,1982.91139633,1_I,test,03,5,47.0,11000,ignore,1.0,2600.0,0.681468840226
500,1_18_2,18,2.0,1986.41156403,1_I,test,03,5,48.0,01000,ignore,1.0,2700.0,1.33620772115
501,1_18_2,18,2.0,1989.55232008,1_I,test,03,5,49.0,00101,ignore,1.0,2800.0,0.945756791894
502,1_18_2,18,2.0,1992.81814054,1_I,test,03,5,50.0,00000,ignore,1.0,2900.0,1.13927650817
503,1_18_2,18,2.0,1996.13079867,1_I,test,03,5,51.0,10000,ignore,1.0,3000.0,1.16026891297
504,1_18_2,18,2.0,1999.05279732,1_I,test,03,5,52.0,10111,kill,1.0,3100.0,0.734040784422
505,1_18_2,18,2.0,2003.83428296,1_I,test,03,5,53.0,11100,ignore,1.0,3200.0,2.60551603301
506,1_18_2,18,2.0,2008.06887693,1_I,test,03,5,54.0,11110,kill,0.0,3100.0,2.09706878128
507,1_18_2,18,2.0,2011.45962467,1_I,test,03,5,55.0,11001,ignore,0.0,3000.0,1.25197043698
508,1_18_2,18,2.0,2015.67866411,1_I,test,03,5,56.0,00111,ignore,0.0,2900.0,2.0399325747
509,1_18_2,18,2.0,2018.97561786,1_I,test,03,5,57.0,00011,kill,1.0,3000.0,1.21136869987
510,1_18_2,18,2.0,2022.13204216,1_I,test,03,5,58.0,01011,kill,1.0,3100.0,1.01733294853
511,1_18_2,18,2.0,2025.31971307,1_I,test,03,5,59.0,10101,ignore,1.0,3200.0,0.99938502743
512,1_18_2,18,2.0,2028.50735073,1_I,test,03,5,60.0,10100,ignore,1.0,3300.0,1.06160686832
513,1_18_2,18,2.0,2031.91377617,1_I,test,03,5,61.0,01110,ignore,1.0,3400.0,1.29694759309
514,1_18_2,18,2.0,2035.64834694,1_I,test,03,5,62.0,00011,kill,1.0,3500.0,1.57292330783
515,1_18_2,18,2.0,2038.86725829,1_I,test,03,5,63.0,00101,ignore,1.0,3600.0,1.03301351749
516,1_18_2,18,2.0,2042.21114907,1_I,test,03,5,64.0,00111,kill,1.0,3700.0,1.173861531
517,1_18_2,18,2.0,2045.96134417,1_I,test,03,5,65.0,11010,kill,0.0,3600.0,1.6691480413
518,1_18_2,18,2.0,2050.93031967,1_I,test,03,5,66.0,10010,kill,0.0,3500.0,2.83379935227
519,1_18_2,18,2.0,2054.72739309,1_I,test,03,5,67.0,11100,ignore,1.0,3600.0,1.63360771729
520,1_18_2,18,2.0,2057.97756007,1_I,test,03,5,68.0,11001,ignore,0.0,3500.0,1.14128645858
521,1_18_2,18,2.0,2062.36838704,1_I,test,03,5,69.0,11110,ignore,1.0,3600.0,2.23540271466
522,1_18_2,18,2.0,2066.61861027,1_I,test,03,5,70.0,01101,kill,0.0,3500.0,2.15256246097
523,1_18_2,18,2.0,2071.15008533,1_I,test,03,5,71.0,01011,kill,1.0,3600.0,2.37774915934
524,1_18_2,18,2.0,2078.05665342,1_I,test,03,5,72.0,10001,ignore,0.0,3500.0,4.73286667124
525,1_18_2,18,2.0,2081.97872556,1_I,test,03,5,73.0,00000,ignore,1.0,3600.0,1.77433873001
526,1_18_2,18,2.0,2087.43524458,1_I,test,03,5,74.0,01010,ignore,1.0,3700.0,3.2714529158
527,1_18_2,18,2.0,2092.16988186,1_I,test,03,5,75.0,11111,kill,1.0,3800.0,2.63949552544
528,1_18_2,18,2.0,2099.21709763,1_I,test,03,5,76.0,00001,ignore,0.0,3700.0,4.87580756203
529,1_18_2,18,2.0,2103.31102422,1_I,test,03,5,77.0,10011,kill,1.0,3800.0,1.9472798548
530,1_18_2,18,2.0,2110.40508547,1_I,test,03,5,78.0,00110,kill,0.0,3700.0,4.93993384734
531,1_18_2,18,2.0,2115.73347508,1_I,test,03,5,79.0,11101,ignore,1.0,3800.0,3.17317348425
532,1_18_2,18,2.0,2118.63987526,1_I,test,03,5,80.0,01000,ignore,1.0,3900.0,0.824218424463
533,1_18_2,18,2.0,2122.31192246,1_I,test,03,5,81.0,10111,kill,1.0,4000.0,1.50731706516
534,1_18_2,18,2.0,2126.56214897,1_I,test,03,5,82.0,01111,kill,1.0,4100.0,2.09117153096
535,1_18_2,18,2.0,2129.98418847,1_I,test,03,5,83.0,11011,kill,1.0,4200.0,1.3473531753
536,1_18_2,18,2.0,2134.6563108,1_I,test,03,5,84.0,01100,ignore,1.0,4300.0,2.56234479435
537,1_18_2,18,2.0,2139.15653392,1_I,test,03,5,85.0,11000,kill,0.0,4200.0,2.34211728734
538,1_18_2,18,2.0,2144.81302124,1_I,test,03,5,86.0,01001,ignore,0.0,4100.0,3.49328805471
539,1_18_2,18,2.0,2148.03194737,1_I,test,03,5,87.0,10101,ignore,1.0,4200.0,1.03954873001
540,1_18_2,18,2.0,2151.14148228,1_I,test,03,5,88.0,00100,ignore,1.0,4300.0,0.977393394835
541,1_18_2,18,2.0,2160.04817723,1_I,test,03,5,89.0,10000,ignore,1.0,4400.0,6.74726597892
542,1_18_2,18,2.0,2163.50146292,1_I,test,03,5,90.0,10110,kill,0.0,4300.0,1.29242150992
543,1_18_2,18,2.0,2166.57971264,1_I,test,03,5,91.0,00010,ignore,1.0,4400.0,0.955846365237
544,1_18_2,18,2.0,2169.89239704,1_I,test,03,5,92.0,10101,ignore,1.0,4500.0,1.13620082426
545,1_18_2,18,2.0,2184.78374313,1_I,test,03,5,93.0,01111,ignore,0.0,4400.0,12.8160053796
