,unique_id,pair_id,sbj_id,wall_time,condition,block,rule_id,rule_num,trial,stimulus,choice,correct,points,reaction_time
0,2_42_1,42,1.0,66.2485632449,2_ND,training,02,1_B,1.0,11000,kill,0.0,0.0,3.72062847335
1,2_42_1,42,1.0,70.7016266461,2_ND,training,02,1_B,2.0,01111,ignore,0.0,0.0,2.32244769941
2,2_42_1,42,1.0,75.5110759149,2_ND,training,02,1_B,3.0,00110,ignore,0.0,0.0,2.64948718549
3,2_42_1,42,1.0,79.9640744522,2_ND,training,02,1_B,4.0,01001,ignore,0.0,0.0,2.3384505994
4,2_42_1,42,1.0,87.4638500972,2_ND,training,02,1_B,5.0,00011,kill,0.0,0.0,5.39635555413
5,2_42_1,42,1.0,92.1043146374,2_ND,training,02,1_B,6.0,00101,ignore,0.0,0.0,2.47980783876
6,2_42_1,42,1.0,96.1823134312,2_ND,training,02,1_B,7.0,00100,ignore,0.0,0.0,1.87442890038
7,2_42_1,42,1.0,101.447816407,2_ND,training,02,1_B,8.0,01010,ignore,0.0,0.0,3.12270928961
8,2_42_1,42,1.0,105.072700073,2_ND,training,02,1_B,9.0,01110,kill,1.0,100.0,1.52091880071
9,2_42_1,42,1.0,110.463153426,2_ND,training,02,1_B,10.0,10111,kill,0.0,0.0,3.25255155138
10,2_42_1,42,1.0,114.822407262,2_ND,training,02,1_B,11.0,11001,ignore,1.0,100.0,2.22830765669
11,2_42_1,42,1.0,118.244167692,2_ND,training,02,1_B,12.0,11100,ignore,1.0,200.0,1.29151092155
12,2_42_1,42,1.0,121.591849076,2_ND,training,02,1_B,13.0,01100,ignore,0.0,100.0,1.22115580012
13,2_42_1,42,1.0,125.445665226,2_ND,training,02,1_B,14.0,10001,ignore,1.0,200.0,1.73435990658
14,2_42_1,42,1.0,129.708109748,2_ND,training,02,1_B,15.0,10110,kill,0.0,100.0,2.09830816164
15,2_42_1,42,1.0,140.757779045,2_ND,training,02,1_B,16.0,00111,kill,1.0,200.0,8.929010198
16,2_42_1,42,1.0,145.804501141,2_ND,training,02,1_B,17.0,00000,ignore,1.0,300.0,2.93334376081
17,2_42_1,42,1.0,150.651284079,2_ND,training,02,1_B,18.0,11010,ignore,1.0,400.0,2.8035955106
18,2_42_1,42,1.0,154.291807735,2_ND,training,02,1_B,19.0,10011,ignore,1.0,500.0,1.539874238
19,2_42_1,42,1.0,157.260489985,2_ND,training,02,1_B,20.0,10100,ignore,1.0,600.0,0.847876180635
20,2_42_1,42,1.0,160.947883529,2_ND,training,02,1_B,21.0,11111,ignore,1.0,700.0,1.59311433159
21,2_42_1,42,1.0,163.682144908,2_ND,training,02,1_B,22.0,00010,ignore,1.0,800.0,0.625933803555
22,2_42_1,42,1.0,166.21334381,2_ND,training,02,1_B,23.0,11101,ignore,1.0,900.0,0.440059838966
23,2_42_1,42,1.0,168.853876088,2_ND,training,02,1_B,24.0,11011,ignore,1.0,1000.0,0.533570538013
24,2_42_1,42,1.0,171.447587742,2_ND,training,02,1_B,25.0,10101,ignore,1.0,1100.0,0.480084125966
25,2_42_1,42,1.0,174.291263372,2_ND,training,02,1_B,26.0,01101,ignore,0.0,1000.0,0.754974298721
26,2_42_1,42,1.0,178.716215678,2_ND,training,02,1_B,27.0,10010,ignore,1.0,1100.0,2.34119212388
27,2_42_1,42,1.0,184.73775828,2_ND,training,02,1_B,28.0,00001,ignore,1.0,1200.0,3.95386208876
28,2_42_1,42,1.0,187.394098456,2_ND,training,02,1_B,29.0,11110,ignore,1.0,1300.0,0.579196106854
29,2_42_1,42,1.0,191.615924242,2_ND,training,02,1_B,30.0,01011,ignore,0.0,1200.0,2.14131249151
30,2_42_1,42,1.0,196.068863253,2_ND,training,02,1_B,31.0,10000,ignore,1.0,1300.0,2.37339662076
31,2_42_1,42,1.0,200.521867537,2_ND,training,02,1_B,32.0,01000,kill,1.0,1400.0,2.36680637029
32,2_42_1,42,1.0,208.506009144,2_ND,training,02,1_B,33.0,11010,ignore,1.0,1500.0,5.89363558251
33,2_42_1,42,1.0,213.052755667,2_ND,training,02,1_B,34.0,01001,kill,1.0,1600.0,2.44627691696
34,2_42_1,42,1.0,218.16199339,2_ND,training,02,1_B,35.0,10100,ignore,1.0,1700.0,2.97658537747
35,2_42_1,42,1.0,224.224332487,2_ND,training,02,1_B,36.0,11100,ignore,1.0,1800.0,3.9690919593
36,2_42_1,42,1.0,227.989820479,2_ND,training,02,1_B,37.0,01111,ignore,0.0,1700.0,1.66757558179
37,2_42_1,42,1.0,233.895865586,2_ND,training,02,1_B,38.0,00000,kill,0.0,1600.0,3.77927730984
38,2_42_1,42,1.0,238.739495236,2_ND,training,02,1_B,39.0,00100,kill,1.0,1700.0,2.72869581353
39,2_42_1,42,1.0,243.067526975,2_ND,training,02,1_B,40.0,01110,ignore,0.0,1600.0,2.23850483051
40,2_42_1,42,1.0,249.614200013,2_ND,training,02,1_B,41.0,00110,kill,1.0,1700.0,4.45020282273
41,2_42_1,42,1.0,253.489073929,2_ND,training,02,1_B,42.0,11001,ignore,1.0,1800.0,1.76675201601
42,2_42_1,42,1.0,269.160519174,2_ND,training,02,1_B,43.0,11011,ignore,1.0,1900.0,13.5811892337
43,2_42_1,42,1.0,275.207192417,2_ND,training,02,1_B,44.0,11101,ignore,1.0,2000.0,3.9508422244
44,2_42_1,42,1.0,281.363296332,2_ND,training,02,1_B,45.0,00011,ignore,1.0,2100.0,4.03194545195
45,2_42_1,42,1.0,286.394363248,2_ND,training,02,1_B,46.0,10111,ignore,1.0,2200.0,2.94495685527
46,2_42_1,42,1.0,290.050541675,2_ND,training,02,1_B,47.0,01101,ignore,0.0,2100.0,1.52747415606
47,2_42_1,42,1.0,293.534811162,2_ND,training,02,1_B,48.0,10101,ignore,1.0,2200.0,1.36161315603
48,2_42_1,42,1.0,297.550259024,2_ND,training,02,1_B,49.0,10001,ignore,1.0,2300.0,1.93942946897
49,2_42_1,42,1.0,300.81584698,2_ND,training,02,1_B,50.0,11000,ignore,1.0,2400.0,1.17908789094
50,2_42_1,42,1.0,303.909501365,2_ND,training,02,1_B,51.0,11110,ignore,1.0,2500.0,1.00499533842
51,2_42_1,42,1.0,306.956303515,2_ND,training,02,1_B,52.0,01011,ignore,0.0,2400.0,0.988519506986
52,2_42_1,42,1.0,312.237423082,2_ND,training,02,1_B,53.0,01100,ignore,0.0,2300.0,3.03950783929
53,2_42_1,42,1.0,315.362276984,2_ND,training,02,1_B,54.0,01010,ignore,0.0,2200.0,1.02739718154
54,2_42_1,42,1.0,319.22155812,2_ND,training,02,1_B,55.0,01000,kill,1.0,2300.0,1.74544054262
55,2_42_1,42,1.0,323.018295714,2_ND,training,02,1_B,56.0,00101,kill,1.0,2400.0,1.67688477756
56,2_42_1,42,1.0,326.643199086,2_ND,training,02,1_B,57.0,00111,ignore,0.0,2300.0,1.52492558103
57,2_42_1,42,1.0,333.564918257,2_ND,training,02,1_B,58.0,00010,ignore,1.0,2400.0,4.80239224491
58,2_42_1,42,1.0,342.486498669,2_ND,training,02,1_B,59.0,10000,ignore,1.0,2500.0,6.82373532917
59,2_42_1,42,1.0,345.814521377,2_ND,training,02,1_B,60.0,11111,ignore,1.0,2600.0,1.21117087071
60,2_42_1,42,1.0,349.001931547,2_ND,training,02,1_B,61.0,10010,ignore,1.0,2700.0,1.07958138998
61,2_42_1,42,1.0,351.626857498,2_ND,training,02,1_B,62.0,10110,ignore,1.0,2800.0,0.531993278791
62,2_42_1,42,1.0,354.876751683,2_ND,training,02,1_B,63.0,10011,ignore,1.0,2900.0,1.16122159178
63,2_42_1,42,1.0,358.361037181,2_ND,training,02,1_B,64.0,00001,ignore,1.0,3000.0,1.39085485233
64,2_42_1,42,1.0,361.657821371,2_ND,training,02,1_B,65.0,10011,ignore,1.0,3100.0,1.20323900568
65,2_42_1,42,1.0,365.501468263,2_ND,training,02,1_B,66.0,10111,ignore,1.0,3200.0,1.74367977615
66,2_42_1,42,1.0,369.141990278,2_ND,training,02,1_B,67.0,00100,ignore,0.0,3100.0,1.53354795882
67,2_42_1,42,1.0,371.907469238,2_ND,training,02,1_B,68.0,10110,ignore,1.0,3200.0,0.669417222834
68,2_42_1,42,1.0,377.735452329,2_ND,training,02,1_B,69.0,01001,kill,1.0,3300.0,3.63259507585
69,2_42_1,42,1.0,383.032188076,2_ND,training,02,1_B,70.0,00011,ignore,1.0,3400.0,3.18896813501
70,2_42_1,42,1.0,386.250867144,2_ND,training,02,1_B,71.0,10010,ignore,1.0,3500.0,1.11144063048
71,2_42_1,42,1.0,389.406985017,2_ND,training,02,1_B,72.0,11001,ignore,1.0,3600.0,1.06954185998
72,2_42_1,42,1.0,392.6881715,2_ND,training,02,1_B,73.0,10001,ignore,1.0,3700.0,1.18383485825
73,2_42_1,42,1.0,397.45359586,2_ND,training,02,1_B,74.0,01101,kill,1.0,3800.0,2.668312074
74,2_42_1,42,1.0,401.062903988,2_ND,training,02,1_B,75.0,11101,ignore,1.0,3900.0,1.50467697181
75,2_42_1,42,1.0,406.156477909,2_ND,training,02,1_B,76.0,01111,ignore,0.0,3800.0,2.98486619365
76,2_42_1,42,1.0,414.328177477,2_ND,training,02,1_B,77.0,00101,ignore,0.0,3700.0,6.06103525187
77,2_42_1,42,1.0,417.484301509,2_ND,training,02,1_B,78.0,01011,ignore,0.0,3600.0,1.05249251705
78,2_42_1,42,1.0,422.51539552,2_ND,training,02,1_B,79.0,01110,ignore,0.0,3500.0,2.95696446979
79,2_42_1,42,1.0,425.968421152,2_ND,training,02,1_B,80.0,01010,ignore,0.0,3400.0,1.3230680114
80,2_42_1,42,1.0,429.843352132,2_ND,training,02,1_B,81.0,00000,ignore,1.0,3500.0,1.76545720196
81,2_42_1,42,1.0,433.280732026,2_ND,training,02,1_B,82.0,10101,ignore,1.0,3600.0,1.33035041675
82,2_42_1,42,1.0,436.905621028,2_ND,training,02,1_B,83.0,11011,ignore,1.0,3700.0,1.50740535932
83,2_42_1,42,1.0,440.65550064,2_ND,training,02,1_B,84.0,11010,ignore,1.0,3800.0,1.66429215669
84,2_42_1,42,1.0,444.17103533,2_ND,training,02,1_B,85.0,10100,ignore,1.0,3900.0,1.42474991492
85,2_42_1,42,1.0,453.952019216,2_ND,training,02,1_B,86.0,00110,ignore,0.0,3800.0,7.70003337615
86,2_42_1,42,1.0,459.608081462,2_ND,training,02,1_B,87.0,00111,ignore,0.0,3700.0,3.56313819574
87,2_42_1,42,1.0,462.936092675,2_ND,training,02,1_B,88.0,01100,ignore,0.0,3600.0,1.22237261333
88,2_42_1,42,1.0,466.701611456,2_ND,training,02,1_B,89.0,10000,ignore,1.0,3700.0,1.64635401464
89,2_42_1,42,1.0,470.045268818,2_ND,training,02,1_B,90.0,11110,ignore,1.0,3800.0,1.25398799854
90,2_42_1,42,1.0,472.810835631,2_ND,training,02,1_B,91.0,11100,ignore,1.0,3900.0,0.665519233162
91,2_42_1,42,1.0,476.029470362,2_ND,training,02,1_B,92.0,11111,ignore,1.0,4000.0,1.11694379546
92,2_42_1,42,1.0,479.529353155,2_ND,training,02,1_B,93.0,00001,kill,0.0,3900.0,1.38222836924
93,2_42_1,42,1.0,482.966774103,2_ND,training,02,1_B,94.0,01000,kill,1.0,4000.0,1.26967191612
94,2_42_1,42,1.0,486.716705031,2_ND,training,02,1_B,95.0,11000,ignore,1.0,4100.0,1.64616311783
95,2_42_1,42,1.0,501.950584822,2_ND,training,02,1_B,96.0,00010,ignore,1.0,4200.0,13.1243115912
96,2_42_1,42,1.0,508.528564526,2_ND,training,02,1_B,97.0,10111,ignore,1.0,4300.0,4.46955729593
97,2_42_1,42,1.0,511.981533505,2_ND,training,02,1_B,98.0,10001,ignore,1.0,4400.0,1.34778073223
98,2_42_1,42,1.0,515.406503464,2_ND,training,02,1_B,99.0,10011,ignore,1.0,4500.0,1.30615865947
99,2_42_1,42,1.0,521.096962442,2_ND,training,02,1_B,100.0,11011,ignore,1.0,4600.0,3.6281970597
100,2_42_1,42,1.0,537.408981428,2_ND,training,02,1_B,101.0,10100,ignore,1.0,4700.0,14.1748179604
101,2_42_1,42,1.0,541.77464447,2_ND,training,02,1_B,102.0,01011,kill,1.0,4800.0,2.28234130625
102,2_42_1,42,1.0,544.777709082,2_ND,training,02,1_B,103.0,00110,kill,1.0,4900.0,0.928308600906
103,2_42_1,42,1.0,548.308874321,2_ND,training,02,1_B,104.0,11101,ignore,1.0,5000.0,1.45780831579
104,2_42_1,42,1.0,551.340025395,2_ND,training,02,1_B,105.0,00001,kill,0.0,4900.0,0.953733182094
105,2_42_1,42,1.0,554.511784081,2_ND,training,02,1_B,106.0,00111,kill,1.0,5000.0,1.07542394486
106,2_42_1,42,1.0,557.730483675,2_ND,training,02,1_B,107.0,01111,kill,1.0,5100.0,1.13110628601
107,2_42_1,42,1.0,561.54283047,2_ND,training,02,1_B,108.0,11001,ignore,1.0,5200.0,1.70696026185
108,2_42_1,42,1.0,567.058285517,2_ND,training,02,1_B,109.0,00100,kill,1.0,5300.0,3.41453303562
109,2_42_1,42,1.0,570.870684039,2_ND,training,02,1_B,110.0,11100,ignore,1.0,5400.0,1.71061685943
110,2_42_1,42,1.0,576.214289262,2_ND,training,02,1_B,111.0,01110,kill,1.0,5500.0,3.24442263158
111,2_42_1,42,1.0,579.042369649,2_ND,training,02,1_B,112.0,01000,kill,1.0,5600.0,0.721353470689
112,2_42_1,42,1.0,587.604589077,2_ND,training,02,1_B,113.0,11000,ignore,1.0,5700.0,6.4684948423
113,2_42_1,42,1.0,592.385687912,2_ND,training,02,1_B,114.0,01100,kill,1.0,5800.0,2.70947476283
114,2_42_1,42,1.0,595.713739356,2_ND,training,02,1_B,115.0,01101,kill,1.0,5900.0,1.24004924727
115,2_42_1,42,1.0,603.276003943,2_ND,training,02,1_B,116.0,10010,ignore,1.0,6000.0,5.46942756821
116,2_42_1,42,1.0,609.513485731,2_ND,training,02,1_B,117.0,00010,kill,0.0,5900.0,4.14058995735
117,2_42_1,42,1.0,613.857252293,2_ND,training,02,1_B,118.0,00000,kill,0.0,5800.0,2.23889894005
118,2_42_1,42,1.0,618.357085412,2_ND,training,02,1_B,119.0,01001,kill,1.0,5900.0,2.38161175202
119,2_42_1,42,1.0,621.966386151,2_ND,training,02,1_B,120.0,10000,ignore,1.0,6000.0,1.50640407476
120,2_42_1,42,1.0,624.881991698,2_ND,training,02,1_B,121.0,10110,ignore,1.0,6100.0,0.850741274887
121,2_42_1,42,1.0,627.885103111,2_ND,training,02,1_B,122.0,11010,ignore,1.0,6200.0,0.945816506704
122,2_42_1,42,1.0,630.97875298,2_ND,training,02,1_B,123.0,10101,ignore,1.0,6300.0,1.00077959793
123,2_42_1,42,1.0,633.556802064,2_ND,training,02,1_B,124.0,11111,ignore,1.0,6400.0,0.476762110966
124,2_42_1,42,1.0,637.150443517,2_ND,training,02,1_B,125.0,00101,kill,1.0,6500.0,1.47296511186
125,2_42_1,42,1.0,640.728444158,2_ND,training,02,1_B,126.0,01010,kill,1.0,6600.0,1.47928564362
126,2_42_1,42,1.0,644.665853405,2_ND,training,02,1_B,127.0,00011,kill,0.0,6500.0,1.83210728318
127,2_42_1,42,1.0,647.697008996,2_ND,training,02,1_B,128.0,11110,ignore,1.0,6600.0,0.962827670266
128,2_42_1,42,1.0,651.040698789,2_ND,training,02,1_B,129.0,01101,kill,1.0,6700.0,1.23225449952
129,2_42_1,42,1.0,654.656233027,2_ND,training,02,1_B,130.0,01111,kill,1.0,6800.0,1.52078825192
130,2_42_1,42,1.0,657.515532226,2_ND,training,02,1_B,131.0,01100,kill,1.0,6900.0,0.790727423579
131,2_42_1,42,1.0,660.158838461,2_ND,training,02,1_B,132.0,00011,kill,0.0,6800.0,0.548203907349
132,2_42_1,42,1.0,663.221239959,2_ND,training,02,1_B,133.0,10111,ignore,1.0,6900.0,0.962153989271
133,2_42_1,42,1.0,666.161821377,2_ND,training,02,1_B,134.0,10000,ignore,1.0,7000.0,0.861612540238
134,2_42_1,42,1.0,668.802393887,2_ND,training,02,1_B,135.0,11000,ignore,1.0,7100.0,0.555430069983
135,2_42_1,42,1.0,671.489814116,2_ND,training,02,1_B,136.0,10011,ignore,1.0,7200.0,0.600284251505
136,2_42_1,42,1.0,677.570855353,2_ND,training,02,1_B,137.0,00110,ignore,0.0,7100.0,3.97326541512
137,2_42_1,42,1.0,680.633352916,2_ND,training,02,1_B,138.0,01011,ignore,0.0,7000.0,0.927340569349
138,2_42_1,42,1.0,683.714555902,2_ND,training,02,1_B,139.0,00111,kill,1.0,7100.0,0.991367769475
139,2_42_1,42,1.0,686.948883582,2_ND,training,02,1_B,140.0,11001,ignore,1.0,7200.0,1.14696344757
140,2_42_1,42,1.0,690.339389894,2_ND,training,02,1_B,141.0,00001,kill,0.0,7100.0,1.27793877426
141,2_42_1,42,1.0,693.5736835,2_ND,training,02,1_B,142.0,10100,ignore,1.0,7200.0,1.11518877642
142,2_42_1,42,1.0,697.573527498,2_ND,training,02,1_B,143.0,11111,ignore,1.0,7300.0,1.89355799219
143,2_42_1,42,1.0,701.701574098,2_ND,training,02,1_B,144.0,01110,ignore,0.0,7200.0,2.08623116741
144,2_42_1,42,1.0,704.576546541,2_ND,training,02,1_B,145.0,10110,ignore,1.0,7300.0,0.801994440592
145,2_42_1,42,1.0,707.842062654,2_ND,training,02,1_B,146.0,00010,kill,0.0,7200.0,1.18833058072
146,2_42_1,42,1.0,710.623217321,2_ND,training,02,1_B,147.0,10010,ignore,1.0,7300.0,0.688817264953
147,2_42_1,42,1.0,713.40241663,2_ND,training,02,1_B,148.0,10001,ignore,1.0,7400.0,0.683946727885
148,2_42_1,42,1.0,716.349294359,2_ND,training,02,1_B,149.0,10101,ignore,1.0,7500.0,0.876933548616
149,2_42_1,42,1.0,719.633640287,2_ND,training,02,1_B,150.0,00000,kill,0.0,7400.0,1.18929573857
150,2_42_1,42,1.0,722.602274094,2_ND,training,02,1_B,151.0,01000,kill,1.0,7500.0,0.895342569455
151,2_42_1,42,1.0,726.086575603,2_ND,training,02,1_B,152.0,11110,ignore,1.0,7600.0,1.3972689851
152,2_42_1,42,1.0,729.039620735,2_ND,training,02,1_B,153.0,11100,ignore,1.0,7700.0,0.86239706454
153,2_42_1,42,1.0,733.008426965,2_ND,training,02,1_B,154.0,01010,kill,1.0,7800.0,1.91351471404
154,2_42_1,42,1.0,737.811443217,2_ND,training,02,1_B,155.0,00100,kill,1.0,7900.0,2.70024521003
155,2_42_1,42,1.0,741.530060089,2_ND,training,02,1_B,156.0,01001,kill,1.0,8000.0,1.57870264887
156,2_42_1,42,1.0,744.889354978,2_ND,training,02,1_B,157.0,11101,ignore,1.0,8100.0,1.25682435564
157,2_42_1,42,1.0,748.083042164,2_ND,training,02,1_B,158.0,11010,ignore,1.0,8200.0,1.14889417379
158,2_42_1,42,1.0,751.389685661,2_ND,training,02,1_B,159.0,00101,kill,1.0,8300.0,1.23362854601
159,2_42_1,42,1.0,756.436421715,2_ND,training,02,1_B,160.0,11011,ignore,1.0,8400.0,2.97063309182
160,2_42_1,42,1.0,760.798803385,2_ND,training,02,1_B,161.0,10100,ignore,1.0,8500.0,2.26313175041
161,2_42_1,42,1.0,764.048723024,2_ND,training,02,1_B,162.0,11010,ignore,1.0,8600.0,1.19519219203
162,2_42_1,42,1.0,766.704857523,2_ND,training,02,1_B,163.0,10011,ignore,1.0,8700.0,0.573828827552
163,2_42_1,42,1.0,769.736039798,2_ND,training,02,1_B,164.0,11001,ignore,1.0,8800.0,0.950509283948
164,2_42_1,42,1.0,772.98593111,2_ND,training,02,1_B,165.0,00100,kill,1.0,8900.0,1.14869794008
165,2_42_1,42,1.0,778.001418384,2_ND,training,02,1_B,166.0,01011,kill,1.0,9000.0,2.93899923272
166,2_42_1,42,1.0,780.970111307,2_ND,training,02,1_B,167.0,10110,ignore,1.0,9100.0,0.882571778226
167,2_42_1,42,1.0,784.095009957,2_ND,training,02,1_B,168.0,00001,kill,0.0,9000.0,1.02414167253
168,2_42_1,42,1.0,787.063672091,2_ND,training,02,1_B,169.0,11111,ignore,1.0,9100.0,0.929621478313
169,2_42_1,42,1.0,790.047952047,2_ND,training,02,1_B,170.0,10101,ignore,1.0,9200.0,0.881911234215
170,2_42_1,42,1.0,792.641663701,2_ND,training,02,1_B,171.0,00111,ignore,0.0,9100.0,0.486851315196
171,2_42_1,42,1.0,795.7196588,2_ND,training,02,1_B,172.0,00110,kill,1.0,9200.0,1.0171117436
172,2_42_1,42,1.0,799.735169884,2_ND,training,02,1_B,173.0,10111,ignore,1.0,9300.0,1.90572776637
173,2_42_1,42,1.0,803.078836277,2_ND,training,02,1_B,174.0,11000,ignore,1.0,9400.0,1.24609431288
174,2_42_1,42,1.0,806.047506621,2_ND,training,02,1_B,175.0,10000,ignore,1.0,9500.0,0.876336636875
175,2_42_1,42,1.0,809.203679916,2_ND,training,02,1_B,176.0,11101,ignore,1.0,9600.0,1.04981175112
176,2_42_1,42,1.0,811.98484772,2_ND,training,02,1_B,177.0,10010,ignore,1.0,9700.0,0.696324230634
177,2_42_1,42,1.0,817.953389157,2_ND,training,02,1_B,178.0,00010,kill,0.0,9600.0,3.85384981389
178,2_42_1,42,1.0,821.343912711,2_ND,training,02,1_B,179.0,11110,ignore,1.0,9700.0,1.2950657075
179,2_42_1,42,1.0,824.203225458,2_ND,training,02,1_B,180.0,11011,ignore,1.0,9800.0,0.803710048685
180,2_42_1,42,1.0,827.609343845,2_ND,training,02,1_B,181.0,01111,ignore,0.0,9700.0,1.29783514808
181,2_42_1,42,1.0,830.718703495,2_ND,training,02,1_B,182.0,01001,kill,1.0,9800.0,1.04447320897
182,2_42_1,42,1.0,833.843575871,2_ND,training,02,1_B,183.0,11100,ignore,1.0,9900.0,1.00972875821
183,2_42_1,42,1.0,838.499658644,2_ND,training,02,1_B,184.0,01101,kill,1.0,10000.0,2.57705724154
184,2_42_1,42,1.0,841.749598809,2_ND,training,02,1_B,185.0,00000,kill,0.0,9900.0,1.16045266765
185,2_42_1,42,1.0,976.003507575,2_ND,test,02,2,0.0,01000,ignore,1.0,100.0,25.2546670164
186,2_42_1,42,1.0,980.675218433,2_ND,test,02,2,1.0,10001,ignore,1.0,200.0,2.5897804112
187,2_42_1,42,1.0,985.675087884,2_ND,test,02,2,2.0,01100,kill,0.0,100.0,2.82842933801
188,2_42_1,42,1.0,990.268724001,2_ND,test,02,2,3.0,01110,ignore,1.0,200.0,2.50185621488
189,2_42_1,42,1.0,995.237293765,2_ND,test,02,2,4.0,00011,ignore,0.0,100.0,2.86350057125
190,2_42_1,42,1.0,1004.45580287,2_ND,test,02,2,5.0,01010,kill,0.0,0.0,7.13913708895
191,2_42_1,42,1.0,1011.06500139,2_ND,test,02,2,6.0,00101,kill,0.0,0.0,4.50307672286
192,2_42_1,42,1.0,1018.09916987,2_ND,test,02,2,7.0,01010,kill,0.0,0.0,4.86968521732
193,2_42_1,42,1.0,1022.70844844,2_ND,test,02,2,8.0,00111,kill,1.0,100.0,2.51026142189
194,2_42_1,42,1.0,1026.91459154,2_ND,test,02,2,9.0,10000,ignore,1.0,200.0,2.08007156372
195,2_42_1,42,1.0,1038.01117054,2_ND,test,02,2,10.0,00100,kill,0.0,100.0,8.99404525117
196,2_42_1,42,1.0,1044.0734924,2_ND,test,02,2,11.0,01100,kill,0.0,0.0,3.96391845052
197,2_42_1,42,1.0,1047.73202768,2_ND,test,02,2,12.0,11111,ignore,0.0,0.0,1.56945339059
198,2_42_1,42,1.0,1051.96942613,2_ND,test,02,2,13.0,01101,ignore,1.0,100.0,2.16141207806
199,2_42_1,42,1.0,1066.25338986,2_ND,test,02,2,14.0,01110,ignore,1.0,200.0,12.2364780401
200,2_42_1,42,1.0,1073.50640038,2_ND,test,02,2,15.0,00000,kill,0.0,100.0,5.09788326229
201,2_42_1,42,1.0,1077.61566109,2_ND,test,02,2,16.0,11000,ignore,1.0,200.0,2.0165780536
202,2_42_1,42,1.0,1085.99316138,2_ND,test,02,2,17.0,00110,ignore,0.0,100.0,6.27218600657
203,2_42_1,42,1.0,1091.18050751,2_ND,test,02,2,18.0,00001,ignore,1.0,200.0,3.09834716206
204,2_42_1,42,1.0,1094.43047559,2_ND,test,02,2,19.0,11100,ignore,1.0,300.0,1.16343106839
205,2_42_1,42,1.0,1097.47725105,2_ND,test,02,2,20.0,10011,ignore,0.0,200.0,0.972805210127
206,2_42_1,42,1.0,1101.18024723,2_ND,test,02,2,21.0,11001,ignore,1.0,300.0,1.57627435936
207,2_42_1,42,1.0,1105.07077961,2_ND,test,02,2,22.0,00010,kill,1.0,400.0,1.78568158987
208,2_42_1,42,1.0,1111.46122065,2_ND,test,02,2,23.0,11110,ignore,0.0,300.0,4.33619842759
209,2_42_1,42,1.0,1114.77683876,2_ND,test,02,2,24.0,11101,ignore,1.0,400.0,1.20380676973
210,2_42_1,42,1.0,1118.37071134,2_ND,test,02,2,25.0,11010,kill,1.0,500.0,1.51211127354
211,2_42_1,42,1.0,1122.74558669,2_ND,test,02,2,26.0,00101,ignore,1.0,600.0,2.25831499287
212,2_42_1,42,1.0,1126.23767186,2_ND,test,02,2,27.0,10110,kill,1.0,700.0,1.35257737376
213,2_42_1,42,1.0,1130.92815301,2_ND,test,02,2,28.0,01000,ignore,1.0,800.0,2.63507509224
214,2_42_1,42,1.0,1135.09995028,2_ND,test,02,2,29.0,00011,kill,1.0,900.0,2.08204785886
215,2_42_1,42,1.0,1138.80294975,2_ND,test,02,2,30.0,10100,ignore,1.0,1000.0,1.61677650418
216,2_42_1,42,1.0,1142.97470843,2_ND,test,02,2,31.0,01111,kill,0.0,900.0,2.08234713579
217,2_42_1,42,1.0,1147.25580378,2_ND,test,02,2,32.0,11011,kill,1.0,1000.0,2.25754976351
218,2_42_1,42,1.0,1154.28685386,2_ND,test,02,2,33.0,10111,kill,1.0,1100.0,4.91497456146
219,2_42_1,42,1.0,1158.20862722,2_ND,test,02,2,34.0,01001,ignore,1.0,1200.0,1.82733445244
220,2_42_1,42,1.0,1162.55228581,2_ND,test,02,2,35.0,10001,ignore,1.0,1300.0,2.29177653496
221,2_42_1,42,1.0,1167.66148289,2_ND,test,02,2,36.0,10010,kill,1.0,1400.0,2.99564755277
222,2_42_1,42,1.0,1173.86441811,2_ND,test,02,2,37.0,01011,kill,0.0,1300.0,4.15372037353
223,2_42_1,42,1.0,1183.16102536,2_ND,test,02,2,38.0,10101,ignore,1.0,1400.0,7.18936470774
224,2_42_1,42,1.0,1187.80149277,2_ND,test,02,2,39.0,01101,ignore,1.0,1500.0,2.54254761438
225,2_42_1,42,1.0,1195.89503221,2_ND,test,02,2,40.0,00111,ignore,0.0,1400.0,5.99795801994
226,2_42_1,42,1.0,1201.23862224,2_ND,test,02,2,41.0,11100,ignore,1.0,1500.0,3.24284003545
227,2_42_1,42,1.0,1205.48847825,2_ND,test,02,2,42.0,11011,kill,1.0,1600.0,2.20513771049
228,2_42_1,42,1.0,1209.08216938,2_ND,test,02,2,43.0,10011,kill,1.0,1700.0,1.52641868145
229,2_42_1,42,1.0,1213.41012968,2_ND,test,02,2,44.0,10110,kill,1.0,1800.0,2.21751151847
230,2_42_1,42,1.0,1216.91007241,2_ND,test,02,2,45.0,10000,ignore,1.0,1900.0,1.45928253179
231,2_42_1,42,1.0,1221.51928037,2_ND,test,02,2,46.0,00001,ignore,1.0,2000.0,2.50973265826
232,2_42_1,42,1.0,1225.30044407,2_ND,test,02,2,47.0,11000,ignore,1.0,2100.0,1.70505334642
233,2_42_1,42,1.0,1230.15968785,2_ND,test,02,2,48.0,01010,ignore,1.0,2200.0,2.78308128797
234,2_42_1,42,1.0,1234.64392203,2_ND,test,02,2,49.0,00110,ignore,0.0,2100.0,2.37886406957
235,2_42_1,42,1.0,1238.05004616,2_ND,test,02,2,50.0,11010,kill,1.0,2200.0,1.37687833223
236,2_42_1,42,1.0,1242.26867145,2_ND,test,02,2,51.0,10001,ignore,1.0,2300.0,2.08527791496
237,2_42_1,42,1.0,1247.61227011,2_ND,test,02,2,52.0,01011,ignore,1.0,2400.0,3.25791308325
238,2_42_1,42,1.0,1252.67459689,2_ND,test,02,2,53.0,10111,kill,1.0,2500.0,3.00031816135
239,2_42_1,42,1.0,1256.6276293,2_ND,test,02,2,54.0,00000,ignore,1.0,2600.0,1.86391725999
240,2_42_1,42,1.0,1260.06504614,2_ND,test,02,2,55.0,10101,ignore,1.0,2700.0,1.3908811263
241,2_42_1,42,1.0,1263.36180939,2_ND,test,02,2,56.0,00100,ignore,1.0,2800.0,1.17649990496
242,2_42_1,42,1.0,1273.4552544,2_ND,test,02,2,57.0,01110,kill,0.0,2700.0,7.99104632388
243,2_42_1,42,1.0,1277.61140758,2_ND,test,02,2,58.0,01000,ignore,1.0,2800.0,2.07572609551
244,2_42_1,42,1.0,1280.67380908,2_ND,test,02,2,59.0,01001,ignore,1.0,2900.0,0.95934185349
245,2_42_1,42,1.0,1284.03309083,2_ND,test,02,2,60.0,10100,ignore,1.0,3000.0,1.31771469015
246,2_42_1,42,1.0,1287.17361018,2_ND,test,02,2,61.0,00011,ignore,0.0,2900.0,1.04529960741
247,2_42_1,42,1.0,1292.98594302,2_ND,test,02,2,62.0,00101,ignore,1.0,3000.0,3.67167062624
248,2_42_1,42,1.0,1299.50137056,2_ND,test,02,2,63.0,11110,kill,1.0,3100.0,4.4908351058
249,2_42_1,42,1.0,1302.65750649,2_ND,test,02,2,64.0,11111,kill,1.0,3200.0,1.11621058751
250,2_42_1,42,1.0,1311.15728871,2_ND,test,02,2,65.0,01111,ignore,1.0,3300.0,6.41706970525
251,2_42_1,42,1.0,1314.48532948,2_ND,test,02,2,66.0,11001,ignore,1.0,3400.0,1.27040471355
252,2_42_1,42,1.0,1317.90709894,2_ND,test,02,2,67.0,01100,ignore,1.0,3500.0,1.31826726456
253,2_42_1,42,1.0,1321.46946328,2_ND,test,02,2,68.0,11101,ignore,1.0,3600.0,1.52068479817
254,2_42_1,42,1.0,1325.10999638,2_ND,test,02,2,69.0,10010,kill,1.0,3700.0,1.60428076856
255,2_42_1,42,1.0,1335.87530415,2_ND,test,02,2,70.0,00010,kill,1.0,3800.0,8.68226026748
256,2_42_1,42,1.0,1344.84383081,2_ND,test,02,2,71.0,01011,ignore,1.0,3900.0,6.92524973613
257,2_42_1,42,1.0,1348.20309409,2_ND,test,02,3,0.0,10100,ignore,0.0,3800.0,1.21810186172
258,2_42_1,42,1.0,1352.07796759,2_ND,test,02,3,1.0,11110,kill,0.0,3700.0,1.81874081181
259,2_42_1,42,1.0,1360.89022079,2_ND,test,02,3,2.0,00011,ignore,1.0,3800.0,6.70893778858
260,2_42_1,42,1.0,1364.56198296,2_ND,test,02,3,3.0,10010,ignore,0.0,3700.0,1.60896902997
261,2_42_1,42,1.0,1370.49932611,2_ND,test,02,3,4.0,01001,kill,0.0,3600.0,3.88566430652
262,2_42_1,42,1.0,1374.51482817,2_ND,test,02,3,5.0,10101,ignore,1.0,3700.0,1.93101481975
263,2_42_1,42,1.0,1383.54577274,2_ND,test,02,3,6.0,01010,ignore,0.0,3600.0,7.00836292234
264,2_42_1,42,1.0,1388.43630677,2_ND,test,02,3,7.0,00101,ignore,1.0,3700.0,2.76338402157
265,2_42_1,42,1.0,1399.09226433,2_ND,test,02,3,8.0,10001,ignore,1.0,3800.0,8.57728467558
266,2_42_1,42,1.0,1405.42021191,2_ND,test,02,3,9.0,11100,ignore,0.0,3700.0,4.28433155943
267,2_42_1,42,1.0,1410.92003846,2_ND,test,02,3,10.0,01100,kill,1.0,3800.0,3.35212373726
268,2_42_1,42,1.0,1414.24802791,2_ND,test,02,3,11.0,00110,kill,0.0,3700.0,1.28003863916
269,2_42_1,42,1.0,1418.40417617,2_ND,test,02,3,12.0,10000,kill,1.0,3800.0,2.10309864521
270,2_42_1,42,1.0,1423.48216962,2_ND,test,02,3,13.0,00100,ignore,0.0,3700.0,2.97412794027
271,2_42_1,42,1.0,1429.71631215,2_ND,test,02,3,14.0,00010,ignore,0.0,3600.0,4.1956466496
272,2_42_1,42,1.0,1438.13795148,2_ND,test,02,3,15.0,01110,ignore,1.0,3700.0,6.3572126767
273,2_42_1,42,1.0,1444.48155218,2_ND,test,02,3,16.0,01101,ignore,1.0,3800.0,4.23169535661
274,2_42_1,42,1.0,1449.46579068,2_ND,test,02,3,17.0,11111,kill,0.0,3700.0,2.95675427804
275,2_42_1,42,1.0,1452.87190988,2_ND,test,02,3,18.0,01111,ignore,1.0,3800.0,1.32268129141
276,2_42_1,42,1.0,1456.73117747,2_ND,test,02,3,19.0,11101,ignore,1.0,3900.0,1.81693940278
277,2_42_1,42,1.0,1460.82479655,2_ND,test,02,3,20.0,00111,ignore,1.0,4000.0,1.96445296159
278,2_42_1,42,1.0,1465.65281905,2_ND,test,02,3,21.0,11011,ignore,1.0,4100.0,2.75046708139
279,2_42_1,42,1.0,1469.62143192,2_ND,test,02,3,22.0,11001,ignore,1.0,4200.0,1.93087647088
280,2_42_1,42,1.0,1473.54322499,2_ND,test,02,3,23.0,00001,ignore,1.0,4300.0,1.83330562251
281,2_42_1,42,1.0,1477.10559385,2_ND,test,02,3,24.0,01000,ignore,0.0,4200.0,1.53477708795
282,2_42_1,42,1.0,1480.32422571,2_ND,test,02,3,25.0,10011,ignore,1.0,4300.0,1.14091017135
283,2_42_1,42,1.0,1485.26158898,2_ND,test,02,3,26.0,10110,ignore,1.0,4400.0,2.89080907815
284,2_42_1,42,1.0,1489.41772902,2_ND,test,02,3,27.0,10111,ignore,1.0,4500.0,2.10813462618
285,2_42_1,42,1.0,1493.10510573,2_ND,test,02,3,28.0,11010,ignore,0.0,4400.0,1.62987654108
286,2_42_1,42,1.0,1498.1987363,2_ND,test,02,3,29.0,00000,kill,1.0,4500.0,3.04489071876
287,2_42_1,42,1.0,1501.52672986,2_ND,test,02,3,30.0,11000,kill,1.0,4600.0,1.26382842113
288,2_42_1,42,1.0,1507.15158028,2_ND,test,02,3,31.0,10010,kill,1.0,4700.0,3.53741721134
289,2_42_1,42,1.0,1510.52647944,2_ND,test,02,3,32.0,10011,ignore,1.0,4800.0,1.33345731363
290,2_42_1,42,1.0,1513.99514383,2_ND,test,02,3,33.0,01000,kill,1.0,4900.0,1.44222703091
291,2_42_1,42,1.0,1518.1824838,2_ND,test,02,3,34.0,01010,kill,1.0,5000.0,2.13833655395
292,2_42_1,42,1.0,1521.213671,2_ND,test,02,3,35.0,01110,kill,0.0,4900.0,0.987710761367
293,2_42_1,42,1.0,1524.82294629,2_ND,test,02,3,36.0,01111,ignore,1.0,5000.0,1.51094085032
294,2_42_1,42,1.0,1527.68226766,2_ND,test,02,3,37.0,01011,ignore,1.0,5100.0,0.838092821828
295,2_42_1,42,1.0,1530.80716672,2_ND,test,02,3,38.0,10001,ignore,1.0,5200.0,0.946488135045
296,2_42_1,42,1.0,1533.71331692,2_ND,test,02,3,39.0,11101,ignore,1.0,5300.0,0.815160572953
297,2_42_1,42,1.0,1538.32254541,2_ND,test,02,3,40.0,01100,ignore,0.0,5200.0,2.58848313396
298,2_42_1,42,1.0,1542.75994172,2_ND,test,02,3,41.0,00000,kill,1.0,5300.0,2.34480356308
299,2_42_1,42,1.0,1546.79106201,2_ND,test,02,3,42.0,00101,ignore,1.0,5400.0,1.97834737554
300,2_42_1,42,1.0,1550.50971418,2_ND,test,02,3,43.0,11000,kill,1.0,5500.0,1.60402418683
301,2_42_1,42,1.0,1555.61896422,2_ND,test,02,3,44.0,00010,kill,1.0,5600.0,3.01785644642
302,2_42_1,42,1.0,1559.55632749,2_ND,test,02,3,45.0,01101,ignore,1.0,5700.0,1.87705834997
303,2_42_1,42,1.0,1562.0093716,2_ND,test,02,3,46.0,10101,ignore,1.0,5800.0,0.358675397836
304,2_42_1,42,1.0,1579.07141347,2_ND,test,02,3,47.0,11100,ignore,0.0,5700.0,15.0352785513
305,2_42_1,42,1.0,1586.28992217,2_ND,test,02,3,48.0,10110,kill,0.0,5600.0,5.18629640075
306,2_42_1,42,1.0,1589.99292368,2_ND,test,02,3,49.0,10111,ignore,1.0,5700.0,1.60774934305
307,2_42_1,42,1.0,1594.85211655,2_ND,test,02,3,50.0,11010,ignore,0.0,5600.0,2.8344969828
308,2_42_1,42,1.0,1597.88332798,2_ND,test,02,3,51.0,11111,ignore,1.0,5700.0,0.945425270878
309,2_42_1,42,1.0,1608.33610811,2_ND,test,02,3,52.0,11110,kill,0.0,5600.0,8.44527891666
310,2_42_1,42,1.0,1613.39847882,2_ND,test,02,3,53.0,11001,ignore,1.0,5700.0,2.9875391595
311,2_42_1,42,1.0,1616.54217814,2_ND,test,02,3,54.0,01001,ignore,1.0,5800.0,1.07166923043
312,2_42_1,42,1.0,1618.948354,2_ND,test,02,3,55.0,00011,ignore,1.0,5900.0,0.38327850695
313,2_42_1,42,1.0,1629.7292763,2_ND,test,02,3,56.0,00110,ignore,1.0,6000.0,8.7388642502
314,2_42_1,42,1.0,1635.80723281,2_ND,test,02,3,57.0,10100,kill,1.0,6100.0,3.97465424072
315,2_42_1,42,1.0,1640.97898739,2_ND,test,02,3,58.0,10000,kill,1.0,6200.0,3.12024076809
316,2_42_1,42,1.0,1644.38827385,2_ND,test,02,3,59.0,00111,ignore,1.0,6300.0,1.34212361821
317,2_42_1,42,1.0,1647.1381826,2_ND,test,02,3,60.0,11011,ignore,1.0,6400.0,0.708331845161
318,2_42_1,42,1.0,1650.16934189,2_ND,test,02,3,61.0,00001,ignore,1.0,6500.0,0.912241658118
319,2_42_1,42,1.0,1656.90353512,2_ND,test,02,3,62.0,00100,kill,1.0,6600.0,4.62862113798
320,2_42_1,42,1.0,1663.35644252,2_ND,test,02,4,0.0,10010,kill,1.0,6700.0,4.41341639192
321,2_42_1,42,1.0,1666.10634594,2_ND,test,02,4,1.0,10111,ignore,0.0,6600.0,0.666949111835
322,2_42_1,42,1.0,1670.99692307,2_ND,test,02,4,2.0,11011,ignore,0.0,6500.0,2.79758287693
323,2_42_1,42,1.0,1683.79337206,2_ND,test,02,4,3.0,10000,kill,1.0,6600.0,10.589110425
324,2_42_1,42,1.0,1693.98056794,2_ND,test,02,4,4.0,11101,ignore,0.0,6500.0,8.10620800527
325,2_42_1,42,1.0,1700.32416208,2_ND,test,02,4,5.0,00101,kill,0.0,6400.0,4.27292249877
326,2_42_1,42,1.0,1705.54277997,2_ND,test,02,4,6.0,00110,kill,0.0,6300.0,3.13362571335
327,2_42_1,42,1.0,1710.08947272,2_ND,test,02,4,7.0,10100,kill,1.0,6400.0,2.49191398067
328,2_42_1,42,1.0,1714.71435105,2_ND,test,02,4,8.0,01010,ignore,1.0,6500.0,2.56114055301
329,2_42_1,42,1.0,1717.94862946,2_ND,test,02,4,9.0,01001,ignore,1.0,6600.0,1.14132768115
330,2_42_1,42,1.0,1721.46416169,2_ND,test,02,4,10.0,11001,kill,1.0,6700.0,1.46248713499
331,2_42_1,42,1.0,1724.94842338,2_ND,test,02,4,11.0,00100,ignore,1.0,6800.0,1.42909250942
332,2_42_1,42,1.0,1728.04206996,2_ND,test,02,4,12.0,10110,kill,1.0,6900.0,0.978833033441
333,2_42_1,42,1.0,1730.99515656,2_ND,test,02,4,13.0,01100,ignore,1.0,7000.0,0.910546987094
334,2_42_1,42,1.0,1733.97938068,2_ND,test,02,4,14.0,11000,kill,0.0,6900.0,0.893764899702
335,2_42_1,42,1.0,1738.04183883,2_ND,test,02,4,15.0,00001,ignore,1.0,7000.0,1.88868622353
336,2_42_1,42,1.0,1742.68225945,2_ND,test,02,4,16.0,10001,kill,1.0,7100.0,2.35476262905
337,2_42_1,42,1.0,1746.0103072,2_ND,test,02,4,17.0,00010,ignore,1.0,7200.0,1.21950587695
338,2_42_1,42,1.0,1749.44768955,2_ND,test,02,4,18.0,10011,kill,1.0,7300.0,1.40136074529
339,2_42_1,42,1.0,1754.29135697,2_ND,test,02,4,19.0,01101,ignore,1.0,7400.0,2.73766796353
340,2_42_1,42,1.0,1758.31596501,2_ND,test,02,4,20.0,01111,ignore,1.0,7500.0,2.002434858
341,2_42_1,42,1.0,1762.08150596,2_ND,test,02,4,21.0,11100,kill,0.0,7400.0,1.67302250406
342,2_42_1,42,1.0,1768.17825328,2_ND,test,02,4,22.0,00000,ignore,1.0,7500.0,4.0270736833
343,2_42_1,42,1.0,1772.52819423,2_ND,test,02,4,23.0,01110,ignore,1.0,7600.0,2.32987461159
344,2_42_1,42,1.0,1784.49982573,2_ND,test,02,4,24.0,11111,kill,1.0,7700.0,9.90889172702
345,2_42_1,42,1.0,1790.32064916,2_ND,test,02,4,25.0,01011,ignore,1.0,7800.0,3.79499489094
346,2_42_1,42,1.0,1795.82363105,2_ND,test,02,4,26.0,11110,kill,0.0,7700.0,3.48783823117
347,2_42_1,42,1.0,1799.82354813,2_ND,test,02,4,27.0,00011,ignore,1.0,7800.0,1.92960752027
348,2_42_1,42,1.0,1805.03286627,2_ND,test,02,4,28.0,10101,kill,1.0,7900.0,3.17895364738
349,2_42_1,42,1.0,1808.72024093,2_ND,test,02,4,29.0,01000,ignore,1.0,8000.0,1.60343959101
350,2_42_1,42,1.0,1812.87641259,2_ND,test,02,4,30.0,00111,ignore,1.0,8100.0,2.1287621553
351,2_42_1,42,1.0,1817.40750434,2_ND,test,02,4,31.0,11010,kill,0.0,8000.0,2.47226392531
352,2_42_1,42,1.0,1821.84488013,2_ND,test,02,4,32.0,00110,ignore,1.0,8100.0,2.35273994395
353,2_42_1,42,1.0,1826.26660361,2_ND,test,02,4,33.0,11101,kill,1.0,8200.0,2.4015249576
354,2_42_1,42,1.0,1836.78193919,2_ND,test,02,4,34.0,10110,kill,1.0,8300.0,8.45003819989
355,2_42_1,42,1.0,1842.29742174,2_ND,test,02,4,35.0,11110,kill,0.0,8200.0,3.45136503534
356,2_42_1,42,1.0,1846.32851288,2_ND,test,02,4,36.0,10100,kill,1.0,8300.0,1.96746872064
357,2_42_1,42,1.0,1850.70340958,2_ND,test,02,4,37.0,00100,ignore,1.0,8400.0,2.25993946313
358,2_42_1,42,1.0,1853.95330992,2_ND,test,02,4,38.0,00011,ignore,1.0,8500.0,1.22483251371
359,2_42_1,42,1.0,1857.67195471,2_ND,test,02,4,39.0,10010,kill,1.0,8600.0,1.61337402514
360,2_42_1,42,1.0,1860.96874999,2_ND,test,02,4,40.0,01101,ignore,1.0,8700.0,1.22342521423
361,2_42_1,42,1.0,1863.76551098,2_ND,test,02,4,41.0,00111,ignore,1.0,8800.0,0.772384498194
362,2_42_1,42,1.0,1871.34341966,2_ND,test,02,4,42.0,11100,ignore,1.0,8900.0,5.51405554728
363,2_42_1,42,1.0,1874.95272451,2_ND,test,02,4,43.0,01011,ignore,1.0,9000.0,1.59384548689
364,2_42_1,42,1.0,1877.70262588,2_ND,test,02,4,44.0,01001,ignore,1.0,9100.0,0.645177022921
365,2_42_1,42,1.0,1882.6868303,2_ND,test,02,4,45.0,00001,ignore,1.0,9200.0,2.8951804098
366,2_42_1,42,1.0,1887.15545897,2_ND,test,02,5,0.0,00000,ignore,1.0,9300.0,2.43826705109
367,2_42_1,42,1.0,1894.10839367,2_ND,test,02,5,1.0,10000,kill,0.0,9200.0,4.85786726801
368,2_42_1,42,1.0,1898.01452335,2_ND,test,02,5,2.0,01010,ignore,1.0,9300.0,1.89511924071
369,2_42_1,42,1.0,1901.74882414,2_ND,test,02,5,3.0,11011,kill,1.0,9400.0,1.68817724748
370,2_42_1,42,1.0,1904.68621696,2_ND,test,02,5,4.0,00101,ignore,1.0,9500.0,0.842817620472
371,2_42_1,42,1.0,1908.20175124,2_ND,test,02,5,5.0,01100,ignore,1.0,9600.0,1.50420773514
372,2_42_1,42,1.0,1911.62351085,2_ND,test,02,5,6.0,11000,kill,0.0,9500.0,1.40560727559
373,2_42_1,42,1.0,1915.99840098,2_ND,test,02,5,7.0,01111,kill,0.0,9400.0,2.27453629523
374,2_42_1,42,1.0,1919.96700154,2_ND,test,02,5,8.0,11111,kill,1.0,9500.0,1.93843352131
375,2_42_1,42,1.0,1924.07624706,2_ND,test,02,5,9.0,10111,kill,1.0,9600.0,2.01588630925
376,2_42_1,42,1.0,1928.15430004,2_ND,test,02,5,10.0,10001,kill,0.0,9500.0,2.05157703343
377,2_42_1,42,1.0,1933.15410833,2_ND,test,02,5,11.0,00010,ignore,0.0,9400.0,2.89545669701
378,2_42_1,42,1.0,1938.528973,2_ND,test,02,5,12.0,10101,kill,0.0,9300.0,3.22807816998
379,2_42_1,42,1.0,1941.93516282,2_ND,test,02,5,13.0,10011,kill,1.0,9400.0,1.353874651
380,2_42_1,42,1.0,1945.45067042,2_ND,test,02,5,14.0,01110,ignore,1.0,9500.0,1.43151710415
381,2_42_1,42,1.0,1949.85679784,2_ND,test,02,5,15.0,11001,kill,0.0,9400.0,2.4045374324
382,2_42_1,42,1.0,1959.04400972,2_ND,test,02,5,16.0,11010,kill,1.0,9500.0,7.11348302106
383,2_42_1,42,1.0,1963.41886537,2_ND,test,02,5,17.0,01000,ignore,1.0,9600.0,2.3120333548
384,2_42_1,42,1.0,1966.96566403,2_ND,test,02,5,18.0,01010,ignore,1.0,9700.0,1.52100665429
385,2_42_1,42,1.0,1976.0747593,2_ND,test,02,5,19.0,10001,kill,0.0,9600.0,7.00988845468
386,2_42_1,42,1.0,1979.54336375,2_ND,test,02,5,20.0,00000,ignore,1.0,9700.0,1.4566690929
387,2_42_1,42,1.0,1982.91831751,2_ND,test,02,5,21.0,01100,ignore,1.0,9800.0,1.3351967325
388,2_42_1,42,1.0,1986.66821437,2_ND,test,02,5,22.0,10101,kill,0.0,9700.0,1.67251098272
389,2_42_1,42,1.0,1991.90241519,2_ND,test,02,5,23.0,10011,ignore,0.0,9600.0,3.21204817496
390,2_42_1,42,1.0,1999.30846379,2_ND,test,02,5,24.0,11100,ignore,1.0,9700.0,5.40701046977
391,2_42_1,42,1.0,2002.58962236,2_ND,test,02,5,25.0,01011,ignore,1.0,9800.0,1.2682921222
392,2_42_1,42,1.0,2006.37078359,2_ND,test,02,5,26.0,01110,ignore,1.0,9900.0,1.70941072003
393,2_42_1,42,1.0,2009.54252175,2_ND,test,02,5,27.0,00111,ignore,0.0,9800.0,1.0724319966
394,2_42_1,42,1.0,2014.26116695,2_ND,test,02,5,28.0,10111,ignore,0.0,9700.0,2.6937768872
395,2_42_1,42,1.0,2017.12042017,2_ND,test,02,5,29.0,00010,ignore,0.0,9600.0,0.813284447329
396,2_42_1,42,1.0,2020.02664509,2_ND,test,02,5,30.0,01000,ignore,1.0,9700.0,0.807464763118
397,2_42_1,42,1.0,2023.01091889,2_ND,test,02,5,31.0,01101,ignore,1.0,9800.0,0.929102567419
398,2_42_1,42,1.0,2026.41704589,2_ND,test,02,5,32.0,11001,kill,0.0,9700.0,1.31143685359
399,2_42_1,42,1.0,2030.71377959,2_ND,test,02,5,33.0,10010,ignore,0.0,9600.0,2.27460608546
400,2_42_1,42,1.0,2038.46356355,2_ND,test,02,5,34.0,11111,ignore,0.0,9500.0,5.64742180518
401,2_42_1,42,1.0,2042.13896302,2_ND,test,02,5,35.0,01111,ignore,1.0,9600.0,1.57556824643
402,2_42_1,42,1.0,2047.80827679,2_ND,test,02,5,36.0,11110,kill,1.0,9700.0,3.65358961948
403,2_42_1,42,1.0,2051.74560517,2_ND,test,02,5,37.0,10110,kill,1.0,9800.0,1.87575039893
404,2_42_1,42,1.0,2055.19865543,2_ND,test,02,5,38.0,00001,ignore,1.0,9900.0,1.45017695929
405,2_42_1,42,1.0,2068.32643601,2_ND,test,02,5,39.0,11010,ignore,0.0,9800.0,11.0430453829
406,2_42_1,42,1.0,2071.65448006,2_ND,test,02,5,40.0,00101,ignore,1.0,9900.0,1.22510797986
407,2_42_1,42,1.0,2078.31376415,2_ND,test,02,5,41.0,10100,ignore,1.0,10000.0,4.62091917019
408,2_42_1,42,1.0,2086.59478437,2_ND,test,02,5,42.0,10000,ignore,1.0,10100.0,6.20224018431
409,2_42_1,42,1.0,2089.45404662,2_ND,test,02,5,43.0,00100,ignore,1.0,10200.0,0.828724920162
410,2_42_1,42,1.0,2092.0789738,2_ND,test,02,5,44.0,01001,ignore,1.0,10300.0,0.563648896021
411,2_42_1,42,1.0,2095.64136894,2_ND,test,02,5,45.0,11000,ignore,1.0,10400.0,1.45934205876
412,2_42_1,42,1.0,2098.31316067,2_ND,test,02,5,46.0,00110,ignore,0.0,10300.0,0.636363748328
413,2_42_1,42,1.0,2103.28175466,2_ND,test,02,5,47.0,00011,ignore,0.0,10200.0,2.93850166942
414,2_42_1,42,1.0,2106.67225399,2_ND,test,02,5,48.0,11011,ignore,0.0,10100.0,1.32869064084
415,2_42_1,42,1.0,2118.29694512,2_ND,test,02,5,49.0,11101,kill,0.0,10000.0,9.57094649101
416,2_42_1,42,1.0,2121.59375845,2_ND,test,02,5,50.0,01110,ignore,1.0,10100.0,1.22633259315
417,2_42_1,42,1.0,2124.49994971,2_ND,test,02,5,51.0,00001,ignore,1.0,10200.0,0.888540895639
418,2_42_1,42,1.0,2127.65603679,2_ND,test,02,5,52.0,00011,ignore,0.0,10100.0,1.02625426388
419,2_42_1,42,1.0,2132.34343896,2_ND,test,02,5,53.0,11001,ignore,1.0,10200.0,2.61982510568
420,2_42_1,42,1.0,2135.64020878,2_ND,test,02,5,54.0,11011,ignore,0.0,10100.0,1.25418094801
421,2_42_1,42,1.0,2138.56199487,2_ND,test,02,5,55.0,00110,ignore,0.0,10000.0,0.824627412536
422,2_42_1,42,1.0,2141.57753428,2_ND,test,02,5,56.0,11000,ignore,1.0,10100.0,0.998062705292
423,2_42_1,42,1.0,2144.42120786,2_ND,test,02,5,57.0,11100,ignore,1.0,10200.0,0.750322164022
424,2_42_1,42,1.0,2147.24925006,2_ND,test,02,5,58.0,01011,ignore,1.0,10300.0,0.765456380899
425,2_42_1,42,1.0,2150.76475807,2_ND,test,02,5,59.0,10001,ignore,1.0,10400.0,1.47037096792
426,2_42_1,42,1.0,2153.84280654,2_ND,test,02,5,60.0,00000,ignore,1.0,10500.0,0.868101389606
427,2_42_1,42,1.0,2156.29584366,2_ND,test,02,5,61.0,01000,ignore,1.0,10600.0,0.454834020356
428,2_42_1,42,1.0,2158.98326841,2_ND,test,02,5,62.0,01001,ignore,1.0,10700.0,0.653602345936
429,2_42_1,42,1.0,2162.35818522,2_ND,test,02,5,63.0,01101,ignore,1.0,10800.0,1.28308559854
430,2_42_1,42,1.0,2166.42054731,2_ND,test,02,5,64.0,10011,ignore,0.0,10700.0,2.02965181654
431,2_42_1,42,1.0,2172.5141237,2_ND,test,02,5,65.0,01100,ignore,1.0,10800.0,4.06860543929
432,2_42_1,42,1.0,2175.74844645,2_ND,test,02,5,66.0,10000,ignore,1.0,10900.0,1.22200600935
433,2_42_1,42,1.0,2180.06080166,2_ND,test,02,5,67.0,11110,kill,1.0,11000.0,2.25238487588
434,2_42_1,42,1.0,2184.24818227,2_ND,test,02,5,68.0,00100,ignore,1.0,11100.0,2.07591822391
435,2_42_1,42,1.0,2189.37301442,2_ND,test,02,5,69.0,10111,kill,1.0,11200.0,3.14061746291
436,2_42_1,42,1.0,2192.29481364,2_ND,test,02,5,70.0,00101,ignore,1.0,11300.0,0.870134748517
