,unique_id,pair_id,sbj_id,wall_time,condition,block,rule_id,rule_num,trial,stimulus,choice,correct,points,reaction_time
0,1_25_1,25,1.0,28.07594834,1_I,training,05,1_A,1.0,01001,ignore,1.0,100.0,4.67288213111
1,1_25_1,25,1.0,33.3731058699,1_I,training,05,1_A,2.0,11011,kill,0.0,0.0,3.14496481952
2,1_25_1,25,1.0,44.5160597347,1_I,training,05,1_A,3.0,01111,ignore,1.0,100.0,8.99390587706
3,1_25_1,25,1.0,52.2646862237,1_I,training,05,1_A,4.0,00100,ignore,0.0,0.0,5.49432217996
4,1_25_1,25,1.0,58.7025146877,1_I,training,05,1_A,5.0,11100,kill,0.0,0.0,4.24514307927
5,1_25_1,25,1.0,64.0778271554,1_I,training,05,1_A,6.0,01000,ignore,0.0,0.0,3.24014102983
6,1_25_1,25,1.0,69.2811689965,1_I,training,05,1_A,7.0,10001,kill,0.0,0.0,3.0436633758
7,1_25_1,25,1.0,73.9532935718,1_I,training,05,1_A,8.0,00010,kill,1.0,100.0,2.56117215248
8,1_25_1,25,1.0,81.6411308557,1_I,training,05,1_A,9.0,10010,ignore,0.0,0.0,5.5954648641
9,1_25_1,25,1.0,87.2195673914,1_I,training,05,1_A,10.0,10101,kill,0.0,0.0,3.47350799667
10,1_25_1,25,1.0,91.0011164487,1_I,training,05,1_A,11.0,01010,kill,1.0,100.0,1.71112747529
11,1_25_1,25,1.0,96.6576328722,1_I,training,05,1_A,12.0,01011,ignore,1.0,200.0,3.54769939723
12,1_25_1,25,1.0,102.407913668,1_I,training,05,1_A,13.0,00111,ignore,1.0,300.0,3.64438238032
13,1_25_1,25,1.0,106.533099289,1_I,training,05,1_A,14.0,11010,kill,1.0,400.0,2.0032191312
14,1_25_1,25,1.0,113.752259678,1_I,training,05,1_A,15.0,01101,ignore,1.0,500.0,5.07224491184
15,1_25_1,25,1.0,119.627532696,1_I,training,05,1_A,16.0,11111,kill,0.0,400.0,3.75494961067
16,1_25_1,25,1.0,124.877787193,1_I,training,05,1_A,17.0,11110,ignore,1.0,500.0,3.18090895154
17,1_25_1,25,1.0,128.706112597,1_I,training,05,1_A,18.0,10011,ignore,1.0,600.0,1.74239734028
18,1_25_1,25,1.0,132.768851177,1_I,training,05,1_A,19.0,01110,ignore,0.0,500.0,1.98641306614
19,1_25_1,25,1.0,137.503447809,1_I,training,05,1_A,20.0,11000,kill,1.0,600.0,2.64381950543
20,1_25_1,25,1.0,143.738116284,1_I,training,05,1_A,21.0,10100,ignore,1.0,700.0,4.15587881929
21,1_25_1,25,1.0,153.86363546,1_I,training,05,1_A,22.0,00110,ignore,0.0,600.0,7.99515125779
22,1_25_1,25,1.0,158.629502919,1_I,training,05,1_A,23.0,10000,kill,1.0,700.0,2.72960195925
23,1_25_1,25,1.0,162.629745709,1_I,training,05,1_A,24.0,11101,ignore,1.0,800.0,1.95078196312
24,1_25_1,25,1.0,165.606069042,1_I,training,05,1_A,25.0,10111,ignore,1.0,900.0,0.922824560717
25,1_25_1,25,1.0,168.90308866,1_I,training,05,1_A,26.0,00101,ignore,1.0,1000.0,1.25042544361
26,1_25_1,25,1.0,182.294399283,1_I,training,05,1_A,27.0,10110,ignore,1.0,1100.0,11.3563880046
27,1_25_1,25,1.0,188.436607138,1_I,training,05,1_A,28.0,01100,ignore,0.0,1000.0,4.10572297832
28,1_25_1,25,1.0,192.093039852,1_I,training,05,1_A,29.0,11001,ignore,1.0,1100.0,1.62347294127
29,1_25_1,25,1.0,195.374445223,1_I,training,05,1_A,30.0,00001,ignore,1.0,1200.0,1.23382111547
30,1_25_1,25,1.0,199.155882668,1_I,training,05,1_A,31.0,00000,kill,1.0,1300.0,1.75648043793
31,1_25_1,25,1.0,202.374794495,1_I,training,05,1_A,32.0,00011,ignore,1.0,1400.0,1.21056524185
32,1_25_1,25,1.0,206.109333396,1_I,training,05,1_A,33.0,10111,ignore,1.0,1500.0,1.71070988947
33,1_25_1,25,1.0,209.406404971,1_I,training,05,1_A,34.0,00011,ignore,1.0,1600.0,1.26210181012
34,1_25_1,25,1.0,212.453441106,1_I,training,05,1_A,35.0,11011,ignore,1.0,1700.0,1.01612484212
35,1_25_1,25,1.0,215.797355418,1_I,training,05,1_A,36.0,00101,ignore,1.0,1800.0,1.29965759246
36,1_25_1,25,1.0,218.891231403,1_I,training,05,1_A,37.0,01001,ignore,1.0,1900.0,1.05083995045
37,1_25_1,25,1.0,228.032572014,1_I,training,05,1_A,38.0,10110,kill,0.0,1800.0,7.10114653285
38,1_25_1,25,1.0,232.439046583,1_I,training,05,1_A,39.0,11100,ignore,1.0,1900.0,2.40110560816
39,1_25_1,25,1.0,235.73610116,1_I,training,05,1_A,40.0,10000,kill,1.0,2000.0,1.26810067731
40,1_25_1,25,1.0,239.126899262,1_I,training,05,1_A,41.0,11101,ignore,1.0,2100.0,1.39079425335
41,1_25_1,25,1.0,243.268636611,1_I,training,05,1_A,42.0,10010,kill,1.0,2200.0,2.10720697952
42,1_25_1,25,1.0,246.331311688,1_I,training,05,1_A,43.0,10011,ignore,1.0,2300.0,1.0426065822
43,1_25_1,25,1.0,251.753465609,1_I,training,05,1_A,44.0,00110,ignore,0.0,2200.0,3.40615352148
44,1_25_1,25,1.0,254.737988955,1_I,training,05,1_A,45.0,10101,ignore,1.0,2300.0,0.952034079108
45,1_25_1,25,1.0,257.753769658,1_I,training,05,1_A,46.0,01101,ignore,1.0,2400.0,1.02360642761
46,1_25_1,25,1.0,261.160210871,1_I,training,05,1_A,47.0,01000,kill,1.0,2500.0,1.38778616014
47,1_25_1,25,1.0,265.363559768,1_I,training,05,1_A,48.0,00000,kill,1.0,2600.0,2.16845738925
48,1_25_1,25,1.0,269.191863363,1_I,training,05,1_A,49.0,11111,ignore,1.0,2700.0,1.82229574698
49,1_25_1,25,1.0,273.535803975,1_I,training,05,1_A,50.0,01010,kill,1.0,2800.0,2.33775027085
50,1_25_1,25,1.0,278.286092147,1_I,training,05,1_A,51.0,00100,ignore,0.0,2700.0,2.72746271395
51,1_25_1,25,1.0,281.129934937,1_I,training,05,1_A,52.0,01011,ignore,1.0,2800.0,0.814053719112
52,1_25_1,25,1.0,285.677086213,1_I,training,05,1_A,53.0,01100,kill,1.0,2900.0,2.52166539124
53,1_25_1,25,1.0,289.646061704,1_I,training,05,1_A,54.0,10100,ignore,1.0,3000.0,1.95270920825
54,1_25_1,25,1.0,292.802475816,1_I,training,05,1_A,55.0,01111,ignore,1.0,3100.0,1.13465186108
55,1_25_1,25,1.0,296.818299175,1_I,training,05,1_A,56.0,10001,ignore,1.0,3200.0,2.02263109853
56,1_25_1,25,1.0,299.537148781,1_I,training,05,1_A,57.0,00111,ignore,1.0,3300.0,0.706112917514
57,1_25_1,25,1.0,304.365572647,1_I,training,05,1_A,58.0,11000,kill,1.0,3400.0,2.80303933197
58,1_25_1,25,1.0,308.146987962,1_I,training,05,1_A,59.0,11110,ignore,1.0,3500.0,1.8078604917
59,1_25_1,25,1.0,312.037810439,1_I,training,05,1_A,60.0,01110,kill,1.0,3600.0,1.85915555296
60,1_25_1,25,1.0,315.178590099,1_I,training,05,1_A,61.0,00001,ignore,1.0,3700.0,1.1086069504
61,1_25_1,25,1.0,317.975625753,1_I,training,05,1_A,62.0,11001,ignore,1.0,3800.0,0.8061702634
62,1_25_1,25,1.0,322.007028078,1_I,training,05,1_A,63.0,00010,kill,1.0,3900.0,2.0436245679
63,1_25_1,25,1.0,326.01360297,1_I,training,05,1_A,64.0,11010,kill,1.0,4000.0,2.03231511244
64,1_25_1,25,1.0,332.357696568,1_I,training,05,1_A,65.0,01110,kill,1.0,4100.0,4.36430834383
65,1_25_1,25,1.0,335.26409737,1_I,training,05,1_A,66.0,01101,ignore,1.0,4200.0,0.888323056189
66,1_25_1,25,1.0,338.342348846,1_I,training,05,1_A,67.0,00011,ignore,1.0,4300.0,1.0991304465
67,1_25_1,25,1.0,340.967487962,1_I,training,05,1_A,68.0,00001,ignore,1.0,4400.0,0.637383488105
68,1_25_1,25,1.0,345.014567074,1_I,training,05,1_A,69.0,11000,kill,1.0,4500.0,2.03305021742
69,1_25_1,25,1.0,348.677206486,1_I,training,05,1_A,70.0,10000,kill,1.0,4600.0,1.67656631564
70,1_25_1,25,1.0,351.630469909,1_I,training,05,1_A,71.0,01010,kill,1.0,4700.0,0.96743343804
71,1_25_1,25,1.0,355.396362706,1_I,training,05,1_A,72.0,00110,kill,1.0,4800.0,1.77506910051
72,1_25_1,25,1.0,359.224647377,1_I,training,05,1_A,73.0,11100,ignore,1.0,4900.0,1.83729836731
73,1_25_1,25,1.0,362.912325902,1_I,training,05,1_A,74.0,00000,kill,1.0,5000.0,1.67184105311
74,1_25_1,25,1.0,366.068719166,1_I,training,05,1_A,75.0,00101,ignore,1.0,5100.0,1.15448333858
75,1_25_1,25,1.0,369.272061649,1_I,training,05,1_A,76.0,11001,ignore,1.0,5200.0,1.20160639041
76,1_25_1,25,1.0,372.506574892,1_I,training,05,1_A,77.0,11101,ignore,1.0,5300.0,1.24773102085
77,1_25_1,25,1.0,375.491117161,1_I,training,05,1_A,78.0,01111,ignore,1.0,5400.0,0.97815885067
78,1_25_1,25,1.0,379.381922319,1_I,training,05,1_A,79.0,01100,kill,1.0,5500.0,1.88113525611
79,1_25_1,25,1.0,382.741486156,1_I,training,05,1_A,80.0,00100,kill,1.0,5600.0,1.29498460834
80,1_25_1,25,1.0,387.085440239,1_I,training,05,1_A,81.0,11110,ignore,1.0,5700.0,2.34492460042
81,1_25_1,25,1.0,390.163750087,1_I,training,05,1_A,82.0,11010,kill,1.0,5800.0,1.1049631774
82,1_25_1,25,1.0,393.710777563,1_I,training,05,1_A,83.0,10100,ignore,1.0,5900.0,1.53810133801
83,1_25_1,25,1.0,397.148452399,1_I,training,05,1_A,84.0,10101,ignore,1.0,6000.0,1.4006838529
84,1_25_1,25,1.0,399.789230135,1_I,training,05,1_A,85.0,01001,ignore,1.0,6100.0,0.661947925573
85,1_25_1,25,1.0,402.476838099,1_I,training,05,1_A,86.0,10011,ignore,1.0,6200.0,0.689574338293
86,1_25_1,25,1.0,405.273872149,1_I,training,05,1_A,87.0,10111,ignore,1.0,6300.0,0.811862836851
87,1_25_1,25,1.0,408.212954012,1_I,training,05,1_A,88.0,01000,kill,1.0,6400.0,0.937837765024
88,1_25_1,25,1.0,411.603736399,1_I,training,05,1_A,89.0,11111,ignore,1.0,6500.0,1.36922572149
89,1_25_1,25,1.0,415.588352435,1_I,training,05,1_A,90.0,10110,ignore,1.0,6600.0,2.00027839054
90,1_25_1,25,1.0,418.779153231,1_I,training,05,1_A,91.0,10010,kill,1.0,6700.0,1.19702064388
91,1_25_1,25,1.0,422.029326263,1_I,training,05,1_A,92.0,11011,ignore,1.0,6800.0,1.25916074873
92,1_25_1,25,1.0,424.779436112,1_I,training,05,1_A,93.0,01011,ignore,1.0,6900.0,0.758281316851
93,1_25_1,25,1.0,430.170363787,1_I,training,05,1_A,94.0,00010,kill,1.0,7000.0,3.3654437154
94,1_25_1,25,1.0,436.123875132,1_I,training,05,1_A,95.0,10001,ignore,1.0,7100.0,3.96216678929
95,1_25_1,25,1.0,438.999024029,1_I,training,05,1_A,96.0,00111,ignore,1.0,7200.0,0.838028982123
96,1_25_1,25,1.0,442.452327223,1_I,training,05,1_A,97.0,01110,kill,1.0,7300.0,1.45812820205
97,1_25_1,25,1.0,445.389970949,1_I,training,05,1_A,98.0,11001,ignore,1.0,7400.0,0.965936928506
98,1_25_1,25,1.0,448.390124256,1_I,training,05,1_A,99.0,00110,kill,1.0,7500.0,0.988769122512
99,1_25_1,25,1.0,450.937110999,1_I,training,05,1_A,100.0,00011,ignore,1.0,7600.0,0.571847852512
100,1_25_1,25,1.0,453.374734198,1_I,training,05,1_A,101.0,01101,ignore,1.0,7700.0,0.426238052139
101,1_25_1,25,1.0,455.703001871,1_I,training,05,1_A,102.0,11111,ignore,1.0,7800.0,0.343519818648
102,1_25_1,25,1.0,459.875077375,1_I,training,05,1_A,103.0,10110,ignore,1.0,7900.0,2.18487409242
103,1_25_1,25,1.0,462.632054939,1_I,training,05,1_A,104.0,00001,ignore,1.0,8000.0,0.766233087293
104,1_25_1,25,1.0,465.944753268,1_I,training,05,1_A,105.0,10100,ignore,1.0,8100.0,1.34259484362
105,1_25_1,25,1.0,469.288658921,1_I,training,05,1_A,106.0,00000,kill,1.0,8200.0,1.32579102364
106,1_25_1,25,1.0,471.991921863,1_I,training,05,1_A,107.0,10111,ignore,1.0,8300.0,0.702293065702
107,1_25_1,25,1.0,475.476481451,1_I,training,05,1_A,108.0,00010,kill,1.0,8400.0,1.50480191615
108,1_25_1,25,1.0,479.757918255,1_I,training,05,1_A,109.0,01010,kill,1.0,8500.0,2.30652659047
109,1_25_1,25,1.0,482.429946933,1_I,training,05,1_A,110.0,00101,ignore,1.0,8600.0,0.650326082564
110,1_25_1,25,1.0,485.351952037,1_I,training,05,1_A,111.0,01000,kill,1.0,8700.0,0.934795033359
111,1_25_1,25,1.0,489.930309353,1_I,training,05,1_A,112.0,10010,kill,1.0,8800.0,2.56632109463
112,1_25_1,25,1.0,492.571064318,1_I,training,05,1_A,113.0,01011,ignore,1.0,8900.0,0.661264136819
113,1_25_1,25,1.0,496.024417545,1_I,training,05,1_A,114.0,10000,kill,1.0,9000.0,1.41499626995
114,1_25_1,25,1.0,499.790186862,1_I,training,05,1_A,115.0,01100,kill,1.0,9100.0,1.74670341336
115,1_25_1,25,1.0,503.14971991,1_I,training,05,1_A,116.0,11000,kill,1.0,9200.0,1.37831510859
116,1_25_1,25,1.0,506.528025717,1_I,training,05,1_A,117.0,11100,ignore,1.0,9300.0,1.38408016621
117,1_25_1,25,1.0,509.762568467,1_I,training,05,1_A,118.0,00100,kill,1.0,9400.0,1.25541273964
118,1_25_1,25,1.0,512.356446056,1_I,training,05,1_A,119.0,10001,ignore,1.0,9500.0,0.577908299181
119,1_25_1,25,1.0,514.934706192,1_I,training,05,1_A,120.0,10011,ignore,1.0,9600.0,0.576470482584
120,1_25_1,25,1.0,517.684843303,1_I,training,05,1_A,121.0,11101,ignore,1.0,9700.0,0.768645591519
121,1_25_1,25,1.0,520.169340028,1_I,training,05,1_A,122.0,00111,ignore,1.0,9800.0,0.478821150754
122,1_25_1,25,1.0,522.935107742,1_I,training,05,1_A,123.0,01001,ignore,1.0,9900.0,0.762672061713
123,1_25_1,25,1.0,525.450835845,1_I,training,05,1_A,124.0,01111,ignore,1.0,10000.0,0.521673088679
124,1_25_1,25,1.0,529.107279143,1_I,training,05,1_A,125.0,11110,ignore,1.0,10100.0,1.65894143599
125,1_25_1,25,1.0,532.233464147,1_I,training,05,1_A,126.0,10101,ignore,1.0,10200.0,1.15054257291
126,1_25_1,25,1.0,536.124305547,1_I,training,05,1_A,127.0,11010,kill,1.0,10300.0,1.91947457313
127,1_25_1,25,1.0,539.330722193,1_I,training,05,1_A,128.0,11011,ignore,1.0,10400.0,1.22327819618
128,1_25_1,25,1.0,543.377778533,1_I,training,05,1_A,129.0,10000,kill,1.0,10500.0,2.05262896249
129,1_25_1,25,1.0,546.862327217,1_I,training,05,1_A,130.0,11010,kill,1.0,10600.0,1.48728319695
130,1_25_1,25,1.0,550.175032281,1_I,training,05,1_A,131.0,11000,kill,1.0,10700.0,1.35531902338
131,1_25_1,25,1.0,552.784546246,1_I,training,05,1_A,132.0,10001,ignore,1.0,10800.0,0.61853215058
132,1_25_1,25,1.0,556.190958594,1_I,training,05,1_A,133.0,01110,kill,1.0,10900.0,1.39971461762
133,1_25_1,25,1.0,558.737948223,1_I,training,05,1_A,134.0,00011,ignore,1.0,11000.0,0.573695236763
134,1_25_1,25,1.0,561.253709362,1_I,training,05,1_A,135.0,10011,ignore,1.0,11100.0,0.524689841503
135,1_25_1,25,1.0,564.644484692,1_I,training,05,1_A,136.0,00110,kill,1.0,11200.0,1.42326620101
136,1_25_1,25,1.0,567.738373186,1_I,training,05,1_A,137.0,10100,ignore,1.0,11300.0,1.07521997022
137,1_25_1,25,1.0,570.535419424,1_I,training,05,1_A,138.0,00101,ignore,1.0,11400.0,0.764545745532
138,1_25_1,25,1.0,573.099072074,1_I,training,05,1_A,139.0,01101,ignore,1.0,11500.0,0.588253971716
139,1_25_1,25,1.0,576.208592454,1_I,training,05,1_A,140.0,01100,kill,1.0,11600.0,1.10658156298
140,1_25_1,25,1.0,579.193129912,1_I,training,05,1_A,141.0,01000,kill,1.0,11700.0,1.01329892153
141,1_25_1,25,1.0,581.755745333,1_I,training,05,1_A,142.0,11101,ignore,1.0,11800.0,0.537035243345
142,1_25_1,25,1.0,584.959064082,1_I,training,05,1_A,143.0,11100,ignore,1.0,11900.0,1.20152941607
143,1_25_1,25,1.0,588.05293686,1_I,training,05,1_A,144.0,01010,kill,1.0,12000.0,1.12016015795
144,1_25_1,25,1.0,591.053090167,1_I,training,05,1_A,145.0,00100,kill,1.0,12100.0,0.967601177964
145,1_25_1,25,1.0,594.912700831,1_I,training,05,1_A,146.0,11110,ignore,1.0,12200.0,1.92821116115
146,1_25_1,25,1.0,597.709683244,1_I,training,05,1_A,147.0,10110,ignore,1.0,12300.0,0.809329739487
147,1_25_1,25,1.0,605.194426608,1_I,training,05,1_A,148.0,10101,ignore,1.0,12400.0,5.49496010484
148,1_25_1,25,1.0,607.835191836,1_I,training,05,1_A,149.0,01011,ignore,1.0,12500.0,0.670730698202
149,1_25_1,25,1.0,610.991605306,1_I,training,05,1_A,150.0,01111,ignore,1.0,12600.0,1.1783543655
150,1_25_1,25,1.0,613.81987298,1_I,training,05,1_A,151.0,11111,ignore,1.0,12700.0,0.833397050985
151,1_25_1,25,1.0,616.835658172,1_I,training,05,1_A,152.0,01001,ignore,1.0,12800.0,1.03022429682
152,1_25_1,25,1.0,619.242062502,1_I,training,05,1_A,153.0,00001,ignore,1.0,12900.0,0.410402505258
153,1_25_1,25,1.0,621.679677041,1_I,training,05,1_A,154.0,00111,ignore,1.0,13000.0,0.456907196524
154,1_25_1,25,1.0,624.213045419,1_I,training,05,1_A,155.0,10111,ignore,1.0,13100.0,0.524350833664
155,1_25_1,25,1.0,627.523720606,1_I,training,05,1_A,156.0,00010,kill,1.0,13200.0,1.3174534193
156,1_25_1,25,1.0,631.398894841,1_I,training,05,1_A,157.0,11001,ignore,1.0,13300.0,1.91137655143
157,1_25_1,25,1.0,635.996289195,1_I,training,05,1_A,158.0,00000,kill,1.0,13400.0,2.5914121649
158,1_25_1,25,1.0,639.574812648,1_I,training,05,1_A,159.0,10010,kill,1.0,13500.0,1.59795338049
159,1_25_1,25,1.0,642.574951201,1_I,training,05,1_A,160.0,11011,ignore,1.0,13600.0,1.00248113968
160,1_25_1,25,1.0,645.792833496,1_I,training,05,1_A,161.0,11100,ignore,1.0,13700.0,1.20762963281
161,1_25_1,25,1.0,650.261832721,1_I,training,05,1_A,162.0,10011,ignore,1.0,13800.0,2.50249204438
162,1_25_1,25,1.0,653.011960851,1_I,training,05,1_A,163.0,10111,ignore,1.0,13900.0,0.767247224273
163,1_25_1,25,1.0,656.16839613,1_I,training,05,1_A,164.0,00001,ignore,1.0,14000.0,1.18367553775
164,1_25_1,25,1.0,659.137278611,1_I,training,05,1_A,165.0,10100,ignore,1.0,14100.0,0.982111162499
165,1_25_1,25,1.0,662.262411953,1_I,training,05,1_A,166.0,00011,ignore,1.0,14200.0,1.11656513537
166,1_25_1,25,1.0,664.762558204,1_I,training,05,1_A,167.0,00111,ignore,1.0,14300.0,0.517932777023
167,1_25_1,25,1.0,667.793966623,1_I,training,05,1_A,168.0,01110,kill,1.0,14400.0,1.06447435183
168,1_25_1,25,1.0,670.840974213,1_I,training,05,1_A,169.0,01111,ignore,1.0,14500.0,1.05184061692
169,1_25_1,25,1.0,673.262991185,1_I,training,05,1_A,170.0,01011,ignore,1.0,14600.0,0.456167280644
170,1_25_1,25,1.0,676.778797545,1_I,training,05,1_A,171.0,00010,kill,1.0,14700.0,1.51672331765
171,1_25_1,25,1.0,679.622745213,1_I,training,05,1_A,172.0,11101,ignore,1.0,14800.0,0.894351430215
172,1_25_1,25,1.0,682.169712071,1_I,training,05,1_A,173.0,10001,ignore,1.0,14900.0,0.544176538092
173,1_25_1,25,1.0,684.747948153,1_I,training,05,1_A,174.0,11011,ignore,1.0,15000.0,0.585250047949
174,1_25_1,25,1.0,688.482506297,1_I,training,05,1_A,175.0,00110,kill,1.0,15100.0,1.75253421991
175,1_25_1,25,1.0,691.435744063,1_I,training,05,1_A,176.0,01000,kill,1.0,15200.0,0.97608567501
176,1_25_1,25,1.0,694.498457306,1_I,training,05,1_A,177.0,10110,ignore,1.0,15300.0,1.10416649294
177,1_25_1,25,1.0,697.107995325,1_I,training,05,1_A,178.0,11110,ignore,1.0,15400.0,0.626469167606
178,1_25_1,25,1.0,700.655028894,1_I,training,05,1_A,179.0,10000,kill,1.0,15500.0,1.57619690294
179,1_25_1,25,1.0,703.3114491,1_I,training,05,1_A,180.0,01100,kill,1.0,15600.0,0.688005344585
180,1_25_1,25,1.0,706.374092745,1_I,training,05,1_A,181.0,00101,ignore,1.0,15700.0,1.06647825058
181,1_25_1,25,1.0,708.827322492,1_I,training,05,1_A,182.0,11111,ignore,1.0,15800.0,0.511349866995
182,1_25_1,25,1.0,711.139934867,1_I,training,05,1_A,183.0,11001,ignore,1.0,15900.0,0.330602561578
183,1_25_1,25,1.0,714.640126661,1_I,training,05,1_A,184.0,11010,kill,1.0,16000.0,1.5158005877
184,1_25_1,25,1.0,717.140273875,1_I,training,05,1_A,185.0,11000,kill,1.0,16100.0,0.5337901333
185,1_25_1,25,1.0,719.984155794,1_I,training,05,1_A,186.0,00000,kill,1.0,16200.0,0.846158755735
186,1_25_1,25,1.0,722.531173647,1_I,training,05,1_A,187.0,10010,kill,1.0,16300.0,0.579968004331
187,1_25_1,25,1.0,725.359444848,1_I,training,05,1_A,188.0,00100,kill,1.0,16400.0,0.842840840791
188,1_25_1,25,1.0,728.5939706,1_I,training,05,1_A,189.0,01101,ignore,1.0,16500.0,1.2474391598
189,1_25_1,25,1.0,731.828506614,1_I,training,05,1_A,190.0,01010,kill,1.0,16600.0,1.29261989235
190,1_25_1,25,1.0,735.297402565,1_I,training,05,1_A,191.0,01001,ignore,1.0,16700.0,1.50413416372
191,1_25_1,25,1.0,738.031961993,1_I,training,05,1_A,192.0,10101,ignore,1.0,16800.0,0.712629757896
192,1_25_1,25,1.0,740.422694346,1_I,training,05,1_A,193.0,11111,ignore,1.0,16900.0,0.418849156586
193,1_25_1,25,1.0,743.750992809,1_I,training,05,1_A,194.0,00110,kill,1.0,17000.0,1.3124568222
194,1_25_1,25,1.0,747.173055003,1_I,training,05,1_A,195.0,11011,ignore,1.0,17100.0,1.4662159605
195,1_25_1,25,1.0,750.079480821,1_I,training,05,1_A,196.0,10111,ignore,1.0,17200.0,0.900709511014
196,1_25_1,25,1.0,753.44205211,1_I,training,05,1_A,197.0,01010,kill,1.0,17300.0,1.37490867315
197,1_25_1,25,1.0,756.567229392,1_I,training,05,1_A,198.0,11110,ignore,1.0,17400.0,1.17467370896
198,1_25_1,25,1.0,759.504853874,1_I,training,05,1_A,199.0,10001,ignore,1.0,17500.0,0.949929792984
199,1_25_1,25,1.0,764.145698642,1_I,training,05,1_A,200.0,01101,ignore,1.0,17600.0,2.68760988889
200,1_25_1,25,1.0,767.505285251,1_I,training,05,1_A,201.0,00010,kill,1.0,17700.0,1.37636861987
201,1_25_1,25,1.0,771.208579945,1_I,training,05,1_A,202.0,00100,kill,1.0,17800.0,1.71129521521
202,1_25_1,25,1.0,773.66183086,1_I,training,05,1_A,203.0,01110,kill,1.0,17900.0,0.505970963995
203,1_25_1,25,1.0,776.630722962,1_I,training,05,1_A,204.0,10100,ignore,1.0,18000.0,0.972018863846
204,1_25_1,25,1.0,779.537138838,1_I,training,05,1_A,205.0,01000,kill,1.0,18100.0,0.948918221816
205,1_25_1,25,1.0,782.58414258,1_I,training,05,1_A,206.0,01011,ignore,1.0,18200.0,1.09363544053
206,1_25_1,25,1.0,785.678048072,1_I,training,05,1_A,207.0,10000,kill,1.0,18300.0,1.10441281084
207,1_25_1,25,1.0,788.318808168,1_I,training,05,1_A,208.0,10010,kill,1.0,18400.0,0.692118661083
208,1_25_1,25,1.0,790.795962824,1_I,training,05,1_A,209.0,11010,kill,1.0,18500.0,0.544724338838
209,1_25_1,25,1.0,793.483658668,1_I,training,05,1_A,210.0,01100,kill,1.0,18600.0,0.697850042432
210,1_25_1,25,1.0,797.108842364,1_I,training,05,1_A,211.0,00101,ignore,1.0,18700.0,1.63629526332
211,1_25_1,25,1.0,799.468319926,1_I,training,05,1_A,212.0,00001,ignore,1.0,18800.0,0.367893423889
212,1_25_1,25,1.0,801.859081786,1_I,training,05,1_A,213.0,00011,ignore,1.0,18900.0,0.441137398562
213,1_25_1,25,1.0,804.296686062,1_I,training,05,1_A,214.0,00111,ignore,1.0,19000.0,0.413146961341
214,1_25_1,25,1.0,806.687451771,1_I,training,05,1_A,215.0,10011,ignore,1.0,19100.0,0.419063722569
215,1_25_1,25,1.0,809.046968782,1_I,training,05,1_A,216.0,11101,ignore,1.0,19200.0,0.402774347787
216,1_25_1,25,1.0,811.468922892,1_I,training,05,1_A,217.0,01001,ignore,1.0,19300.0,0.433189476837
217,1_25_1,25,1.0,814.062833515,1_I,training,05,1_A,218.0,01111,ignore,1.0,19400.0,0.656382680516
218,1_25_1,25,1.0,816.719202405,1_I,training,05,1_A,219.0,10101,ignore,1.0,19500.0,0.643166827137
219,1_25_1,25,1.0,819.188076867,1_I,training,05,1_A,220.0,11001,ignore,1.0,19600.0,0.488424662323
220,1_25_1,25,1.0,822.375721394,1_I,training,05,1_A,221.0,11100,ignore,1.0,19700.0,1.24473511525
221,1_25_1,25,1.0,825.250916155,1_I,training,05,1_A,222.0,11000,kill,1.0,19800.0,0.89824023821
222,1_25_1,25,1.0,828.407305571,1_I,training,05,1_A,223.0,10110,ignore,1.0,19900.0,1.21384178308
223,1_25_1,25,1.0,831.663740466,1_I,training,05,1_A,224.0,00000,kill,1.0,20000.0,1.30847628645
224,1_25_1,25,1.0,834.53889257,1_I,training,05,1_A,225.0,01101,ignore,1.0,20100.0,0.894336356073
225,1_25_1,25,1.0,838.117158479,1_I,training,05,1_A,226.0,10100,ignore,1.0,20200.0,1.63467944355
226,1_25_1,25,1.0,842.74245026,1_I,training,05,1_A,227.0,01110,kill,1.0,20300.0,2.68911730313
227,1_25_1,25,1.0,942.60997966,1_I,test,05,2,0.0,00100,ignore,0.0,0.0,6.57294762345
228,1_25_1,25,1.0,949.282174153,1_I,test,05,2,1.0,00111,ignore,0.0,0.0,4.67983099
229,1_25_1,25,1.0,955.079372095,1_I,test,05,2,2.0,10101,ignore,0.0,0.0,3.807570555
230,1_25_1,25,1.0,959.829590349,1_I,test,05,2,3.0,10011,ignore,1.0,100.0,2.82957591627
231,1_25_1,25,1.0,965.095504955,1_I,test,05,2,4.0,11101,kill,0.0,0.0,3.30674853316
232,1_25_1,25,1.0,969.251979042,1_I,test,05,2,5.0,10001,ignore,1.0,100.0,2.1792145538
233,1_25_1,25,1.0,973.580294183,1_I,test,05,2,6.0,11111,kill,1.0,200.0,2.37025653624
234,1_25_1,25,1.0,979.439958408,1_I,test,05,2,7.0,10000,ignore,1.0,300.0,3.87284094984
235,1_25_1,25,1.0,984.596492151,1_I,test,05,2,8.0,00011,kill,0.0,200.0,3.21143986283
236,1_25_1,25,1.0,988.596684907,1_I,test,05,2,9.0,01001,kill,0.0,100.0,1.99028583781
237,1_25_1,25,1.0,1000.6754364,1_I,test,05,2,10.0,00010,ignore,1.0,200.0,10.0921713244
238,1_25_1,25,1.0,1007.28511297,1_I,test,05,2,11.0,11010,ignore,1.0,300.0,4.67317752016
239,1_25_1,25,1.0,1014.48861068,1_I,test,05,2,12.0,00101,kill,1.0,400.0,5.20139984259
240,1_25_1,25,1.0,1019.3013552,1_I,test,05,2,13.0,11001,kill,0.0,300.0,2.8775277252
241,1_25_1,25,1.0,1022.95780395,1_I,test,05,2,14.0,11011,ignore,1.0,400.0,1.6797703727
242,1_25_1,25,1.0,1028.34871013,1_I,test,05,2,15.0,11000,kill,0.0,300.0,3.41920259711
243,1_25_1,25,1.0,1031.64573777,1_I,test,05,2,16.0,01111,ignore,0.0,200.0,1.36016359614
244,1_25_1,25,1.0,1040.11494418,1_I,test,05,2,17.0,00110,kill,1.0,300.0,6.49600054139
245,1_25_1,25,1.0,1043.52132542,1_I,test,05,2,18.0,11110,ignore,0.0,200.0,1.48895386094
246,1_25_1,25,1.0,1048.70913288,1_I,test,05,2,19.0,01011,kill,0.0,100.0,3.23674293327
247,1_25_1,25,1.0,1057.45957019,1_I,test,05,2,20.0,11100,ignore,1.0,200.0,6.79263785303
248,1_25_1,25,1.0,1061.6004002,1_I,test,05,2,21.0,10111,kill,1.0,300.0,2.2045596394
249,1_25_1,25,1.0,1064.49116559,1_I,test,05,2,22.0,00000,ignore,1.0,400.0,0.931240422307
250,1_25_1,25,1.0,1069.21014926,1_I,test,05,2,23.0,01000,ignore,1.0,500.0,2.75672932164
251,1_25_1,25,1.0,1072.97595835,1_I,test,05,2,24.0,00001,kill,0.0,400.0,1.80425135715
252,1_25_1,25,1.0,1079.27314153,1_I,test,05,2,25.0,01010,ignore,1.0,500.0,4.32251576531
253,1_25_1,25,1.0,1082.5232408,1_I,test,05,2,26.0,10110,ignore,0.0,400.0,1.32323804123
254,1_25_1,25,1.0,1088.6173073,1_I,test,05,2,27.0,10010,ignore,1.0,500.0,4.09192083702
255,1_25_1,25,1.0,1093.10194546,1_I,test,05,2,28.0,01100,kill,0.0,400.0,2.50823914133
256,1_25_1,25,1.0,1098.27410211,1_I,test,05,2,29.0,10000,kill,0.0,300.0,3.22264732729
257,1_25_1,25,1.0,1105.57133982,1_I,test,05,2,30.0,11010,ignore,1.0,400.0,5.33889237768
258,1_25_1,25,1.0,1112.38417446,1_I,test,05,2,31.0,11001,ignore,1.0,500.0,4.89881209344
259,1_25_1,25,1.0,1117.29659337,1_I,test,05,2,32.0,10010,ignore,1.0,600.0,2.94653362079
260,1_25_1,25,1.0,1121.71868988,1_I,test,05,2,33.0,10101,kill,1.0,700.0,2.45856246564
261,1_25_1,25,1.0,1130.10970255,1_I,test,05,2,34.0,00001,kill,0.0,600.0,6.44677384489
262,1_25_1,25,1.0,1137.06319946,1_I,test,05,2,35.0,11100,ignore,1.0,700.0,4.96704824559
263,1_25_1,25,1.0,1140.40713077,1_I,test,05,2,36.0,00011,ignore,1.0,800.0,1.41406969129
264,1_25_1,25,1.0,1143.28225754,1_I,test,05,2,37.0,01011,ignore,1.0,900.0,0.940700569161
265,1_25_1,25,1.0,1146.90745054,1_I,test,05,2,38.0,01000,kill,0.0,800.0,1.66233504238
266,1_25_1,25,1.0,1154.6735146,1_I,test,05,2,39.0,11101,kill,0.0,700.0,5.82076652334
267,1_25_1,25,1.0,1157.98612634,1_I,test,05,2,40.0,01111,ignore,0.0,600.0,1.36691937771
268,1_25_1,25,1.0,1162.17384559,1_I,test,05,2,41.0,10001,ignore,1.0,700.0,2.21506471297
269,1_25_1,25,1.0,1165.73651361,1_I,test,05,2,42.0,11000,ignore,1.0,800.0,1.62074612514
270,1_25_1,25,1.0,1168.84607761,1_I,test,05,2,43.0,10100,ignore,0.0,700.0,1.13843515008
271,1_25_1,25,1.0,1174.09631158,1_I,test,05,2,44.0,11111,kill,1.0,800.0,3.34182542091
272,1_25_1,25,1.0,1177.29963001,1_I,test,05,2,45.0,11110,kill,1.0,900.0,1.29561259069
273,1_25_1,25,1.0,1183.09684495,1_I,test,05,2,46.0,01100,kill,0.0,800.0,3.84287259271
274,1_25_1,25,1.0,1186.40943327,1_I,test,05,2,47.0,01110,ignore,0.0,700.0,1.39194469907
275,1_25_1,25,1.0,1190.62843394,1_I,test,05,2,48.0,00000,kill,0.0,600.0,2.25525750805
276,1_25_1,25,1.0,1193.97251567,1_I,test,05,2,49.0,00100,ignore,0.0,500.0,1.38710333357
277,1_25_1,25,1.0,1198.56634419,1_I,test,05,2,50.0,00111,ignore,0.0,400.0,2.60983212537
278,1_25_1,25,1.0,1202.00401357,1_I,test,05,2,51.0,00010,ignore,1.0,500.0,1.47924547182
279,1_25_1,25,1.0,1204.91044003,1_I,test,05,2,52.0,01010,ignore,1.0,600.0,0.972289556955
280,1_25_1,25,1.0,1209.44191003,1_I,test,05,2,53.0,01101,kill,0.0,500.0,2.57263780172
281,1_25_1,25,1.0,1214.95777893,1_I,test,05,2,54.0,11011,kill,0.0,400.0,3.62236451072
282,1_25_1,25,1.0,1219.56742888,1_I,test,05,2,55.0,01001,ignore,1.0,500.0,2.61764117255
283,1_25_1,25,1.0,1223.73952844,1_I,test,05,2,56.0,10011,ignore,1.0,600.0,2.2232480479
284,1_25_1,25,1.0,1227.50533336,1_I,test,05,2,57.0,00110,ignore,0.0,500.0,1.82891201255
285,1_25_1,25,1.0,1231.86491484,1_I,test,05,2,58.0,10110,ignore,0.0,400.0,2.39448581459
286,1_25_1,25,1.0,1235.74010286,1_I,test,05,2,59.0,10111,kill,1.0,500.0,1.97082255425
287,1_25_1,25,1.0,1240.49044043,1_I,test,05,2,60.0,00101,ignore,0.0,400.0,2.77823114241
288,1_25_1,25,1.0,1250.69410845,1_I,test,05,2,61.0,10001,ignore,1.0,500.0,8.24895298856
289,1_25_1,25,1.0,1255.35063481,1_I,test,05,2,62.0,10111,ignore,0.0,400.0,2.71366153483
290,1_25_1,25,1.0,1259.19456228,1_I,test,05,2,63.0,11011,ignore,1.0,500.0,1.94121501436
291,1_25_1,25,1.0,1263.78852229,1_I,test,05,2,64.0,01110,ignore,0.0,400.0,2.64692477875
292,1_25_1,25,1.0,1267.3668331,1_I,test,05,2,65.0,00000,ignore,1.0,500.0,1.63525963767
293,1_25_1,25,1.0,1271.27328714,1_I,test,05,2,66.0,01101,kill,0.0,400.0,1.96122160849
294,1_25_1,25,1.0,1276.36728789,1_I,test,05,2,67.0,10000,kill,0.0,300.0,3.17129870471
295,1_25_1,25,1.0,1280.39871171,1_I,test,05,2,68.0,00101,ignore,0.0,200.0,2.04042019011
296,1_25_1,25,1.0,1283.19576468,1_I,test,05,2,69.0,00001,ignore,1.0,300.0,0.853555348723
297,1_25_1,25,1.0,1286.83658379,1_I,test,05,2,70.0,10010,ignore,1.0,400.0,1.72443184916
298,1_25_1,25,1.0,1290.61804497,1_I,test,05,2,71.0,00011,ignore,1.0,500.0,1.83013045227
299,1_25_1,25,1.0,1293.97760271,1_I,test,05,2,72.0,01001,ignore,1.0,600.0,1.46228513734
300,1_25_1,25,1.0,1297.69652288,1_I,test,05,2,73.0,01111,ignore,0.0,500.0,1.73825547913
301,1_25_1,25,1.0,1302.94683575,1_I,test,05,2,74.0,10100,ignore,0.0,400.0,3.28296827182
302,1_25_1,25,1.0,1307.96265365,1_I,test,05,2,75.0,10101,kill,1.0,500.0,3.07011689196
303,1_25_1,25,1.0,1312.0566467,1_I,test,05,2,76.0,01010,ignore,1.0,600.0,2.16134495988
304,1_25_1,25,1.0,1315.68185157,1_I,test,05,2,77.0,11100,kill,0.0,500.0,1.72407552209
305,1_25_1,25,1.0,1321.10398689,1_I,test,05,2,78.0,11001,kill,0.0,400.0,3.49507620781
306,1_25_1,25,1.0,1324.40101997,1_I,test,05,2,79.0,01011,ignore,1.0,500.0,1.35309125757
307,1_25_1,25,1.0,1334.30779314,1_I,test,05,2,80.0,00110,ignore,0.0,400.0,8.01229119907
308,1_25_1,25,1.0,1367.73140637,1_I,test,05,2,81.0,11010,,,300.0,
309,1_25_1,25,1.0,1374.04420412,1_I,test,05,3,0.0,00100,kill,0.0,200.0,4.34576169641
310,1_25_1,25,1.0,1377.87255069,1_I,test,05,3,1.0,11111,ignore,1.0,300.0,1.90589854397
311,1_25_1,25,1.0,1381.89463367,1_I,test,05,3,2.0,00010,ignore,1.0,400.0,2.07671904557
312,1_25_1,25,1.0,1385.95729688,1_I,test,05,3,3.0,01100,kill,0.0,300.0,2.1714805566
313,1_25_1,25,1.0,1389.83251954,1_I,test,05,3,4.0,11101,kill,0.0,200.0,1.96461104543
314,1_25_1,25,1.0,1397.25476006,1_I,test,05,3,5.0,10110,kill,1.0,300.0,5.46921892209
315,1_25_1,25,1.0,1402.41130343,1_I,test,05,3,6.0,11000,ignore,0.0,200.0,3.26425805392
316,1_25_1,25,1.0,1407.33342624,1_I,test,05,3,7.0,00111,kill,0.0,100.0,2.97181969273
317,1_25_1,25,1.0,1410.6929734,1_I,test,05,3,8.0,01000,ignore,1.0,200.0,1.47788366739
318,1_25_1,25,1.0,1414.95881905,1_I,test,05,3,9.0,11110,ignore,0.0,100.0,2.30562855646
319,1_25_1,25,1.0,1418.70898149,1_I,test,05,3,10.0,10011,ignore,0.0,0.0,1.80413782
320,1_25_1,25,1.0,1423.13107993,1_I,test,05,3,11.0,10001,kill,1.0,100.0,2.50040636039
321,1_25_1,25,1.0,1427.42818871,1_I,test,05,3,12.0,11100,kill,1.0,200.0,2.35135067523
322,1_25_1,25,1.0,1431.58462046,1_I,test,05,3,13.0,11001,kill,1.0,300.0,2.273701523
323,1_25_1,25,1.0,1435.39731783,1_I,test,05,3,14.0,10111,ignore,1.0,400.0,1.81147828586
324,1_25_1,25,1.0,1440.42884363,1_I,test,05,3,15.0,10110,ignore,0.0,300.0,3.09056223985
325,1_25_1,25,1.0,1443.60088386,1_I,test,05,3,16.0,11111,ignore,1.0,400.0,1.27114533333
326,1_25_1,25,1.0,1447.89795158,1_I,test,05,3,17.0,10011,ignore,0.0,300.0,2.36364123285
327,1_25_1,25,1.0,1452.11694039,1_I,test,05,3,18.0,00000,ignore,1.0,400.0,2.32592220075
328,1_25_1,25,1.0,1457.42970158,1_I,test,05,3,19.0,01100,kill,0.0,300.0,3.39339213746
329,1_25_1,25,1.0,1461.02364973,1_I,test,05,3,20.0,00011,ignore,1.0,400.0,1.66377895278
330,1_25_1,25,1.0,1464.27378203,1_I,test,05,3,21.0,00001,ignore,1.0,500.0,1.35978994984
331,1_25_1,25,1.0,1467.08649703,1_I,test,05,3,22.0,01011,ignore,1.0,600.0,0.914773365081
332,1_25_1,25,1.0,1471.74301859,1_I,test,05,3,23.0,01110,ignore,1.0,700.0,2.72621188086
333,1_25_1,25,1.0,1474.82129604,1_I,test,05,3,24.0,00110,ignore,1.0,800.0,1.16926241259
334,1_25_1,25,1.0,1478.64963716,1_I,test,05,3,25.0,00010,ignore,1.0,900.0,1.87387112314
335,1_25_1,25,1.0,1482.71230614,1_I,test,05,3,26.0,11000,kill,1.0,1000.0,2.18495812275
336,1_25_1,25,1.0,1489.15013557,1_I,test,05,3,27.0,00111,ignore,1.0,1100.0,4.44671226541
337,1_25_1,25,1.0,1493.47851293,1_I,test,05,3,28.0,11011,kill,1.0,1200.0,2.3941509762
338,1_25_1,25,1.0,1497.05678269,1_I,test,05,3,29.0,10000,kill,1.0,1300.0,1.66647754498
339,1_25_1,25,1.0,1501.36950058,1_I,test,05,4,0.0,10101,kill,0.0,1200.0,2.35886433336
340,1_25_1,25,1.0,1504.68218705,1_I,test,05,4,1.0,01000,ignore,1.0,1300.0,1.44209059752
341,1_25_1,25,1.0,1511.65126613,1_I,test,05,4,2.0,01111,ignore,0.0,1200.0,5.01544361918
342,1_25_1,25,1.0,1515.57334115,1_I,test,05,4,3.0,00101,kill,0.0,1100.0,1.97162180452
343,1_25_1,25,1.0,1519.93295759,1_I,test,05,4,4.0,11110,kill,0.0,1000.0,2.47040753425
344,1_25_1,25,1.0,1524.71447265,1_I,test,05,4,5.0,00100,ignore,1.0,1100.0,2.81731005458
345,1_25_1,25,1.0,1529.55844085,1_I,test,05,4,6.0,11010,kill,0.0,1000.0,2.97789777935
346,1_25_1,25,1.0,1535.98403199,1_I,test,05,4,7.0,11101,ignore,1.0,1100.0,4.5306280914
347,1_25_1,25,1.0,1539.72412588,1_I,test,05,4,8.0,10010,kill,1.0,1200.0,1.8031586422
348,1_25_1,25,1.0,1543.55556201,1_I,test,05,4,9.0,01001,ignore,1.0,1300.0,1.97357919794
349,1_25_1,25,1.0,1546.19630991,1_I,test,05,4,10.0,01101,ignore,1.0,1400.0,0.73550621215
350,1_25_1,25,1.0,1550.02463981,1_I,test,05,4,11.0,01010,kill,1.0,1500.0,1.89074614439
351,1_25_1,25,1.0,1553.9779507,1_I,test,05,4,12.0,10100,ignore,1.0,1600.0,2.01503597588
352,1_25_1,25,1.0,1557.47815372,1_I,test,05,4,13.0,00011,kill,1.0,1700.0,1.54899673565
353,1_25_1,25,1.0,1562.7127712,1_I,test,05,4,14.0,10000,kill,0.0,1600.0,3.36062993237
354,1_25_1,25,1.0,1567.54115882,1_I,test,05,4,15.0,01100,kill,0.0,1500.0,2.92282776798
355,1_25_1,25,1.0,1573.49458133,1_I,test,05,4,16.0,10011,kill,1.0,1600.0,4.00392569153
356,1_25_1,25,1.0,1577.07287033,1_I,test,05,4,17.0,10110,ignore,0.0,1500.0,1.69087841197
357,1_25_1,25,1.0,1582.47938627,1_I,test,05,4,18.0,10101,ignore,1.0,1600.0,3.46244485911
358,1_25_1,25,1.0,1586.94836112,1_I,test,05,4,19.0,00110,kill,1.0,1700.0,2.59670607539
359,1_25_1,25,1.0,1590.52669695,1_I,test,05,4,20.0,10100,ignore,1.0,1800.0,1.59430800386
360,1_25_1,25,1.0,1593.776844,1_I,test,05,4,21.0,11101,ignore,1.0,1900.0,1.29796832634
361,1_25_1,25,1.0,1597.13639661,1_I,test,05,4,22.0,00000,ignore,1.0,2000.0,1.45489816615
362,1_25_1,25,1.0,1601.7772696,1_I,test,05,4,23.0,11000,kill,0.0,1900.0,2.70080874377
363,1_25_1,25,1.0,1604.88676721,1_I,test,05,4,24.0,01010,kill,1.0,2000.0,1.23442536407
364,1_25_1,25,1.0,1609.01197977,1_I,test,05,4,25.0,11010,ignore,1.0,2100.0,2.18429838848
365,1_25_1,25,1.0,1612.59030726,1_I,test,05,4,26.0,11011,ignore,1.0,2200.0,1.6493716007
366,1_25_1,25,1.0,1616.35612886,1_I,test,05,4,27.0,01111,kill,1.0,2300.0,1.88017820843
367,1_25_1,25,1.0,1621.21573824,1_I,test,05,4,28.0,01101,ignore,1.0,2400.0,2.92477201162
368,1_25_1,25,1.0,1625.2784502,1_I,test,05,4,29.0,01110,kill,1.0,2500.0,2.20954533179
369,1_25_1,25,1.0,1629.85684889,1_I,test,05,4,30.0,10111,ignore,0.0,2400.0,2.59335223909
370,1_25_1,25,1.0,1632.9507361,1_I,test,05,4,31.0,01000,ignore,1.0,2500.0,1.16605578972
371,1_25_1,25,1.0,1636.99799257,1_I,test,05,4,32.0,00111,kill,1.0,2600.0,2.17038431365
372,1_25_1,25,1.0,1640.54502454,1_I,test,05,4,33.0,00010,kill,1.0,2700.0,1.66040138272
373,1_25_1,25,1.0,1644.4358297,1_I,test,05,4,34.0,11100,ignore,1.0,2800.0,1.96206832628
374,1_25_1,25,1.0,1649.5458039,1_I,test,05,4,35.0,11001,ignore,1.0,2900.0,3.21230871074
375,1_25_1,25,1.0,1653.99917702,1_I,test,05,4,36.0,10010,kill,1.0,3000.0,2.52255091692
376,1_25_1,25,1.0,1658.24938597,1_I,test,05,4,37.0,00100,ignore,1.0,3100.0,2.35871262976
377,1_25_1,25,1.0,1662.10899792,1_I,test,05,4,38.0,01011,kill,1.0,3200.0,1.91044516187
378,1_25_1,25,1.0,1665.87481085,1_I,test,05,4,39.0,00101,ignore,1.0,3300.0,1.81747875668
379,1_25_1,25,1.0,1669.82816247,1_I,test,05,4,40.0,01001,ignore,1.0,3400.0,2.04966288445
380,1_25_1,25,1.0,1673.43774443,1_I,test,05,5,0.0,11111,ignore,0.0,3300.0,1.67894450214
381,1_25_1,25,1.0,1676.98477929,1_I,test,05,5,1.0,11110,ignore,0.0,3200.0,1.67019636797
382,1_25_1,25,1.0,1681.01622363,1_I,test,05,5,2.0,10001,ignore,1.0,3300.0,2.04976647908
383,1_25_1,25,1.0,1683.82887,1_I,test,05,5,3.0,00001,ignore,1.0,3400.0,0.878348464137
384,1_25_1,25,1.0,1687.42283194,1_I,test,05,5,4.0,00010,kill,0.0,3300.0,1.68548732136
385,1_25_1,25,1.0,1692.1730627,1_I,test,05,5,5.0,00111,ignore,0.0,3200.0,2.8012451883
386,1_25_1,25,1.0,1697.04831198,1_I,test,05,5,6.0,10111,ignore,0.0,3100.0,2.99408772894
387,1_25_1,25,1.0,1701.31415796,1_I,test,05,5,7.0,10000,kill,0.0,3000.0,2.35367914913
388,1_25_1,25,1.0,1706.58002638,1_I,test,05,5,8.0,10101,kill,1.0,3100.0,3.32224378929
389,1_25_1,25,1.0,1709.81455726,1_I,test,05,5,9.0,00000,ignore,1.0,3200.0,1.34997475883
390,1_25_1,25,1.0,1713.01787793,1_I,test,05,5,10.0,10001,kill,0.0,3100.0,1.21392036106
391,1_25_1,25,1.0,1716.31489146,1_I,test,05,5,11.0,11101,kill,0.0,3000.0,1.34931245875
392,1_25_1,25,1.0,1724.73726219,1_I,test,05,5,12.0,10110,kill,1.0,3100.0,6.49507716999
393,1_25_1,25,1.0,1728.19055031,1_I,test,05,5,13.0,11011,ignore,1.0,3200.0,1.52757381358
394,1_25_1,25,1.0,1732.76889864,1_I,test,05,5,14.0,01110,kill,1.0,3300.0,2.72541198914
395,1_25_1,25,1.0,1738.11292072,1_I,test,05,5,15.0,11010,kill,0.0,3200.0,3.3659825358
396,1_25_1,25,1.0,1742.66004249,1_I,test,05,5,16.0,11110,ignore,0.0,3100.0,2.62977649858
397,1_25_1,25,1.0,1746.80088245,1_I,test,05,5,17.0,01111,ignore,0.0,3000.0,2.25406344354
398,1_25_1,25,1.0,1751.05104938,1_I,test,05,5,18.0,00011,ignore,1.0,3100.0,2.30662088404
399,1_25_1,25,1.0,1754.01995111,1_I,test,05,5,19.0,01001,ignore,1.0,3200.0,1.11245406396
400,1_25_1,25,1.0,1758.62959497,1_I,test,05,5,20.0,11111,kill,1.0,3300.0,2.65219238968
401,1_25_1,25,1.0,1762.12975276,1_I,test,05,5,21.0,00001,ignore,1.0,3400.0,1.55219501963
402,1_25_1,25,1.0,1766.45809741,1_I,test,05,5,22.0,00110,kill,1.0,3500.0,2.44319100991
403,1_25_1,25,1.0,1770.58331895,1_I,test,05,5,23.0,01100,kill,0.0,3400.0,2.19319469826
404,1_25_1,25,1.0,1773.86474806,1_I,test,05,5,24.0,10100,ignore,0.0,3300.0,1.42002493969
405,1_25_1,25,1.0,1786.83416166,1_I,test,05,5,25.0,01000,ignore,1.0,3400.0,11.0180248255
406,1_25_1,25,1.0,1795.35018708,1_I,test,05,5,26.0,10010,ignore,1.0,3500.0,6.59441448503
407,1_25_1,25,1.0,1798.60036717,1_I,test,05,5,27.0,01010,ignore,1.0,3600.0,1.38510264208
408,1_25_1,25,1.0,1802.11616647,1_I,test,05,5,28.0,11100,kill,0.0,3500.0,1.57758981783
409,1_25_1,25,1.0,1805.50383044,1_I,test,05,5,29.0,11001,kill,0.0,3400.0,1.54199431544
410,1_25_1,25,1.0,1809.12908694,1_I,test,05,5,30.0,00101,ignore,0.0,3300.0,1.70472609642
411,1_25_1,25,1.0,1812.25422317,1_I,test,05,5,31.0,01101,kill,0.0,3200.0,1.18030021277
412,1_25_1,25,1.0,1816.16071505,1_I,test,05,5,32.0,01011,ignore,1.0,3300.0,2.03974826824
413,1_25_1,25,1.0,1819.72331604,1_I,test,05,5,33.0,11000,kill,0.0,3200.0,1.67927613327
414,1_25_1,25,1.0,1822.94225738,1_I,test,05,5,34.0,00100,ignore,0.0,3100.0,1.26746563897
415,1_25_1,25,1.0,1826.55182458,1_I,test,05,5,35.0,10011,ignore,1.0,3200.0,1.66489764657
416,1_25_1,25,1.0,1829.61448362,1_I,test,05,5,36.0,11010,ignore,1.0,3300.0,1.13408898619
417,1_25_1,25,1.0,1832.52090335,1_I,test,05,5,37.0,00001,ignore,1.0,3400.0,1.02693717162
418,1_25_1,25,1.0,1836.2867676,1_I,test,05,5,38.0,11000,ignore,1.0,3500.0,1.81756984299
419,1_25_1,25,1.0,1839.49001226,1_I,test,05,5,39.0,01011,ignore,1.0,3600.0,1.26436902527
420,1_25_1,25,1.0,1844.68427433,1_I,test,05,5,40.0,00100,kill,1.0,3700.0,3.30317499925
421,1_25_1,25,1.0,1847.8719256,1_I,test,05,5,41.0,11011,ignore,1.0,3800.0,1.25019901075
422,1_25_1,25,1.0,1851.35647941,1_I,test,05,5,42.0,10110,kill,1.0,3900.0,1.62697078375
423,1_25_1,25,1.0,1854.93479022,1_I,test,05,5,43.0,10000,ignore,1.0,4000.0,1.63339268911
424,1_25_1,25,1.0,1859.02875024,1_I,test,05,5,44.0,10111,ignore,0.0,3900.0,2.1597265743
425,1_25_1,25,1.0,1861.87260137,1_I,test,05,5,45.0,10011,ignore,1.0,4000.0,0.970864248688
426,1_25_1,25,1.0,1865.7321899,1_I,test,05,5,46.0,00010,ignore,1.0,4100.0,1.91659861921
427,1_25_1,25,1.0,1869.07610742,1_I,test,05,5,47.0,00011,ignore,1.0,4200.0,1.48229429729
428,1_25_1,25,1.0,1873.74822558,1_I,test,05,5,48.0,00101,kill,1.0,4300.0,2.75135747463
429,1_25_1,25,1.0,1877.37343269,1_I,test,05,5,49.0,01010,ignore,1.0,4400.0,1.69691704924
430,1_25_1,25,1.0,1882.84244923,1_I,test,05,5,50.0,10001,ignore,1.0,4500.0,3.5991753482
431,1_25_1,25,1.0,1886.3894828,1_I,test,05,5,51.0,10010,ignore,1.0,4600.0,1.67134649295
432,1_25_1,25,1.0,1890.15534866,1_I,test,05,5,52.0,01110,kill,1.0,4700.0,1.84514461876
433,1_25_1,25,1.0,1893.24924325,1_I,test,05,5,53.0,01000,ignore,1.0,4800.0,1.18007025192
434,1_25_1,25,1.0,1897.76505538,1_I,test,05,5,54.0,11100,kill,0.0,4700.0,2.5889489859
435,1_25_1,25,1.0,1901.68715574,1_I,test,05,5,55.0,01111,ignore,0.0,4600.0,2.07965144734
436,1_25_1,25,1.0,1905.14044835,1_I,test,05,5,56.0,10101,ignore,0.0,4500.0,1.56643078307
437,1_25_1,25,1.0,1908.32810571,1_I,test,05,5,57.0,01100,ignore,1.0,4600.0,1.25540889092
438,1_25_1,25,1.0,1910.96883116,1_I,test,05,5,58.0,01001,ignore,1.0,4700.0,0.759593408687
439,1_25_1,25,1.0,1914.14087941,1_I,test,05,5,59.0,00111,kill,1.0,4800.0,1.24186236859
440,1_25_1,25,1.0,1917.14105805,1_I,test,05,5,60.0,10100,ignore,0.0,4700.0,1.13918276339
441,1_25_1,25,1.0,1920.31310982,1_I,test,05,5,61.0,00000,ignore,1.0,4800.0,1.19676566636
442,1_25_1,25,1.0,1929.82917982,1_I,test,05,5,62.0,11110,ignore,0.0,4700.0,7.60549237601
443,1_25_1,25,1.0,1934.18971546,1_I,test,05,5,63.0,00110,ignore,0.0,4600.0,2.47450385225
444,1_25_1,25,1.0,1938.00240352,1_I,test,05,5,64.0,11001,ignore,1.0,4700.0,1.8946121808
445,1_25_1,25,1.0,1940.89317725,1_I,test,05,5,65.0,11101,ignore,1.0,4800.0,1.03831430036
446,1_25_1,25,1.0,1943.98710006,1_I,test,05,5,66.0,11111,ignore,0.0,4700.0,1.14840012034
447,1_25_1,25,1.0,1947.34662894,1_I,test,05,5,67.0,01101,ignore,1.0,4800.0,1.43159610792
448,1_25_1,25,1.0,1952.94063899,1_I,test,05,5,68.0,11110,ignore,0.0,4700.0,3.72856056053
449,1_25_1,25,1.0,1956.19084057,1_I,test,05,5,69.0,11001,ignore,1.0,4800.0,1.31407616996
450,1_25_1,25,1.0,1960.5973007,1_I,test,05,5,70.0,10110,kill,1.0,4900.0,2.56071094787
451,1_25_1,25,1.0,1963.64434902,1_I,test,05,5,71.0,01001,ignore,1.0,5000.0,1.13824271422
452,1_25_1,25,1.0,1967.94142156,1_I,test,05,5,72.0,11010,ignore,1.0,5100.0,2.38160704469
453,1_25_1,25,1.0,1971.2853455,1_I,test,05,5,73.0,10000,ignore,1.0,5200.0,1.48105597254
454,1_25_1,25,1.0,1974.55112925,1_I,test,05,5,74.0,00000,ignore,1.0,5300.0,1.38340375417
455,1_25_1,25,1.0,1978.52007587,1_I,test,05,5,75.0,10001,ignore,1.0,5400.0,2.03214127871
456,1_25_1,25,1.0,1982.61406571,1_I,test,05,5,76.0,11111,kill,1.0,5500.0,2.18351132581
457,1_25_1,25,1.0,1986.44237155,1_I,test,05,5,77.0,01011,ignore,1.0,5600.0,1.91131144397
458,1_25_1,25,1.0,1990.33315522,1_I,test,05,5,78.0,11000,ignore,1.0,5700.0,2.0548920082
459,1_25_1,25,1.0,1993.2239421,1_I,test,05,6,0.0,01010,ignore,1.0,5800.0,0.948426548195
460,1_25_1,25,1.0,1996.33346889,1_I,test,05,6,1.0,00011,ignore,1.0,5900.0,1.17388600485
461,1_25_1,25,1.0,2000.0368024,1_I,test,05,6,2.0,10100,kill,1.0,6000.0,1.84228854987
462,1_25_1,25,1.0,2003.28698313,1_I,test,05,6,3.0,10101,kill,0.0,5900.0,1.32826767315
463,1_25_1,25,1.0,2008.24034982,1_I,test,05,6,4.0,01110,kill,0.0,5800.0,3.11969189736
464,1_25_1,25,1.0,2011.67800862,1_I,test,05,6,5.0,01101,ignore,1.0,5900.0,1.50567557495
465,1_25_1,25,1.0,2014.81880079,1_I,test,05,6,6.0,00010,ignore,1.0,6000.0,1.22175731144
466,1_25_1,25,1.0,2018.47522036,1_I,test,05,6,7.0,10011,ignore,0.0,5900.0,1.79193706578
467,1_25_1,25,1.0,2021.52224751,1_I,test,05,6,8.0,01000,ignore,1.0,6000.0,1.14493531269
468,1_25_1,25,1.0,2026.16315835,1_I,test,05,6,9.0,11101,ignore,1.0,6100.0,2.79986029157
469,1_25_1,25,1.0,2029.67891692,1_I,test,05,6,10.0,11100,ignore,0.0,6000.0,1.61603112586
470,1_25_1,25,1.0,2034.0853886,1_I,test,05,6,11.0,10010,ignore,0.0,5900.0,2.48767191739
471,1_25_1,25,1.0,2036.96052242,1_I,test,05,6,12.0,00001,ignore,1.0,6000.0,1.00603190202
472,1_25_1,25,1.0,2041.80453231,1_I,test,05,6,13.0,10111,kill,0.0,5900.0,2.9764641322
473,1_25_1,25,1.0,2045.80472058,1_I,test,05,6,14.0,00100,ignore,1.0,6000.0,2.08001579257
474,1_25_1,25,1.0,2048.69553568,1_I,test,05,6,15.0,00101,ignore,1.0,6100.0,0.973491639624
475,1_25_1,25,1.0,2052.11756965,1_I,test,05,6,16.0,00110,ignore,1.0,6200.0,1.48718601684
476,1_25_1,25,1.0,2055.4302064,1_I,test,05,6,17.0,00111,ignore,1.0,6300.0,1.46325661771
477,1_25_1,25,1.0,2059.10227741,1_I,test,05,6,18.0,01100,ignore,1.0,6400.0,1.80700094486
478,1_25_1,25,1.0,2062.32119245,1_I,test,05,6,19.0,11011,kill,1.0,6500.0,1.31139457626
479,1_25_1,25,1.0,2065.64952298,1_I,test,05,6,20.0,01111,ignore,1.0,6600.0,1.46200610535
480,1_25_1,25,1.0,2068.96216775,1_I,test,05,6,21.0,01011,kill,0.0,6500.0,1.39604422433
481,1_25_1,25,1.0,2072.0560556,1_I,test,05,6,22.0,01001,ignore,1.0,6600.0,1.24001851233
482,1_25_1,25,1.0,2076.19689299,1_I,test,05,6,23.0,11110,ignore,0.0,6500.0,2.22280608687
483,1_25_1,25,1.0,2079.19703379,1_I,test,05,6,24.0,00011,ignore,1.0,6600.0,1.09373197918
484,1_25_1,25,1.0,2081.86512908,1_I,test,05,6,25.0,01010,ignore,1.0,6700.0,0.814145767598
485,1_25_1,25,1.0,2086.44351238,1_I,test,05,6,26.0,10101,kill,0.0,6600.0,2.66232894858
486,1_25_1,25,1.0,2089.84994269,1_I,test,05,6,27.0,11111,ignore,1.0,6700.0,1.56734324977
487,1_25_1,25,1.0,2092.78758898,1_I,test,05,6,28.0,10110,ignore,0.0,6600.0,0.991731993295
488,1_25_1,25,1.0,2096.38148741,1_I,test,05,6,29.0,01101,ignore,1.0,6700.0,1.67274902964
489,1_25_1,25,1.0,2098.78787731,1_I,test,05,6,30.0,00100,ignore,1.0,6800.0,0.519718261073
490,1_25_1,25,1.0,2103.77248886,1_I,test,05,6,31.0,11011,ignore,0.0,6700.0,3.06826982843
491,1_25_1,25,1.0,2107.39770398,1_I,test,05,6,32.0,11000,kill,1.0,6800.0,1.79621363203
492,1_25_1,25,1.0,2111.05411232,1_I,test,05,6,33.0,00010,kill,0.0,6700.0,1.73319217094
493,1_25_1,25,1.0,2113.96053718,1_I,test,05,6,34.0,00000,ignore,1.0,6800.0,0.991333651066
494,1_25_1,25,1.0,2117.6482048,1_I,test,05,6,35.0,00110,ignore,1.0,6900.0,1.85243376839
495,1_25_1,25,1.0,2120.52332772,1_I,test,05,6,36.0,01100,ignore,1.0,7000.0,1.00493405544
496,1_25_1,25,1.0,2123.30476131,1_I,test,05,6,37.0,00001,ignore,1.0,7100.0,0.853122688765
497,1_25_1,25,1.0,2126.99242957,1_I,test,05,6,38.0,10001,ignore,0.0,7000.0,1.7719153975
498,1_25_1,25,1.0,2130.43012462,1_I,test,05,6,39.0,11010,ignore,0.0,6900.0,1.5254615093
499,1_25_1,25,1.0,2132.93022468,1_I,test,05,6,40.0,01000,ignore,1.0,7000.0,0.668929177831
500,1_25_1,25,1.0,2136.93043636,1_I,test,05,6,41.0,11101,ignore,1.0,7100.0,2.06659403282
501,1_25_1,25,1.0,2139.60844402,1_I,test,05,6,42.0,11100,ignore,0.0,7000.0,0.768093621329
502,1_25_1,25,1.0,2143.03050269,1_I,test,05,6,43.0,01110,ignore,1.0,7100.0,1.54917762535
503,1_25_1,25,1.0,2146.65565591,1_I,test,05,6,44.0,10010,ignore,0.0,7000.0,1.70301598308
504,1_25_1,25,1.0,2150.62461184,1_I,test,05,6,45.0,00101,ignore,1.0,7100.0,2.11822136667
505,1_25_1,25,1.0,2154.79671557,1_I,test,05,6,46.0,10011,kill,1.0,7200.0,2.23277907529
506,1_25_1,25,1.0,2158.09374449,1_I,test,05,6,47.0,01111,ignore,1.0,7300.0,1.34228854987
507,1_25_1,25,1.0,2160.98451789,1_I,test,05,6,48.0,00111,ignore,1.0,7400.0,1.01861720723
508,1_25_1,25,1.0,2164.18779046,1_I,test,05,6,49.0,10100,kill,1.0,7500.0,1.26614168026
509,1_25_1,25,1.0,2167.17232343,1_I,test,05,6,50.0,11001,kill,1.0,7600.0,1.14770125744
