,unique_id,pair_id,sbj_id,wall_time,condition,block,rule_id,rule_num,trial,stimulus,choice,correct,points,reaction_time
0,3_23_1,23,1.0,35.1485845561,3_D,training,03,1_A,1.0,00101,kill,0.0,0.0,8.76134898326
1,3_23_1,23,1.0,41.9613966868,3_D,training,03,1_A,2.0,00100,ignore,1.0,100.0,4.52347222502
2,3_23_1,23,1.0,54.9651481046,3_D,training,03,1_A,3.0,10011,ignore,1.0,200.0,10.7367812605
3,3_23_1,23,1.0,60.6685717969,3_D,training,03,1_A,4.0,01011,kill,1.0,300.0,3.54850959346
4,3_23_1,23,1.0,65.7000725405,3_D,training,03,1_A,5.0,10001,ignore,1.0,400.0,2.85139081211
5,3_23_1,23,1.0,71.0940789752,3_D,training,03,1_A,6.0,01001,kill,1.0,500.0,3.14930708791
6,3_23_1,23,1.0,77.0506523518,3_D,training,03,1_A,7.0,01101,kill,1.0,600.0,3.72521993088
7,3_23_1,23,1.0,85.0354713843,3_D,training,03,1_A,8.0,00111,ignore,1.0,700.0,5.79455301351
8,3_23_1,23,1.0,91.4975739764,3_D,training,03,1_A,9.0,10100,ignore,1.0,800.0,4.27475954265
9,3_23_1,23,1.0,97.0916379672,3_D,training,03,1_A,10.0,10111,ignore,1.0,900.0,3.41377301582
10,3_23_1,23,1.0,100.373034539,3_D,training,03,1_A,11.0,11101,kill,0.0,800.0,1.12168215252
11,3_23_1,23,1.0,111.436105406,3_D,training,03,1_A,12.0,00000,ignore,1.0,900.0,8.89937061734
12,3_23_1,23,1.0,117.936363834,3_D,training,03,1_A,13.0,01110,kill,1.0,1000.0,4.36406241854
13,3_23_1,23,1.0,130.608905451,3_D,training,03,1_A,14.0,11100,kill,1.0,1100.0,10.4771058004
14,3_23_1,23,1.0,135.937295736,3_D,training,03,1_A,15.0,00011,ignore,1.0,1200.0,3.19545593192
15,3_23_1,23,1.0,144.687687278,3_D,training,03,1_A,16.0,01100,kill,1.0,1300.0,6.59955112713
16,3_23_1,23,1.0,157.610215039,3_D,training,03,1_A,17.0,01111,kill,1.0,1400.0,10.7686871967
17,3_23_1,23,1.0,170.298351848,3_D,training,03,1_A,18.0,10110,ignore,1.0,1500.0,10.5279658801
18,3_23_1,23,1.0,177.408090468,3_D,training,03,1_A,19.0,00110,ignore,1.0,1600.0,4.93859711422
19,3_23_1,23,1.0,183.095890642,3_D,training,03,1_A,20.0,00010,ignore,1.0,1700.0,3.49602012251
20,3_23_1,23,1.0,189.361780285,3_D,training,03,1_A,21.0,00001,ignore,1.0,1800.0,4.12461661684
21,3_23_1,23,1.0,198.09663411,3_D,training,03,1_A,22.0,10010,ignore,1.0,1900.0,6.59157700362
22,3_23_1,23,1.0,205.018801837,3_D,training,03,1_A,23.0,01010,kill,1.0,2000.0,4.79414043144
23,3_23_1,23,1.0,212.472366238,3_D,training,03,1_A,24.0,11110,kill,1.0,2100.0,5.32351935379
24,3_23_1,23,1.0,222.722816281,3_D,training,03,1_A,25.0,10101,ignore,1.0,2200.0,8.05768102603
25,3_23_1,23,1.0,231.395123485,3_D,training,03,1_A,26.0,10000,ignore,1.0,2300.0,6.53836130612
26,3_23_1,23,1.0,235.098442903,3_D,training,03,1_A,27.0,11111,kill,0.0,2200.0,1.57781400472
27,3_23_1,23,1.0,239.39555331,3_D,training,03,1_A,28.0,11011,kill,0.0,2100.0,2.15063350848
28,3_23_1,23,1.0,244.458295342,3_D,training,03,1_A,29.0,11010,kill,1.0,2200.0,2.94340236112
29,3_23_1,23,1.0,248.114719574,3_D,training,03,1_A,30.0,11000,kill,1.0,2300.0,1.51292941891
30,3_23_1,23,1.0,253.86502121,3_D,training,03,1_A,31.0,11001,kill,0.0,2200.0,3.6316504227
31,3_23_1,23,1.0,269.350157376,3_D,training,03,1_A,32.0,01000,kill,1.0,2300.0,13.2710931044
32,3_23_1,23,1.0,292.49194685,3_D,training,03,1_A,33.0,01011,kill,1.0,2400.0,20.9396410905
33,3_23_1,23,1.0,302.664326102,3_D,training,03,1_A,34.0,11100,kill,1.0,2500.0,8.01120622166
34,3_23_1,23,1.0,309.305234373,3_D,training,03,1_A,35.0,11110,kill,1.0,2600.0,4.48993032905
35,3_23_1,23,1.0,313.649216156,3_D,training,03,1_A,36.0,00111,ignore,1.0,2700.0,2.20897261317
36,3_23_1,23,1.0,320.337050404,3_D,training,03,1_A,37.0,10000,ignore,1.0,2800.0,4.54100552614
37,3_23_1,23,1.0,327.024869462,3_D,training,03,1_A,38.0,10011,ignore,1.0,2900.0,4.51949255279
38,3_23_1,23,1.0,345.697672996,3_D,training,03,1_A,39.0,10110,ignore,1.0,3000.0,16.5269453039
39,3_23_1,23,1.0,349.901011914,3_D,training,03,1_A,40.0,10111,ignore,1.0,3100.0,2.03862137651
40,3_23_1,23,1.0,354.213764313,3_D,training,03,1_A,41.0,00101,ignore,1.0,3200.0,2.15706978877
41,3_23_1,23,1.0,357.90143558,3_D,training,03,1_A,42.0,01001,kill,1.0,3300.0,1.5323696292
42,3_23_1,23,1.0,363.979882827,3_D,training,03,1_A,43.0,11011,kill,0.0,3200.0,3.92100633898
43,3_23_1,23,1.0,369.933277884,3_D,training,03,1_A,44.0,01111,kill,1.0,3300.0,3.81111130725
44,3_23_1,23,1.0,375.230425239,3_D,training,03,1_A,45.0,11101,kill,0.0,3200.0,3.11917751251
45,3_23_1,23,1.0,392.559400118,3_D,training,03,1_A,46.0,01101,kill,1.0,3300.0,15.169092964
46,3_23_1,23,1.0,397.090852624,3_D,training,03,1_A,47.0,00110,ignore,1.0,3400.0,2.37212029005
47,3_23_1,23,1.0,401.809872329,3_D,training,03,1_A,48.0,10010,ignore,1.0,3500.0,2.55067226246
48,3_23_1,23,1.0,406.200711119,3_D,training,03,1_A,49.0,10101,ignore,1.0,3600.0,2.22355584986
49,3_23_1,23,1.0,409.982140739,3_D,training,03,1_A,50.0,11000,kill,1.0,3700.0,1.63373837535
50,3_23_1,23,1.0,413.48229284,3_D,training,03,1_A,51.0,01000,kill,1.0,3800.0,1.34545229874
51,3_23_1,23,1.0,421.451494922,3_D,training,03,1_A,52.0,11001,ignore,1.0,3900.0,5.83023910465
52,3_23_1,23,1.0,424.639162701,3_D,training,03,1_A,53.0,00001,ignore,1.0,4000.0,1.02643029477
53,3_23_1,23,1.0,427.936124496,3_D,training,03,1_A,54.0,00000,ignore,1.0,4100.0,1.16111104041
54,3_23_1,23,1.0,431.639477577,3_D,training,03,1_A,55.0,10100,ignore,1.0,4200.0,1.52726510635
55,3_23_1,23,1.0,434.842746705,3_D,training,03,1_A,56.0,00010,ignore,1.0,4300.0,1.07608464952
56,3_23_1,23,1.0,442.952515293,3_D,training,03,1_A,57.0,00011,ignore,1.0,4400.0,5.96925996735
57,3_23_1,23,1.0,446.749623442,3_D,training,03,1_A,58.0,11010,kill,1.0,4500.0,1.64509033495
58,3_23_1,23,1.0,450.093511213,3_D,training,03,1_A,59.0,00100,ignore,1.0,4600.0,1.19188473648
59,3_23_1,23,1.0,453.359317519,3_D,training,03,1_A,60.0,01110,kill,1.0,4700.0,1.13022568034
60,3_23_1,23,1.0,461.82849107,3_D,training,03,1_A,61.0,10001,ignore,1.0,4800.0,6.3163100466
61,3_23_1,23,1.0,469.64134877,3_D,training,03,1_A,62.0,01100,kill,1.0,4900.0,5.69003304351
62,3_23_1,23,1.0,473.282168778,3_D,training,03,1_A,63.0,01010,kill,1.0,5000.0,1.47736197077
63,3_23_1,23,1.0,477.876128084,3_D,training,03,1_A,64.0,11111,ignore,1.0,5100.0,2.46431821942
64,3_23_1,23,1.0,481.79820262,3_D,training,03,1_A,65.0,11001,ignore,1.0,5200.0,1.77864212467
65,3_23_1,23,1.0,489.361083207,3_D,training,03,1_A,66.0,00010,ignore,1.0,5300.0,5.40680961575
66,3_23_1,23,1.0,492.845637242,3_D,training,03,1_A,67.0,11111,ignore,1.0,5400.0,1.32183782528
67,3_23_1,23,1.0,495.908266379,3_D,training,03,1_A,68.0,10001,ignore,1.0,5500.0,0.901061998564
68,3_23_1,23,1.0,499.564746443,3_D,training,03,1_A,69.0,01101,kill,1.0,5600.0,1.46997244116
69,3_23_1,23,1.0,502.58049312,3_D,training,03,1_A,70.0,00111,ignore,1.0,5700.0,0.84018417992
70,3_23_1,23,1.0,507.752624001,3_D,training,03,1_A,71.0,10010,ignore,1.0,5800.0,3.00439677012
71,3_23_1,23,1.0,510.815269149,3_D,training,03,1_A,72.0,00001,ignore,1.0,5900.0,0.868660963866
72,3_23_1,23,1.0,513.79979999,3_D,training,03,1_A,73.0,10111,ignore,1.0,6000.0,0.808091452818
73,3_23_1,23,1.0,516.815563499,3_D,training,03,1_A,74.0,01110,kill,1.0,6100.0,0.858634603771
74,3_23_1,23,1.0,526.144185323,3_D,training,03,1_A,75.0,11011,ignore,1.0,6200.0,7.18460153398
75,3_23_1,23,1.0,529.253693225,3_D,training,03,1_A,76.0,01000,kill,1.0,6300.0,0.960329720811
76,3_23_1,23,1.0,532.44136593,3_D,training,03,1_A,77.0,00100,ignore,1.0,6400.0,1.02265096091
77,3_23_1,23,1.0,535.957171518,3_D,training,03,1_A,78.0,10110,ignore,1.0,6500.0,1.33553267629
78,3_23_1,23,1.0,539.176057185,3_D,training,03,1_A,79.0,00101,ignore,1.0,6600.0,1.03965837384
79,3_23_1,23,1.0,542.129336474,3_D,training,03,1_A,80.0,10100,ignore,1.0,6700.0,0.789107751247
80,3_23_1,23,1.0,545.770129387,3_D,training,03,1_A,81.0,11000,kill,1.0,6800.0,1.50978147929
81,3_23_1,23,1.0,549.364104293,3_D,training,03,1_A,82.0,10101,ignore,1.0,6900.0,1.4382110113
82,3_23_1,23,1.0,554.129948984,3_D,training,03,1_A,83.0,00110,ignore,1.0,7000.0,2.63011791637
83,3_23_1,23,1.0,557.864461248,3_D,training,03,1_A,84.0,10000,ignore,1.0,7100.0,1.5000244265
84,3_23_1,23,1.0,561.020895537,3_D,training,03,1_A,85.0,11100,kill,1.0,7200.0,1.00418206323
85,3_23_1,23,1.0,564.067948367,3_D,training,03,1_A,86.0,00000,ignore,1.0,7300.0,0.898919445506
86,3_23_1,23,1.0,567.083719676,3_D,training,03,1_A,87.0,01010,kill,1.0,7400.0,0.885114572604
87,3_23_1,23,1.0,571.16204089,3_D,training,03,1_A,88.0,00011,ignore,1.0,7500.0,1.92555048917
88,3_23_1,23,1.0,579.553038554,3_D,training,03,1_A,89.0,01111,kill,1.0,7600.0,6.21783430129
89,3_23_1,23,1.0,582.928231657,3_D,training,03,1_A,90.0,11110,kill,1.0,7700.0,1.24196932606
90,3_23_1,23,1.0,586.162780253,3_D,training,03,1_A,91.0,11101,ignore,1.0,7800.0,1.11546673706
91,3_23_1,23,1.0,589.475416472,3_D,training,03,1_A,92.0,10011,ignore,1.0,7900.0,1.15622532975
92,3_23_1,23,1.0,598.132093179,3_D,training,03,1_A,93.0,01011,kill,1.0,8000.0,6.50995020689
93,3_23_1,23,1.0,601.397933149,3_D,training,03,1_A,94.0,01100,kill,1.0,8100.0,1.05517925973
94,3_23_1,23,1.0,604.788675464,3_D,training,03,1_A,95.0,01001,kill,1.0,8200.0,1.25298424101
95,3_23_1,23,1.0,608.195084403,3_D,training,03,1_A,96.0,11010,kill,1.0,8300.0,1.25193862257
96,3_23_1,23,1.0,611.52339833,3_D,training,03,1_A,97.0,10111,ignore,1.0,8400.0,1.18021666922
97,3_23_1,23,1.0,614.570401075,3_D,training,03,1_A,98.0,01000,kill,1.0,8500.0,0.909758243328
98,3_23_1,23,1.0,619.539434841,3_D,training,03,1_A,99.0,01001,kill,1.0,8600.0,2.81051562906
99,3_23_1,23,1.0,622.977067416,3_D,training,03,1_A,100.0,00101,ignore,1.0,8700.0,1.27996053991
100,3_23_1,23,1.0,626.102295722,3_D,training,03,1_A,101.0,10100,ignore,1.0,8800.0,0.952622851956
101,3_23_1,23,1.0,629.524330232,3_D,training,03,1_A,102.0,01110,kill,1.0,8900.0,1.2402648079
102,3_23_1,23,1.0,633.071361919,3_D,training,03,1_A,103.0,00010,ignore,1.0,9000.0,1.39538540297
103,3_23_1,23,1.0,636.055887012,3_D,training,03,1_A,104.0,00110,ignore,1.0,9100.0,0.828055498652
104,3_23_1,23,1.0,641.478009376,3_D,training,03,1_A,105.0,11101,ignore,1.0,9200.0,3.28196884985
105,3_23_1,23,1.0,647.931477302,3_D,training,03,1_A,106.0,00000,ignore,1.0,9300.0,4.28166587913
106,3_23_1,23,1.0,651.603564873,3_D,training,03,1_A,107.0,00100,ignore,1.0,9400.0,1.49668641176
107,3_23_1,23,1.0,655.244302365,3_D,training,03,1_A,108.0,11001,ignore,1.0,9500.0,1.48714776062
108,3_23_1,23,1.0,658.807012992,3_D,training,03,1_A,109.0,10000,ignore,1.0,9600.0,1.43035512027
109,3_23_1,23,1.0,662.588448359,3_D,training,03,1_A,110.0,01010,kill,1.0,9700.0,1.6218876225
110,3_23_1,23,1.0,665.604229931,3_D,training,03,1_A,111.0,10110,ignore,1.0,9800.0,0.858637066948
111,3_23_1,23,1.0,669.120010066,3_D,training,03,1_A,112.0,00001,ignore,1.0,9900.0,1.34791095945
112,3_23_1,23,1.0,672.698328612,3_D,training,03,1_A,113.0,01100,kill,1.0,10000.0,1.43465418438
113,3_23_1,23,1.0,675.698465318,3_D,training,03,1_A,114.0,10010,ignore,1.0,10100.0,0.842463028747
114,3_23_1,23,1.0,679.198640409,3_D,training,03,1_A,115.0,11100,kill,1.0,10200.0,1.34102063362
115,3_23_1,23,1.0,683.745734497,3_D,training,03,1_A,116.0,11111,ignore,1.0,10300.0,2.39563746804
116,3_23_1,23,1.0,686.90214087,3_D,training,03,1_A,117.0,00011,ignore,1.0,10400.0,0.967048855875
117,3_23_1,23,1.0,689.83981183,3_D,training,03,1_A,118.0,11010,kill,1.0,10500.0,0.813827780444
118,3_23_1,23,1.0,696.449501802,3_D,training,03,1_A,119.0,01101,kill,1.0,10600.0,4.44648317917
119,3_23_1,23,1.0,699.715308519,3_D,training,03,1_A,120.0,01011,kill,1.0,10700.0,1.11337139488
120,3_23_1,23,1.0,702.981045857,3_D,training,03,1_A,121.0,01111,kill,1.0,10800.0,1.12937752655
121,3_23_1,23,1.0,706.496885519,3_D,training,03,1_A,122.0,11000,kill,1.0,10900.0,1.37069000554
122,3_23_1,23,1.0,709.903274752,3_D,training,03,1_A,123.0,10101,ignore,1.0,11000.0,1.16518759758
123,3_23_1,23,1.0,712.934700779,3_D,training,03,1_A,124.0,00111,ignore,1.0,11100.0,0.699177175878
124,3_23_1,23,1.0,716.466105254,3_D,training,03,1_A,125.0,11110,kill,1.0,11200.0,1.40315220912
125,3_23_1,23,1.0,720.216285374,3_D,training,03,1_A,126.0,11011,ignore,1.0,11300.0,1.6180339828
126,3_23_1,23,1.0,724.638391726,3_D,training,03,1_A,127.0,10001,ignore,1.0,11400.0,2.25252362699
127,3_23_1,23,1.0,727.341667628,3_D,training,03,1_A,128.0,10011,ignore,1.0,11500.0,0.536364901541
128,3_23_1,23,1.0,730.294951843,3_D,training,03,1_A,129.0,00011,ignore,1.0,11600.0,0.782843072254
129,3_23_1,23,1.0,733.591989175,3_D,training,03,1_A,130.0,11101,ignore,1.0,11700.0,1.13376937032
130,3_23_1,23,1.0,737.045250195,3_D,training,03,1_A,131.0,01100,kill,1.0,11800.0,1.28369594713
131,3_23_1,23,1.0,740.264190463,3_D,training,03,1_A,132.0,11111,ignore,1.0,11900.0,1.09620387548
132,3_23_1,23,1.0,743.467494486,3_D,training,03,1_A,133.0,11110,kill,1.0,12000.0,1.04963341775
133,3_23_1,23,1.0,746.826983606,3_D,training,03,1_A,134.0,01001,kill,1.0,12100.0,1.21488998427
134,3_23_1,23,1.0,750.108400294,3_D,training,03,1_A,135.0,11001,ignore,1.0,12200.0,1.14302762986
135,3_23_1,23,1.0,753.343011291,3_D,training,03,1_A,136.0,01011,kill,1.0,12300.0,1.10500726842
136,3_23_1,23,1.0,756.499334327,3_D,training,03,1_A,137.0,10101,ignore,1.0,12400.0,0.911092053423
137,3_23_1,23,1.0,759.577651025,3_D,training,03,1_A,138.0,10111,ignore,1.0,12500.0,0.91314962689
138,3_23_1,23,1.0,763.109084236,3_D,training,03,1_A,139.0,10010,ignore,1.0,12600.0,1.37975490572
139,3_23_1,23,1.0,766.452974881,3_D,training,03,1_A,140.0,11100,kill,1.0,12700.0,1.1602583708
140,3_23_1,23,1.0,771.609504824,3_D,training,03,1_A,141.0,00000,ignore,1.0,12800.0,3.01081252394
141,3_23_1,23,1.0,777.656647559,3_D,training,03,1_A,142.0,11011,ignore,1.0,12900.0,3.89647884809
142,3_23_1,23,1.0,780.672405731,3_D,training,03,1_A,143.0,00110,ignore,1.0,13000.0,0.851367822458
143,3_23_1,23,1.0,783.703795221,3_D,training,03,1_A,144.0,00101,ignore,1.0,13100.0,0.869688108482
144,3_23_1,23,1.0,787.250906141,3_D,training,03,1_A,145.0,01010,kill,1.0,13200.0,1.41759873951
145,3_23_1,23,1.0,790.688545285,3_D,training,03,1_A,146.0,00010,kill,0.0,13100.0,1.2966674453
146,3_23_1,23,1.0,793.829315413,3_D,training,03,1_A,147.0,10011,ignore,1.0,13200.0,0.98331280002
147,3_23_1,23,1.0,796.845120386,3_D,training,03,1_A,148.0,01000,kill,1.0,13300.0,0.875747112233
148,3_23_1,23,1.0,799.56401529,3_D,training,03,1_A,149.0,01110,kill,1.0,13400.0,0.614117121581
149,3_23_1,23,1.0,802.595406422,3_D,training,03,1_A,150.0,00001,ignore,1.0,13500.0,0.899922368886
150,3_23_1,23,1.0,806.236214935,3_D,training,03,1_A,151.0,01111,kill,1.0,13600.0,1.46481413896
151,3_23_1,23,1.0,809.2051005,3_D,training,03,1_A,152.0,10100,ignore,1.0,13700.0,0.813493198964
152,3_23_1,23,1.0,812.392768278,3_D,training,03,1_A,153.0,11000,kill,1.0,13800.0,0.969988657072
153,3_23_1,23,1.0,815.736689712,3_D,training,03,1_A,154.0,00100,ignore,1.0,13900.0,1.19636279142
154,3_23_1,23,1.0,819.111861878,3_D,training,03,1_A,155.0,00111,ignore,1.0,14000.0,1.20356265644
155,3_23_1,23,1.0,822.424508771,3_D,training,03,1_A,156.0,10000,ignore,1.0,14100.0,1.15410371369
156,3_23_1,23,1.0,825.690272793,3_D,training,03,1_A,157.0,01101,kill,1.0,14200.0,1.13288837418
157,3_23_1,23,1.0,828.690477647,3_D,training,03,1_A,158.0,10001,ignore,1.0,14300.0,0.829843354288
158,3_23_1,23,1.0,832.315643347,3_D,training,03,1_A,159.0,10110,ignore,1.0,14400.0,1.47495093147
159,3_23_1,23,1.0,837.253366854,3_D,training,03,1_A,160.0,11010,kill,1.0,14500.0,2.78990582045
160,3_23_1,23,1.0,841.300450063,3_D,training,03,1_A,161.0,01100,kill,1.0,14600.0,1.88057370666
161,3_23_1,23,1.0,977.963453029,3_D,test,03,2,0.0,11100,,,0.0,
162,3_23_1,23,1.0,983.104372179,3_D,test,03,2,1.0,01101,kill,0.0,0.0,2.99710576757
163,3_23_1,23,1.0,997.761330099,3_D,test,03,2,2.0,10101,ignore,1.0,100.0,12.5113694071
164,3_23_1,23,1.0,1009.21500863,3_D,test,03,2,3.0,00011,ignore,0.0,0.0,9.26384972324
165,3_23_1,23,1.0,1019.90307441,3_D,test,03,2,4.0,10010,kill,0.0,0.0,8.54874893211
166,3_23_1,23,1.0,1029.41917846,3_D,test,03,2,5.0,11111,ignore,0.0,0.0,7.38942041046
167,3_23_1,23,1.0,1039.59152076,3_D,test,03,2,6.0,01111,ignore,0.0,0.0,8.04226318302
168,3_23_1,23,1.0,1051.09213183,3_D,test,03,2,7.0,10000,kill,0.0,0.0,9.32218431211
169,3_23_1,23,1.0,1063.67082683,3_D,test,03,2,8.0,00010,kill,0.0,0.0,10.4430051739
170,3_23_1,23,1.0,1068.96797953,3_D,test,03,2,9.0,11010,ignore,1.0,100.0,3.15408236616
171,3_23_1,23,1.0,1072.3587789,3_D,test,03,2,10.0,00110,ignore,1.0,200.0,1.24907887461
172,3_23_1,23,1.0,1077.59343752,3_D,test,03,2,11.0,11001,kill,1.0,300.0,3.07849856253
173,3_23_1,23,1.0,1080.79670624,3_D,test,03,2,12.0,00101,kill,0.0,200.0,1.02409807712
174,3_23_1,23,1.0,1085.21879535,3_D,test,03,2,13.0,01000,ignore,1.0,300.0,2.27616067957
175,3_23_1,23,1.0,1088.18769036,3_D,test,03,2,14.0,00100,ignore,1.0,400.0,0.800590259204
176,3_23_1,23,1.0,1092.39107977,3_D,test,03,2,15.0,10110,ignore,1.0,500.0,2.0753768968
177,3_23_1,23,1.0,1104.4854104,3_D,test,03,2,16.0,11101,kill,0.0,400.0,9.93456817847
178,3_23_1,23,1.0,1114.37650474,3_D,test,03,2,17.0,00111,kill,1.0,500.0,7.70872978502
179,3_23_1,23,1.0,1118.40797757,3_D,test,03,2,18.0,01110,ignore,1.0,600.0,1.89207181473
180,3_23_1,23,1.0,1131.25236024,3_D,test,03,2,19.0,00001,ignore,0.0,500.0,10.6895917244
181,3_23_1,23,1.0,1135.4088208,3_D,test,03,2,20.0,11110,ignore,1.0,600.0,2.01935933599
182,3_23_1,23,1.0,1138.54955275,3_D,test,03,2,21.0,11011,ignore,0.0,500.0,1.01073288123
183,3_23_1,23,1.0,1155.09726386,3_D,test,03,2,22.0,01001,ignore,0.0,400.0,14.3968809617
184,3_23_1,23,1.0,1160.51939197,3_D,test,03,2,23.0,10111,ignore,0.0,300.0,3.22920227154
185,3_23_1,23,1.0,1167.2072566,3_D,test,03,2,24.0,01010,ignore,1.0,400.0,4.55999908041
186,3_23_1,23,1.0,1170.17616351,3_D,test,03,2,25.0,10100,ignore,1.0,500.0,0.796727998394
187,3_23_1,23,1.0,1178.31714753,3_D,test,03,2,26.0,10011,ignore,0.0,400.0,5.98163866103
188,3_23_1,23,1.0,1188.69269327,3_D,test,03,2,27.0,10001,kill,1.0,500.0,8.22104094662
189,3_23_1,23,1.0,1192.16163323,3_D,test,03,2,28.0,00000,ignore,1.0,600.0,1.31312064351
190,3_23_1,23,1.0,1204.31844398,3_D,test,03,2,29.0,01011,ignore,0.0,500.0,10.0174204055
191,3_23_1,23,1.0,1207.56864894,3_D,test,03,2,30.0,11000,ignore,1.0,600.0,1.09533273204
192,3_23_1,23,1.0,1231.39792863,3_D,test,03,2,31.0,00111,ignore,0.0,500.0,21.6723810994
193,3_23_1,23,1.0,1238.60143053,3_D,test,03,2,32.0,10001,kill,1.0,600.0,5.04824500724
194,3_23_1,23,1.0,1242.25784737,3_D,test,03,2,33.0,00000,ignore,1.0,700.0,1.50956636188
195,3_23_1,23,1.0,1245.42989369,3_D,test,03,2,34.0,10110,ignore,1.0,800.0,0.986934080059
196,3_23_1,23,1.0,1248.32063169,3_D,test,03,2,35.0,11100,ignore,1.0,900.0,0.717338587015
197,3_23_1,23,1.0,1251.10201615,3_D,test,03,2,36.0,10000,ignore,1.0,1000.0,0.632337648956
198,3_23_1,23,1.0,1253.96157034,3_D,test,03,2,37.0,11000,ignore,1.0,1100.0,0.715539236555
199,3_23_1,23,1.0,1257.97738804,3_D,test,03,2,38.0,00110,ignore,1.0,1200.0,1.86022253158
200,3_23_1,23,1.0,1276.13458714,3_D,test,03,2,39.0,11111,kill,1.0,1300.0,15.9840213738
201,3_23_1,23,1.0,1279.83785689,3_D,test,03,2,40.0,10010,ignore,1.0,1400.0,1.5502403855
202,3_23_1,23,1.0,1304.8703585,3_D,test,03,2,41.0,01011,ignore,0.0,1300.0,22.8929450108
203,3_23_1,23,1.0,1334.18432278,3_D,test,03,2,42.0,11101,kill,0.0,1200.0,27.182585424
204,3_23_1,23,1.0,1339.21581368,3_D,test,03,2,43.0,01010,ignore,1.0,1300.0,2.92825095171
205,3_23_1,23,1.0,1342.68468631,3_D,test,03,2,44.0,01110,ignore,1.0,1400.0,1.35005145986
206,3_23_1,23,1.0,1345.60670912,3_D,test,03,2,45.0,11010,ignore,1.0,1500.0,0.789679208204
207,3_23_1,23,1.0,1358.88870301,3_D,test,03,2,46.0,01101,kill,0.0,1400.0,11.152858578
208,3_23_1,23,1.0,1369.9412204,3_D,test,03,2,47.0,00001,ignore,0.0,1300.0,8.86962447642
209,3_23_1,23,1.0,1385.32011237,3_D,test,03,3,0.0,10111,kill,0.0,1200.0,13.2396272557
210,3_23_1,23,1.0,1389.3453862,3_D,test,03,3,1.0,01100,ignore,1.0,1300.0,1.8680308012
211,3_23_1,23,1.0,1397.34894878,3_D,test,03,3,2.0,01001,ignore,1.0,1400.0,5.86738668054
212,3_23_1,23,1.0,1401.81793923,3_D,test,03,3,3.0,00101,kill,0.0,1300.0,2.31475414009
213,3_23_1,23,1.0,1414.56858284,3_D,test,03,3,4.0,10101,ignore,1.0,1400.0,10.5748503928
214,3_23_1,23,1.0,1418.72501015,3_D,test,03,3,5.0,11110,ignore,0.0,1300.0,1.99353251947
215,3_23_1,23,1.0,1434.56956934,3_D,test,03,3,6.0,11001,kill,1.0,1400.0,13.7119659885
216,3_23_1,23,1.0,1447.97646353,3_D,test,03,3,7.0,10100,kill,1.0,1500.0,11.2456911858
217,3_23_1,23,1.0,1461.99275087,3_D,test,03,3,8.0,00100,ignore,1.0,1600.0,11.8569830439
218,3_23_1,23,1.0,1477.19664975,3_D,test,03,3,9.0,00010,kill,0.0,1500.0,13.0466287529
219,3_23_1,23,1.0,1489.1347842,3_D,test,03,3,10.0,10011,ignore,1.0,1600.0,9.79052079352
220,3_23_1,23,1.0,1505.40119275,3_D,test,03,3,11.0,11011,ignore,0.0,1500.0,14.1378935489
221,3_23_1,23,1.0,1526.43351538,3_D,test,03,3,12.0,00011,ignore,1.0,1600.0,18.8519060265
222,3_23_1,23,1.0,1539.05910146,3_D,test,03,3,13.0,01111,ignore,1.0,1700.0,10.4813978855
223,3_23_1,23,1.0,1550.74716971,3_D,test,03,3,14.0,01000,kill,0.0,1600.0,9.53239426096
224,3_23_1,23,1.0,1563.49781455,3_D,test,03,3,15.0,00111,ignore,1.0,1700.0,10.5913430018
225,3_23_1,23,1.0,1569.65439909,3_D,test,03,3,16.0,00001,ignore,1.0,1800.0,4.00075660573
226,3_23_1,23,1.0,1580.84244414,3_D,test,03,3,17.0,01010,ignore,1.0,1900.0,9.06127931642
227,3_23_1,23,1.0,1592.09300421,3_D,test,03,3,18.0,10000,kill,1.0,2000.0,9.0976370337
228,3_23_1,23,1.0,1609.00004926,3_D,test,03,3,19.0,00100,kill,0.0,1900.0,14.7488110042
229,3_23_1,23,1.0,1626.95411389,3_D,test,03,3,20.0,11010,kill,1.0,2000.0,15.8118449233
230,3_23_1,23,1.0,1642.42358385,3_D,test,03,3,21.0,01110,ignore,1.0,2100.0,13.3368036754
231,3_23_1,23,1.0,1650.65840586,3_D,test,03,3,22.0,10101,kill,0.0,2000.0,6.06792866148
232,3_23_1,23,1.0,1659.15885682,3_D,test,03,3,23.0,01011,ignore,1.0,2100.0,6.33740592205
233,3_23_1,23,1.0,1665.06536942,3_D,test,03,3,24.0,10001,ignore,1.0,2200.0,3.74697429552
234,3_23_1,23,1.0,1672.51887471,3_D,test,03,3,25.0,00000,ignore,1.0,2300.0,5.27905244883
235,3_23_1,23,1.0,1676.94096587,3_D,test,03,3,26.0,11110,kill,1.0,2400.0,2.28815183349
236,3_23_1,23,1.0,1681.58178711,3_D,test,03,3,27.0,10111,ignore,1.0,2500.0,2.48936831427
237,3_23_1,23,1.0,1685.33198858,3_D,test,03,3,28.0,11011,ignore,0.0,2400.0,1.60489950445
238,3_23_1,23,1.0,1693.37926597,3_D,test,03,3,29.0,01101,ignore,1.0,2500.0,5.91497771441
239,3_23_1,23,1.0,1698.0982635,3_D,test,03,3,30.0,00010,ignore,1.0,2600.0,2.55206724144
240,3_23_1,23,1.0,1702.33284863,3_D,test,03,3,31.0,00011,ignore,1.0,2700.0,2.11655874532
241,3_23_1,23,1.0,1710.52076396,3_D,test,03,3,32.0,10100,kill,1.0,2800.0,6.00213393194
242,3_23_1,23,1.0,1715.92727759,3_D,test,03,3,33.0,01100,ignore,1.0,2900.0,3.18882793439
243,3_23_1,23,1.0,1720.94315522,3_D,test,03,3,34.0,00101,ignore,1.0,3000.0,2.85157226611
244,3_23_1,23,1.0,1730.42797446,3_D,test,03,3,35.0,11101,kill,1.0,3100.0,7.30792621473
245,3_23_1,23,1.0,1734.47509831,3_D,test,03,3,36.0,01111,ignore,1.0,3200.0,1.92551969946
246,3_23_1,23,1.0,1741.97546184,3_D,test,03,3,37.0,00110,ignore,1.0,3300.0,5.33388275854
247,3_23_1,23,1.0,1746.81943233,3_D,test,03,3,38.0,10011,ignore,1.0,3400.0,2.69966899013
248,3_23_1,23,1.0,1752.80407853,3_D,test,03,4,0.0,10110,kill,0.0,3300.0,3.88252454248
249,3_23_1,23,1.0,1760.7732178,3_D,test,03,4,1.0,11000,kill,0.0,3200.0,5.85580605605
250,3_23_1,23,1.0,1779.86795608,3_D,test,03,4,2.0,11001,kill,0.0,3100.0,16.9573464035
251,3_23_1,23,1.0,1791.05598882,3_D,test,03,4,3.0,01001,kill,0.0,3000.0,9.04222787749
252,3_23_1,23,1.0,1803.29098654,3_D,test,03,4,4.0,11111,ignore,1.0,3100.0,10.0785650683
253,3_23_1,23,1.0,1812.65079136,3_D,test,03,4,5.0,11100,ignore,1.0,3200.0,7.26423315772
254,3_23_1,23,1.0,1826.29214546,3_D,test,03,4,6.0,01000,kill,0.0,3100.0,11.4846718577
255,3_23_1,23,1.0,1836.93327665,3_D,test,03,4,7.0,10010,ignore,0.0,3000.0,8.46462119013
256,3_23_1,23,1.0,1841.2772806,3_D,test,03,4,8.0,10011,kill,1.0,3100.0,2.23358097837
257,3_23_1,23,1.0,1846.52749829,3_D,test,03,4,9.0,00111,kill,1.0,3200.0,3.11646966044
258,3_23_1,23,1.0,1849.37136738,3_D,test,03,4,10.0,01011,kill,1.0,3300.0,0.728690546616
259,3_23_1,23,1.0,1853.05904316,3_D,test,03,4,11.0,00101,ignore,1.0,3400.0,1.51461382113
260,3_23_1,23,1.0,1858.24682302,3_D,test,03,4,12.0,11010,kill,1.0,3500.0,3.03400168892
261,3_23_1,23,1.0,1865.29407044,3_D,test,03,4,13.0,10110,kill,0.0,3400.0,4.91274115011
262,3_23_1,23,1.0,1881.32611801,3_D,test,03,4,14.0,01000,ignore,1.0,3500.0,13.8657429207
263,3_23_1,23,1.0,1890.09218643,3_D,test,03,4,15.0,00011,kill,1.0,3600.0,6.5997990869
264,3_23_1,23,1.0,1902.0927505,3_D,test,03,4,16.0,10101,ignore,1.0,3700.0,9.843108381
265,3_23_1,23,1.0,1917.26541015,3_D,test,03,4,17.0,11111,kill,0.0,3600.0,12.9772336803
266,3_23_1,23,1.0,1923.81258264,3_D,test,03,4,18.0,11001,ignore,1.0,3700.0,4.40738189376
267,3_23_1,23,1.0,1929.12538677,3_D,test,03,4,19.0,01010,kill,1.0,3800.0,3.1899819326
268,3_23_1,23,1.0,1940.45404472,3_D,test,03,4,20.0,01111,ignore,0.0,3700.0,9.16173627672
269,3_23_1,23,1.0,1946.15744501,3_D,test,03,4,21.0,00000,ignore,1.0,3800.0,3.5327854955
270,3_23_1,23,1.0,1950.97016518,3_D,test,03,4,22.0,10000,ignore,1.0,3900.0,2.66219175911
271,3_23_1,23,1.0,1954.17347167,3_D,test,03,4,23.0,11000,ignore,1.0,4000.0,1.09778154005
272,3_23_1,23,1.0,1966.08031228,3_D,test,03,4,24.0,11110,ignore,1.0,4100.0,9.75448452078
273,3_23_1,23,1.0,1971.28369184,3_D,test,03,4,25.0,00010,kill,1.0,4200.0,3.04576540953
274,3_23_1,23,1.0,1983.22181479,3_D,test,03,4,26.0,11101,kill,0.0,4100.0,9.70937718992
275,3_23_1,23,1.0,1988.86269967,3_D,test,03,4,27.0,00001,ignore,1.0,4200.0,3.4858944143
276,3_23_1,23,1.0,1993.30043857,3_D,test,03,4,28.0,11100,ignore,1.0,4300.0,2.31412808272
277,3_23_1,23,1.0,1996.39430366,3_D,test,03,4,29.0,01001,ignore,1.0,4400.0,0.950174043949
278,3_23_1,23,1.0,2002.37901308,3_D,test,03,4,30.0,10111,kill,0.0,4300.0,3.81239092746
279,3_23_1,23,1.0,2017.12973756,3_D,test,03,4,31.0,10100,ignore,1.0,4400.0,12.585241303
280,3_23_1,23,1.0,2021.27054751,3_D,test,03,4,32.0,10010,kill,1.0,4500.0,2.00042120319
281,3_23_1,23,1.0,2026.09891624,3_D,test,03,4,33.0,01101,ignore,1.0,4600.0,2.70679495985
282,3_23_1,23,1.0,2030.83354879,3_D,test,03,4,34.0,01110,kill,1.0,4700.0,2.5771858947
283,3_23_1,23,1.0,2036.83380743,3_D,test,03,4,35.0,01100,ignore,1.0,4800.0,3.84351644725
284,3_23_1,23,1.0,2040.2714868,3_D,test,03,4,36.0,10001,ignore,1.0,4900.0,1.28971718218
285,3_23_1,23,1.0,2044.802982,3_D,test,03,4,37.0,00110,kill,1.0,5000.0,2.38044952151
286,3_23_1,23,1.0,2050.2719741,3_D,test,03,4,38.0,00100,ignore,1.0,5100.0,3.32460027776
287,3_23_1,23,1.0,2063.27262766,3_D,test,03,4,39.0,11011,kill,1.0,5200.0,10.8749445272
288,3_23_1,23,1.0,2068.05411106,3_D,test,03,4,40.0,01010,kill,1.0,5300.0,2.6466774417
289,3_23_1,23,1.0,2082.28918801,3_D,test,03,5,0.0,01110,kill,0.0,5200.0,12.1199103075
290,3_23_1,23,1.0,2088.33639479,3_D,test,03,5,1.0,01101,ignore,1.0,5300.0,3.91958837036
291,3_23_1,23,1.0,2094.30544251,3_D,test,03,5,2.0,10101,ignore,1.0,5400.0,3.78732482196
292,3_23_1,23,1.0,2101.71207683,3_D,test,03,5,3.0,10110,ignore,1.0,5500.0,5.25743314836
293,3_23_1,23,1.0,2109.61871177,3_D,test,03,5,4.0,11000,ignore,1.0,5600.0,5.78695411389
294,3_23_1,23,1.0,2113.40012579,3_D,test,03,5,5.0,10000,ignore,1.0,5700.0,1.65580268971
295,3_23_1,23,1.0,2123.6819099,3_D,test,03,5,6.0,10111,ignore,0.0,5600.0,8.10957974514
296,3_23_1,23,1.0,2127.94774576,3_D,test,03,5,7.0,01000,ignore,1.0,5700.0,2.09955707981
297,3_23_1,23,1.0,2140.83903223,3_D,test,03,5,8.0,01111,kill,1.0,5800.0,10.7624290862
298,3_23_1,23,1.0,2145.51111365,3_D,test,03,5,9.0,00001,ignore,0.0,5700.0,2.50647302267
299,3_23_1,23,1.0,2151.23013458,3_D,test,03,5,10.0,00101,ignore,1.0,5800.0,3.59928223036
300,3_23_1,23,1.0,2155.65221672,3_D,test,03,5,11.0,01100,ignore,1.0,5900.0,2.26011308443
301,3_23_1,23,1.0,2167.18405101,3_D,test,03,5,12.0,11110,ignore,1.0,6000.0,9.38473544868
302,3_23_1,23,1.0,2183.01296903,3_D,test,03,5,13.0,11111,ignore,0.0,5900.0,13.6980096302
303,3_23_1,23,1.0,2200.60758806,3_D,test,03,5,14.0,00110,kill,0.0,5800.0,15.4177321616
