,unique_id,pair_id,sbj_id,wall_time,condition,block,rule_id,rule_num,trial,stimulus,choice,correct,points,reaction_time
0,1_31_2,31,2.0,38.8438897987,1_I,training,01,1_A,1.0,10011,kill,0.0,0.0,5.18598742379
1,1_31_2,31,2.0,42.658808417,1_I,training,01,1_A,2.0,00000,ignore,1.0,100.0,1.56466788649
2,1_31_2,31,2.0,46.0496307478,1_I,training,01,1_A,3.0,00100,kill,0.0,0.0,1.16304899812
3,1_31_2,31,2.0,50.5186223069,1_I,training,01,1_A,4.0,01000,ignore,1.0,100.0,2.26824800513
4,1_31_2,31,2.0,55.0657711888,1_I,training,01,1_A,5.0,01101,ignore,1.0,200.0,2.31390686445
5,1_31_2,31,2.0,59.9097537675,1_I,training,01,1_A,6.0,00110,ignore,0.0,100.0,2.61269181553
6,1_31_2,31,2.0,63.566191778,1_I,training,01,1_A,7.0,01110,kill,1.0,200.0,1.4237173674
7,1_31_2,31,2.0,66.8476301476,1_I,training,01,1_A,8.0,00001,ignore,1.0,300.0,1.04566173304
8,1_31_2,31,2.0,70.16668343,1_I,training,01,1_A,9.0,00111,kill,1.0,400.0,1.10107275884
9,1_31_2,31,2.0,74.3236081251,1_I,training,01,1_A,10.0,11000,ignore,1.0,500.0,1.90942944797
10,1_31_2,31,2.0,78.0738184196,1_I,training,01,1_A,11.0,10001,ignore,1.0,600.0,1.49589407312
11,1_31_2,31,2.0,81.3708586135,1_I,training,01,1_A,12.0,01011,kill,1.0,700.0,1.0624224866
12,1_31_2,31,2.0,84.6835355267,1_I,training,01,1_A,13.0,01010,kill,1.0,800.0,1.08926875789
13,1_31_2,31,2.0,88.2368871232,1_I,training,01,1_A,14.0,10111,kill,1.0,900.0,1.33632678933
14,1_31_2,31,2.0,91.2839089458,1_I,training,01,1_A,15.0,01001,ignore,1.0,1000.0,0.838493367253
15,1_31_2,31,2.0,94.5185237794,1_I,training,01,1_A,16.0,11010,kill,0.0,900.0,1.01922886658
16,1_31_2,31,2.0,97.7218056472,1_I,training,01,1_A,17.0,01111,kill,1.0,1000.0,0.995248102421
17,1_31_2,31,2.0,102.003257975,1_I,training,01,1_A,18.0,10110,ignore,0.0,900.0,2.10924848586
18,1_31_2,31,2.0,105.362868036,1_I,training,01,1_A,19.0,11011,kill,0.0,800.0,1.16182643648
19,1_31_2,31,2.0,110.800627209,1_I,training,01,1_A,20.0,10101,ignore,1.0,900.0,3.22876804951
20,1_31_2,31,2.0,115.816482331,1_I,training,01,1_A,21.0,01100,ignore,1.0,1000.0,2.77617392397
21,1_31_2,31,2.0,118.87920779,1_I,training,01,1_A,22.0,10000,ignore,1.0,1100.0,0.847965551515
22,1_31_2,31,2.0,123.160698708,1_I,training,01,1_A,23.0,11111,kill,1.0,1200.0,2.08545615548
23,1_31_2,31,2.0,126.426433031,1_I,training,01,1_A,24.0,11110,ignore,0.0,1100.0,1.08580018055
24,1_31_2,31,2.0,130.004786793,1_I,training,01,1_A,25.0,11001,ignore,1.0,1200.0,1.37714836061
25,1_31_2,31,2.0,136.70824211,1_I,training,01,1_A,26.0,11101,ignore,1.0,1300.0,4.51020641915
26,1_31_2,31,2.0,140.474088303,1_I,training,01,1_A,27.0,00010,ignore,0.0,1200.0,1.51467710292
27,1_31_2,31,2.0,145.005625097,1_I,training,01,1_A,28.0,00011,kill,1.0,1300.0,2.33711583012
28,1_31_2,31,2.0,148.552670115,1_I,training,01,1_A,29.0,11100,ignore,1.0,1400.0,1.34895103144
29,1_31_2,31,2.0,152.63098385,1_I,training,01,1_A,30.0,00101,ignore,1.0,1500.0,1.83996224756
30,1_31_2,31,2.0,159.115750888,1_I,training,01,1_A,31.0,10010,ignore,1.0,1600.0,4.27620615066
31,1_31_2,31,2.0,165.975414113,1_I,training,01,1_A,32.0,10100,ignore,1.0,1700.0,4.63317608624
32,1_31_2,31,2.0,169.991302488,1_I,training,01,1_A,33.0,10111,kill,1.0,1800.0,1.67642225424
33,1_31_2,31,2.0,173.353956637,1_I,training,01,1_A,34.0,00000,ignore,1.0,1900.0,1.10891841885
34,1_31_2,31,2.0,176.575969397,1_I,training,01,1_A,35.0,01101,ignore,1.0,2000.0,0.957343354672
35,1_31_2,31,2.0,179.654277796,1_I,training,01,1_A,36.0,00001,ignore,1.0,2100.0,0.851771585418
36,1_31_2,31,2.0,182.935664849,1_I,training,01,1_A,37.0,10101,ignore,1.0,2200.0,0.96613734154
37,1_31_2,31,2.0,188.532916179,1_I,training,01,1_A,38.0,11010,ignore,1.0,2300.0,3.42202638976
38,1_31_2,31,2.0,193.174882968,1_I,training,01,1_A,39.0,10100,ignore,1.0,2400.0,2.4035024051
39,1_31_2,31,2.0,196.740721279,1_I,training,01,1_A,40.0,11101,ignore,1.0,2500.0,1.36153011513
40,1_31_2,31,2.0,200.088811016,1_I,training,01,1_A,41.0,10011,kill,0.0,2400.0,1.14619792772
41,1_31_2,31,2.0,203.979765332,1_I,training,01,1_A,42.0,10110,ignore,0.0,2300.0,1.66575049808
42,1_31_2,31,2.0,209.155530942,1_I,training,01,1_A,43.0,01110,kill,1.0,2400.0,2.96543943866
43,1_31_2,31,2.0,212.390040269,1_I,training,01,1_A,44.0,01100,ignore,1.0,2500.0,1.0124604402
44,1_31_2,31,2.0,216.796543246,1_I,training,01,1_A,45.0,00111,kill,1.0,2600.0,2.16973531828
45,1_31_2,31,2.0,220.171781816,1_I,training,01,1_A,46.0,11000,ignore,1.0,2700.0,1.1787846555
46,1_31_2,31,2.0,223.984482745,1_I,training,01,1_A,47.0,01001,ignore,1.0,2800.0,1.5964672156
47,1_31_2,31,2.0,228.047126098,1_I,training,01,1_A,48.0,00010,ignore,0.0,2700.0,1.85492733805
48,1_31_2,31,2.0,234.235000733,1_I,training,01,1_A,49.0,00110,kill,1.0,2800.0,3.98689666809
49,1_31_2,31,2.0,238.063297739,1_I,training,01,1_A,50.0,11110,kill,1.0,2900.0,1.57557446644
50,1_31_2,31,2.0,241.844797072,1_I,training,01,1_A,51.0,01010,kill,1.0,3000.0,1.51844577849
51,1_31_2,31,2.0,245.782475576,1_I,training,01,1_A,52.0,11100,ignore,1.0,3100.0,1.71807186675
52,1_31_2,31,2.0,252.879787049,1_I,training,01,1_A,53.0,01000,kill,0.0,3000.0,4.8971607258
53,1_31_2,31,2.0,258.239416816,1_I,training,01,1_A,54.0,01011,kill,1.0,3100.0,3.14572294323
54,1_31_2,31,2.0,262.005258082,1_I,training,01,1_A,55.0,11011,kill,0.0,3000.0,1.54372217882
55,1_31_2,31,2.0,266.067940025,1_I,training,01,1_A,56.0,11111,kill,1.0,3100.0,1.83549936388
56,1_31_2,31,2.0,269.630653783,1_I,training,01,1_A,57.0,10001,ignore,1.0,3200.0,1.3556796363
57,1_31_2,31,2.0,273.255831492,1_I,training,01,1_A,58.0,01111,kill,1.0,3300.0,1.42531679659
58,1_31_2,31,2.0,284.225208334,1_I,training,01,1_A,59.0,10000,ignore,1.0,3400.0,8.70204596388
59,1_31_2,31,2.0,290.866197649,1_I,training,01,1_A,60.0,10010,ignore,1.0,3500.0,4.42455731404
60,1_31_2,31,2.0,294.80388929,1_I,training,01,1_A,61.0,00011,kill,1.0,3600.0,1.7157946507
61,1_31_2,31,2.0,298.585361118,1_I,training,01,1_A,62.0,11001,ignore,1.0,3700.0,1.54787716416
62,1_31_2,31,2.0,302.762460953,1_I,training,01,1_A,63.0,00100,kill,0.0,3600.0,1.9554064689
63,1_31_2,31,2.0,306.934582278,1_I,training,01,1_A,64.0,00101,ignore,1.0,3700.0,1.94496666282
64,1_31_2,31,2.0,311.484795775,1_I,training,01,1_A,65.0,10110,kill,1.0,3800.0,2.33795865049
65,1_31_2,31,2.0,314.969362884,1_I,training,01,1_A,66.0,11111,kill,1.0,3900.0,1.27191692164
66,1_31_2,31,2.0,318.191323918,1_I,training,01,1_A,67.0,11000,ignore,1.0,4000.0,1.02126386928
67,1_31_2,31,2.0,322.191582552,1_I,training,01,1_A,68.0,00100,ignore,1.0,4100.0,1.75634445038
68,1_31_2,31,2.0,326.741807544,1_I,training,01,1_A,69.0,10111,kill,1.0,4200.0,2.33560589671
69,1_31_2,31,2.0,330.882705925,1_I,training,01,1_A,70.0,00101,ignore,1.0,4300.0,1.92133320799
70,1_31_2,31,2.0,334.460984971,1_I,training,01,1_A,71.0,11100,ignore,1.0,4400.0,1.34212061486
71,1_31_2,31,2.0,338.523676766,1_I,training,01,1_A,72.0,11010,ignore,1.0,4500.0,1.86051671909
72,1_31_2,31,2.0,342.039522651,1_I,training,01,1_A,73.0,01001,ignore,1.0,4600.0,1.30332994098
73,1_31_2,31,2.0,346.727258321,1_I,training,01,1_A,74.0,01011,kill,1.0,4700.0,2.45695971335
74,1_31_2,31,2.0,350.227471182,1_I,training,01,1_A,75.0,11110,kill,1.0,4800.0,1.32019907475
75,1_31_2,31,2.0,354.774601179,1_I,training,01,1_A,76.0,11001,ignore,1.0,4900.0,2.34422171307
76,1_31_2,31,2.0,359.11859669,1_I,training,01,1_A,77.0,01111,kill,1.0,5000.0,2.16287698559
77,1_31_2,31,2.0,363.259433081,1_I,training,01,1_A,78.0,00001,ignore,1.0,5100.0,1.84595641227
78,1_31_2,31,2.0,367.681532545,1_I,training,01,1_A,79.0,11101,ignore,1.0,5200.0,2.20640436739
79,1_31_2,31,2.0,371.306787023,1_I,training,01,1_A,80.0,01100,ignore,1.0,5300.0,1.43789423815
80,1_31_2,31,2.0,374.775644339,1_I,training,01,1_A,81.0,01000,ignore,1.0,5400.0,1.25218638605
81,1_31_2,31,2.0,378.541503669,1_I,training,01,1_A,82.0,10101,ignore,1.0,5500.0,1.56426843972
82,1_31_2,31,2.0,382.229238108,1_I,training,01,1_A,83.0,10000,ignore,1.0,5600.0,1.4599520746
83,1_31_2,31,2.0,385.119955958,1_I,training,01,1_A,84.0,10001,ignore,1.0,5700.0,0.675815078726
84,1_31_2,31,2.0,388.182643648,1_I,training,01,1_A,85.0,10100,ignore,1.0,5800.0,0.770950326147
85,1_31_2,31,2.0,390.995293671,1_I,training,01,1_A,86.0,01101,ignore,1.0,5900.0,0.603463076217
86,1_31_2,31,2.0,394.339232939,1_I,training,01,1_A,87.0,00111,kill,1.0,6000.0,1.13748481548
87,1_31_2,31,2.0,397.589384322,1_I,training,01,1_A,88.0,00000,ignore,1.0,6100.0,0.980256737945
88,1_31_2,31,2.0,401.66776949,1_I,training,01,1_A,89.0,10010,ignore,1.0,6200.0,1.87318078271
89,1_31_2,31,2.0,405.527303398,1_I,training,01,1_A,90.0,01010,kill,1.0,6300.0,1.6818232015
90,1_31_2,31,2.0,408.949388493,1_I,training,01,1_A,91.0,00110,kill,1.0,6400.0,1.21270150406
91,1_31_2,31,2.0,412.10582712,1_I,training,01,1_A,92.0,00011,kill,1.0,6500.0,0.953944157094
92,1_31_2,31,2.0,415.4341543,1_I,training,01,1_A,93.0,01110,kill,1.0,6600.0,1.13242707223
93,1_31_2,31,2.0,418.96556383,1_I,training,01,1_A,94.0,10011,kill,0.0,6500.0,1.31832212652
94,1_31_2,31,2.0,423.075156341,1_I,training,01,1_A,95.0,11011,kill,0.0,6400.0,1.91606568334
95,1_31_2,31,2.0,426.794101407,1_I,training,01,1_A,96.0,00010,ignore,0.0,6300.0,1.49082031916
96,1_31_2,31,2.0,432.638169376,1_I,training,01,1_A,97.0,01011,ignore,0.0,6200.0,3.62364314337
97,1_31_2,31,2.0,436.044581626,1_I,training,01,1_A,98.0,00001,ignore,1.0,6300.0,1.1932365821
98,1_31_2,31,2.0,439.466659332,1_I,training,01,1_A,99.0,11001,ignore,1.0,6400.0,1.20551926232
99,1_31_2,31,2.0,443.998156305,1_I,training,01,1_A,100.0,00011,kill,1.0,6500.0,2.32660459163
100,1_31_2,31,2.0,447.279588106,1_I,training,01,1_A,101.0,00110,kill,1.0,6600.0,1.05133773614
101,1_31_2,31,2.0,452.357942484,1_I,training,01,1_A,102.0,01110,kill,1.0,6700.0,2.8820884867
102,1_31_2,31,2.0,458.108353939,1_I,training,01,1_A,103.0,11000,ignore,1.0,6800.0,3.52218530635
103,1_31_2,31,2.0,461.952257695,1_I,training,01,1_A,104.0,10010,ignore,1.0,6900.0,1.6290871964
104,1_31_2,31,2.0,465.874326165,1_I,training,01,1_A,105.0,11010,ignore,1.0,7000.0,1.74532907968
105,1_31_2,31,2.0,477.609345576,1_I,training,01,1_A,106.0,00100,ignore,1.0,7100.0,2.35699620957
106,1_31_2,31,2.0,481.359542734,1_I,training,01,1_A,107.0,01100,ignore,1.0,7200.0,1.53677065556
107,1_31_2,31,2.0,485.265997884,1_I,training,01,1_A,108.0,10110,kill,1.0,7300.0,1.61845238804
108,1_31_2,31,2.0,488.938035256,1_I,training,01,1_A,109.0,11101,ignore,1.0,7400.0,1.38512703269
109,1_31_2,31,2.0,496.032169628,1_I,training,01,1_A,110.0,01010,kill,1.0,7500.0,4.89205125563
110,1_31_2,31,2.0,499.251125163,1_I,training,01,1_A,111.0,10100,ignore,1.0,7600.0,0.985735275583
111,1_31_2,31,2.0,502.8137835,1_I,training,01,1_A,112.0,01001,ignore,1.0,7700.0,1.33948089983
112,1_31_2,31,2.0,507.376542827,1_I,training,01,1_A,113.0,10111,kill,1.0,7800.0,2.37060818952
113,1_31_2,31,2.0,511.20489936,1_I,training,01,1_A,114.0,00000,ignore,1.0,7900.0,1.57772688104
114,1_31_2,31,2.0,516.361442672,1_I,training,01,1_A,115.0,01111,kill,1.0,8000.0,2.94564157596
115,1_31_2,31,2.0,522.377340079,1_I,training,01,1_A,116.0,00111,kill,1.0,8100.0,3.72757976722
116,1_31_2,31,2.0,525.783820066,1_I,training,01,1_A,117.0,01000,ignore,1.0,8200.0,1.17843036715
117,1_31_2,31,2.0,529.362094595,1_I,training,01,1_A,118.0,11100,ignore,1.0,8300.0,1.33336562845
118,1_31_2,31,2.0,532.346655752,1_I,training,01,1_A,119.0,00101,ignore,1.0,8400.0,0.716560701745
119,1_31_2,31,2.0,536.14375691,1_I,training,01,1_A,120.0,10101,ignore,1.0,8500.0,1.55755584557
120,1_31_2,31,2.0,539.147005442,1_I,training,01,1_A,121.0,10001,ignore,1.0,8600.0,0.795526770939
121,1_31_2,31,2.0,541.787774301,1_I,training,01,1_A,122.0,01101,ignore,1.0,8700.0,0.387657546444
122,1_31_2,31,2.0,545.287999067,1_I,training,01,1_A,123.0,00010,ignore,0.0,8600.0,1.29072006746
123,1_31_2,31,2.0,549.28821008,1_I,training,01,1_A,124.0,11110,kill,1.0,8700.0,1.80634180245
124,1_31_2,31,2.0,553.507157815,1_I,training,01,1_A,125.0,11111,kill,1.0,8800.0,1.91775296619
125,1_31_2,31,2.0,557.179217355,1_I,training,01,1_A,126.0,11011,kill,0.0,8700.0,1.48908952
126,1_31_2,31,2.0,565.50782657,1_I,training,01,1_A,127.0,10000,ignore,1.0,8800.0,6.12789111401
127,1_31_2,31,2.0,569.636165163,1_I,training,01,1_A,128.0,10011,kill,0.0,8700.0,1.92276883527
128,1_31_2,31,2.0,573.870787386,1_I,training,01,1_A,129.0,11000,ignore,1.0,8800.0,2.02723914956
129,1_31_2,31,2.0,577.042840563,1_I,training,01,1_A,130.0,10000,ignore,1.0,8900.0,0.978075175635
130,1_31_2,31,2.0,581.496213466,1_I,training,01,1_A,131.0,10110,kill,1.0,9000.0,2.24613064167
131,1_31_2,31,2.0,584.793236828,1_I,training,01,1_A,132.0,00101,ignore,1.0,9100.0,1.04826614239
132,1_31_2,31,2.0,587.855910971,1_I,training,01,1_A,133.0,00100,ignore,1.0,9200.0,0.833969314441
133,1_31_2,31,2.0,591.012304849,1_I,training,01,1_A,134.0,01101,ignore,1.0,9300.0,0.973650881882
134,1_31_2,31,2.0,596.450091528,1_I,training,01,1_A,135.0,01011,ignore,0.0,9200.0,3.25953940873
135,1_31_2,31,2.0,601.372293009,1_I,training,01,1_A,136.0,11011,kill,0.0,9100.0,2.71453021489
136,1_31_2,31,2.0,604.809919171,1_I,training,01,1_A,137.0,01000,ignore,1.0,9200.0,1.13071885229
137,1_31_2,31,2.0,608.185153635,1_I,training,01,1_A,138.0,11101,ignore,1.0,9300.0,1.14340426353
138,1_31_2,31,2.0,621.920246532,1_I,training,01,1_A,139.0,11111,kill,1.0,9400.0,11.5359081297
139,1_31_2,31,2.0,625.342256501,1_I,training,01,1_A,140.0,00001,ignore,1.0,9500.0,1.19649743069
140,1_31_2,31,2.0,629.95191326,1_I,training,01,1_A,141.0,10010,ignore,1.0,9600.0,2.4071553109
141,1_31_2,31,2.0,633.248999844,1_I,training,01,1_A,142.0,01100,ignore,1.0,9700.0,1.06169461494
142,1_31_2,31,2.0,637.967954763,1_I,training,01,1_A,143.0,01010,kill,1.0,9800.0,2.49214181879
143,1_31_2,31,2.0,642.421364203,1_I,training,01,1_A,144.0,11110,kill,1.0,9900.0,2.25859888196
144,1_31_2,31,2.0,650.296765959,1_I,training,01,1_A,145.0,10111,ignore,0.0,9800.0,5.66724524184
145,1_31_2,31,2.0,662.531776545,1_I,training,01,1_A,146.0,00011,ignore,0.0,9700.0,10.0124936932
146,1_31_2,31,2.0,665.688192181,1_I,training,01,1_A,147.0,10101,ignore,1.0,9800.0,0.922456010565
147,1_31_2,31,2.0,668.938367375,1_I,training,01,1_A,148.0,10100,ignore,1.0,9900.0,0.989991662114
148,1_31_2,31,2.0,675.626292711,1_I,training,01,1_A,149.0,01111,kill,1.0,10000.0,4.49104898498
149,1_31_2,31,2.0,680.54839936,1_I,training,01,1_A,150.0,11001,ignore,1.0,10100.0,2.52760636964
150,1_31_2,31,2.0,690.002000518,1_I,training,01,1_A,151.0,01110,kill,1.0,10200.0,7.21476852819
151,1_31_2,31,2.0,695.033540802,1_I,training,01,1_A,152.0,11100,ignore,1.0,10300.0,2.80544807623
152,1_31_2,31,2.0,700.455700614,1_I,training,01,1_A,153.0,11010,ignore,1.0,10400.0,3.20879201632
153,1_31_2,31,2.0,704.1902746,1_I,training,01,1_A,154.0,01001,ignore,1.0,10500.0,1.52933142135
154,1_31_2,31,2.0,708.456105398,1_I,training,01,1_A,155.0,00110,kill,1.0,10600.0,2.0258051644
155,1_31_2,31,2.0,711.550073916,1_I,training,01,1_A,156.0,00000,ignore,1.0,10700.0,0.845440374667
156,1_31_2,31,2.0,719.706727661,1_I,training,01,1_A,157.0,00111,kill,1.0,10800.0,5.94309997787
157,1_31_2,31,2.0,722.847524231,1_I,training,01,1_A,158.0,10001,ignore,1.0,10900.0,0.935008820261
158,1_31_2,31,2.0,726.910284174,1_I,training,01,1_A,159.0,00010,kill,1.0,11000.0,1.86806638617
159,1_31_2,31,2.0,731.113618179,1_I,training,01,1_A,160.0,10011,ignore,1.0,11100.0,1.96275087043
160,1_31_2,31,2.0,734.145064862,1_I,training,01,1_A,161.0,10100,ignore,1.0,11200.0,0.799162434432
161,1_31_2,31,2.0,737.473300904,1_I,training,01,1_A,162.0,11000,ignore,1.0,11300.0,1.15288794266
162,1_31_2,31,2.0,742.614232949,1_I,training,01,1_A,163.0,00110,kill,1.0,11400.0,2.91997270789
163,1_31_2,31,2.0,745.817530007,1_I,training,01,1_A,164.0,10000,ignore,1.0,11500.0,0.96123231586
164,1_31_2,31,2.0,750.739688382,1_I,training,01,1_A,165.0,10011,ignore,1.0,11600.0,2.72073087674
165,1_31_2,31,2.0,753.771057064,1_I,training,01,1_A,166.0,11001,ignore,1.0,11700.0,0.797639774553
166,1_31_2,31,2.0,756.614981758,1_I,training,01,1_A,167.0,01000,ignore,1.0,11800.0,0.650404024191
167,1_31_2,31,2.0,762.724694144,1_I,training,01,1_A,168.0,10110,kill,1.0,11900.0,3.91682762907
168,1_31_2,31,2.0,766.928069202,1_I,training,01,1_A,169.0,00011,ignore,0.0,11800.0,1.97251863709
169,1_31_2,31,2.0,770.193834315,1_I,training,01,1_A,170.0,00100,ignore,1.0,11900.0,1.03388400608
170,1_31_2,31,2.0,774.350349711,1_I,training,01,1_A,171.0,01010,kill,1.0,12000.0,1.94337216
171,1_31_2,31,2.0,777.803606434,1_I,training,01,1_A,172.0,01100,ignore,1.0,12100.0,1.19451661809
172,1_31_2,31,2.0,780.897527741,1_I,training,01,1_A,173.0,00101,ignore,1.0,12200.0,0.870877292662
173,1_31_2,31,2.0,784.679014348,1_I,training,01,1_A,174.0,01011,kill,1.0,12300.0,1.5864917202
174,1_31_2,31,2.0,787.897958798,1_I,training,01,1_A,175.0,00000,ignore,1.0,12400.0,0.991593143966
175,1_31_2,31,2.0,791.554368482,1_I,training,01,1_A,176.0,01110,kill,1.0,12500.0,1.45009111738
176,1_31_2,31,2.0,798.554718665,1_I,training,01,1_A,177.0,10010,ignore,1.0,12600.0,4.79552841306
177,1_31_2,31,2.0,803.242520431,1_I,training,01,1_A,178.0,00111,kill,1.0,12700.0,2.43863155202
178,1_31_2,31,2.0,806.148877464,1_I,training,01,1_A,179.0,10001,ignore,1.0,12800.0,0.692370156195
179,1_31_2,31,2.0,811.071058008,1_I,training,01,1_A,180.0,11010,ignore,1.0,12900.0,2.73288711339
180,1_31_2,31,2.0,814.039982856,1_I,training,01,1_A,181.0,10101,ignore,1.0,13000.0,0.741699574157
181,1_31_2,31,2.0,818.165220708,1_I,training,01,1_A,182.0,11101,ignore,1.0,13100.0,1.92488183888
182,1_31_2,31,2.0,820.868444896,1_I,training,01,1_A,183.0,01101,ignore,1.0,13200.0,0.47494467067
183,1_31_2,31,2.0,825.35307728,1_I,training,01,1_A,184.0,11110,kill,1.0,13300.0,2.28730485917
184,1_31_2,31,2.0,830.587780788,1_I,training,01,1_A,185.0,11111,ignore,0.0,13200.0,2.97319642395
185,1_31_2,31,2.0,835.041046542,1_I,training,01,1_A,186.0,00010,kill,1.0,13300.0,2.22653968666
186,1_31_2,31,2.0,838.119378751,1_I,training,01,1_A,187.0,11100,ignore,1.0,13400.0,0.873035044166
187,1_31_2,31,2.0,840.932020564,1_I,training,01,1_A,188.0,01001,ignore,1.0,13500.0,0.622475182368
188,1_31_2,31,2.0,965.164916915,1_I,test,01,2,0.0,11011,ignore,0.0,0.0,18.3135928082
189,1_31_2,31,2.0,981.071978009,1_I,test,01,2,1.0,10111,kill,1.0,100.0,13.6982169402
190,1_31_2,31,2.0,985.791006002,1_I,test,01,2,2.0,00001,ignore,1.0,200.0,2.4388754075
191,1_31_2,31,2.0,989.931863741,1_I,test,01,2,3.0,01111,kill,0.0,100.0,1.97410698194
192,1_31_2,31,2.0,1011.8236502,1_I,test,01,2,4.0,10110,kill,1.0,200.0,19.7112554082
193,1_31_2,31,2.0,1018.77716946,1_I,test,01,2,5.0,11011,ignore,0.0,100.0,4.77545549453
194,1_31_2,31,2.0,1023.04616956,1_I,test,01,2,6.0,11111,kill,1.0,200.0,2.13712395864
195,1_31_2,31,2.0,1031.06218233,1_I,test,01,2,7.0,01001,ignore,1.0,300.0,5.78499993226
196,1_31_2,31,2.0,1055.0791077,1_I,test,01,2,8.0,00011,kill,0.0,200.0,21.8139124066
197,1_31_2,31,2.0,1060.21998104,1_I,test,01,2,9.0,10101,ignore,0.0,100.0,2.92600135721
198,1_31_2,31,2.0,1063.40771199,1_I,test,01,2,10.0,11100,kill,0.0,0.0,1.00324606947
199,1_31_2,31,2.0,1081.40867387,1_I,test,01,2,11.0,00110,kill,0.0,0.0,15.8189726131
200,1_31_2,31,2.0,1086.78396088,1_I,test,01,2,12.0,11010,kill,0.0,0.0,3.17510301252
201,1_31_2,31,2.0,1093.06554129,1_I,test,01,2,13.0,00111,ignore,1.0,100.0,4.06784560253
202,1_31_2,31,2.0,1096.15943591,1_I,test,01,2,14.0,10000,ignore,0.0,0.0,0.916276696325
203,1_31_2,31,2.0,1099.36273995,1_I,test,01,2,15.0,10100,kill,1.0,100.0,1.00387705579
204,1_31_2,31,2.0,1102.76919531,1_I,test,01,2,16.0,00101,kill,0.0,0.0,1.2412547637
205,1_31_2,31,2.0,1107.58191635,1_I,test,01,2,17.0,10011,ignore,0.0,0.0,2.62256960452
206,1_31_2,31,2.0,1111.12461343,1_I,test,01,2,18.0,11001,ignore,0.0,0.0,1.276401974
207,1_31_2,31,2.0,1116.30117876,1_I,test,01,2,19.0,01011,ignore,1.0,100.0,3.01542816958
208,1_31_2,31,2.0,1119.53578743,1_I,test,01,2,20.0,01000,kill,0.0,0.0,1.069138365
209,1_31_2,31,2.0,1123.7546547,1_I,test,01,2,21.0,11000,ignore,1.0,100.0,1.99310800375
210,1_31_2,31,2.0,1127.47363631,1_I,test,01,2,22.0,01100,ignore,1.0,200.0,1.53618441714
211,1_31_2,31,2.0,1130.78629639,1_I,test,01,2,23.0,00001,kill,0.0,100.0,1.07928382027
212,1_31_2,31,2.0,1135.22409744,1_I,test,01,2,24.0,10001,ignore,0.0,0.0,2.24320766018
213,1_31_2,31,2.0,1148.39662314,1_I,test,01,2,25.0,01010,ignore,1.0,100.0,10.9477944011
214,1_31_2,31,2.0,1153.28752655,1_I,test,01,2,26.0,01110,kill,0.0,0.0,2.68875173501
215,1_31_2,31,2.0,1156.64708899,1_I,test,01,2,27.0,00010,ignore,1.0,100.0,1.18629778531
216,1_31_2,31,2.0,1161.61607131,1_I,test,01,2,28.0,01101,kill,0.0,0.0,2.7690889781
217,1_31_2,31,2.0,1171.69474467,1_I,test,01,2,29.0,11110,kill,0.0,0.0,7.92476647964
218,1_31_2,31,2.0,1177.44504651,1_I,test,01,2,30.0,01111,ignore,1.0,100.0,3.53508624643
219,1_31_2,31,2.0,1183.2110212,1_I,test,01,2,31.0,11101,ignore,0.0,0.0,3.55972262876
220,1_31_2,31,2.0,1189.02386171,1_I,test,01,2,32.0,10111,ignore,0.0,0.0,3.61591325313
221,1_31_2,31,2.0,1194.30534647,1_I,test,01,2,33.0,00000,ignore,1.0,100.0,3.07312051674
222,1_31_2,31,2.0,1199.52444569,1_I,test,01,2,34.0,10010,ignore,0.0,0.0,3.04936472364
223,1_31_2,31,2.0,1202.88393465,1_I,test,01,2,35.0,00100,ignore,1.0,100.0,1.16739036459
224,1_31_2,31,2.0,1206.1184957,1_I,test,01,2,36.0,10010,kill,1.0,200.0,0.964645060962
225,1_31_2,31,2.0,1209.21241208,1_I,test,01,2,37.0,01011,ignore,1.0,300.0,0.939463493316
226,1_31_2,31,2.0,1212.1505746,1_I,test,01,2,38.0,00011,ignore,1.0,400.0,0.744079833521
227,1_31_2,31,2.0,1215.21324094,1_I,test,01,2,39.0,11000,kill,0.0,300.0,0.894760350413
228,1_31_2,31,2.0,1219.3227846,1_I,test,01,2,40.0,00110,ignore,1.0,400.0,1.92403696586
229,1_31_2,31,2.0,1224.13555245,1_I,test,01,2,41.0,11101,ignore,0.0,300.0,2.61457451119
230,1_31_2,31,2.0,1226.87012027,1_I,test,01,2,42.0,00001,ignore,1.0,400.0,0.571841096544
231,1_31_2,31,2.0,1229.87025411,1_I,test,01,2,43.0,10111,kill,1.0,500.0,0.804925470129
232,1_31_2,31,2.0,1234.97990943,1_I,test,01,2,44.0,11011,kill,1.0,600.0,2.929977351
233,1_31_2,31,2.0,1241.05837013,1_I,test,01,2,45.0,11100,kill,0.0,500.0,3.87668507625
234,1_31_2,31,2.0,1244.66793822,1_I,test,01,2,46.0,01010,ignore,1.0,600.0,1.41079713236
235,1_31_2,31,2.0,1248.88687897,1_I,test,01,2,47.0,11001,kill,1.0,700.0,2.04758383969
236,1_31_2,31,2.0,1252.2933216,1_I,test,01,2,48.0,10000,ignore,0.0,600.0,1.17540352129
237,1_31_2,31,2.0,1256.41856931,1_I,test,01,2,49.0,00100,ignore,1.0,700.0,1.91159951541
238,1_31_2,31,2.0,1260.25004177,1_I,test,01,2,50.0,01000,ignore,1.0,800.0,1.66732447435
239,1_31_2,31,2.0,1265.65653449,1_I,test,01,2,51.0,00010,ignore,1.0,900.0,3.15902661432
240,1_31_2,31,2.0,1269.06295371,1_I,test,01,2,52.0,00000,ignore,1.0,1000.0,1.23995338009
241,1_31_2,31,2.0,1272.90695189,1_I,test,01,2,53.0,10011,kill,1.0,1100.0,1.52509104554
242,1_31_2,31,2.0,1277.21969244,1_I,test,01,2,54.0,01101,ignore,1.0,1200.0,2.10169758719
243,1_31_2,31,2.0,1281.68868112,1_I,test,01,2,55.0,11111,kill,1.0,1300.0,2.275663018
244,1_31_2,31,2.0,1284.68884287,1_I,test,01,2,56.0,00111,ignore,1.0,1400.0,0.782634452018
245,1_31_2,31,2.0,1287.59522002,1_I,test,01,2,57.0,00101,ignore,1.0,1500.0,0.712741530846
246,1_31_2,31,2.0,1290.5200292,1_I,test,01,2,58.0,01100,ignore,1.0,1600.0,0.720184870368
247,1_31_2,31,2.0,1294.50517495,1_I,test,01,3,0.0,01111,ignore,1.0,1700.0,1.77455068397
248,1_31_2,31,2.0,1297.91160732,1_I,test,01,3,1.0,01001,ignore,0.0,1600.0,1.24670086938
249,1_31_2,31,2.0,1305.80266673,1_I,test,01,3,2.0,10110,kill,0.0,1500.0,5.708408375
250,1_31_2,31,2.0,1310.36538213,1_I,test,01,3,3.0,11110,kill,0.0,1400.0,2.38232105257
251,1_31_2,31,2.0,1314.31873553,1_I,test,01,3,4.0,10001,kill,0.0,1300.0,1.74991963854
252,1_31_2,31,2.0,1318.30332378,1_I,test,01,3,5.0,11010,ignore,0.0,1200.0,1.71436641297
253,1_31_2,31,2.0,1321.81916023,1_I,test,01,3,6.0,10101,ignore,1.0,1300.0,1.3499350745
254,1_31_2,31,2.0,1328.60074947,1_I,test,01,3,7.0,01110,ignore,1.0,1400.0,4.54370822076
255,1_31_2,31,2.0,1333.49162168,1_I,test,01,3,8.0,10100,kill,0.0,1300.0,2.70305997572
256,1_31_2,31,2.0,1337.78875711,1_I,test,01,3,9.0,00011,ignore,0.0,1200.0,2.10876980659
257,1_31_2,31,2.0,1341.77331047,1_I,test,01,3,10.0,01010,ignore,0.0,1100.0,1.79829251901
258,1_31_2,31,2.0,1345.86727981,1_I,test,01,3,11.0,11110,kill,0.0,1000.0,1.88642862157
259,1_31_2,31,2.0,1350.1175018,1_I,test,01,3,12.0,10001,kill,0.0,900.0,2.01778831292
260,1_31_2,31,2.0,1355.91470806,1_I,test,01,3,13.0,10010,ignore,0.0,800.0,3.58734562491
261,1_31_2,31,2.0,1358.78983763,1_I,test,01,3,14.0,00000,ignore,0.0,700.0,0.676109840062
262,1_31_2,31,2.0,1364.13387666,1_I,test,01,3,15.0,11111,kill,0.0,600.0,3.16289094364
263,1_31_2,31,2.0,1367.36844674,1_I,test,01,3,16.0,00010,ignore,0.0,500.0,1.08220885442
264,1_31_2,31,2.0,1377.63460227,1_I,test,01,3,17.0,00101,ignore,1.0,600.0,8.07133388536
265,1_31_2,31,2.0,1382.82238043,1_I,test,01,3,18.0,11001,kill,0.0,500.0,2.99155414351
266,1_31_2,31,2.0,1387.66639667,1_I,test,01,3,19.0,01011,ignore,0.0,400.0,2.70465817333
267,1_31_2,31,2.0,1391.29162365,1_I,test,01,3,20.0,01111,kill,0.0,300.0,1.29018062958
268,1_31_2,31,2.0,1397.66695623,1_I,test,01,3,21.0,11000,ignore,1.0,400.0,4.17425567631
269,1_31_2,31,2.0,1403.9329147,1_I,test,01,3,22.0,10100,kill,0.0,300.0,4.05030114509
270,1_31_2,31,2.0,1409.13633533,1_I,test,01,3,23.0,10111,kill,0.0,200.0,2.98819230427
271,1_31_2,31,2.0,1413.08963659,1_I,test,01,3,24.0,01001,ignore,0.0,100.0,1.7867266261
272,1_31_2,31,2.0,1417.24614132,1_I,test,01,3,25.0,01100,kill,0.0,0.0,1.97548349275
273,1_31_2,31,2.0,1428.57485234,1_I,test,01,3,26.0,00001,ignore,0.0,0.0,9.0766038732
274,1_31_2,31,2.0,1436.30964884,1_I,test,01,3,27.0,01000,ignore,0.0,0.0,5.56684780668
275,1_31_2,31,2.0,1441.9975167,1_I,test,01,3,28.0,00100,ignore,1.0,100.0,3.45858254282
276,1_31_2,31,2.0,1451.59170588,1_I,test,01,3,29.0,00111,kill,0.0,0.0,7.42326003574
277,1_31_2,31,2.0,1458.49836917,1_I,test,01,3,30.0,10000,ignore,1.0,100.0,4.67907715891
278,1_31_2,31,2.0,1463.96741409,1_I,test,01,3,31.0,11100,kill,0.0,0.0,3.21989072483
279,1_31_2,31,2.0,1474.70238835,1_I,test,01,3,32.0,11011,kill,1.0,100.0,8.56373023344
280,1_31_2,31,2.0,1477.84315084,1_I,test,01,3,33.0,11101,kill,0.0,0.0,0.957324059709
281,1_31_2,31,2.0,1484.1716057,1_I,test,01,3,34.0,01110,ignore,1.0,100.0,4.1569029369
282,1_31_2,31,2.0,1491.93764936,1_I,test,01,3,35.0,00110,ignore,1.0,200.0,5.4972135201
283,1_31_2,31,2.0,1497.7817046,1_I,test,01,3,36.0,10101,ignore,1.0,300.0,3.66845015064
284,1_31_2,31,2.0,1513.81384303,1_I,test,01,3,37.0,01101,ignore,1.0,400.0,13.8301480909
285,1_31_2,31,2.0,1519.61102629,1_I,test,01,3,38.0,11010,ignore,0.0,300.0,3.59298632234
286,1_31_2,31,2.0,1523.31433956,1_I,test,01,3,39.0,10011,ignore,0.0,200.0,1.51823804975
287,1_31_2,31,2.0,1539.28395985,1_I,test,01,3,40.0,10110,kill,0.0,100.0,13.7787582173
288,1_31_2,31,2.0,1551.4252076,1_I,test,01,3,41.0,11011,kill,1.0,200.0,9.93412330466
289,1_31_2,31,2.0,1560.70694935,1_I,test,01,3,42.0,11000,ignore,1.0,300.0,7.12991297972
290,1_31_2,31,2.0,1573.42644494,1_I,test,01,3,43.0,10010,kill,1.0,400.0,10.5266301267
291,1_31_2,31,2.0,1577.37975975,1_I,test,01,3,44.0,00010,kill,1.0,500.0,1.76716687145
292,1_31_2,31,2.0,1581.53622547,1_I,test,01,3,45.0,10100,ignore,1.0,600.0,1.96454365978
293,1_31_2,31,2.0,1584.98950354,1_I,test,01,3,46.0,01010,ignore,0.0,500.0,1.26775742045
294,1_31_2,31,2.0,1608.6783341,1_I,test,01,3,47.0,11111,kill,0.0,400.0,21.4716210108
295,1_31_2,31,2.0,1617.69439449,1_I,test,01,3,48.0,10000,ignore,1.0,500.0,6.7746065162
296,1_31_2,31,2.0,1627.66372494,1_I,test,01,3,49.0,01101,kill,0.0,400.0,7.74036124274
297,1_31_2,31,2.0,1637.78922142,1_I,test,01,3,50.0,00000,ignore,0.0,300.0,7.95169978353
298,1_31_2,31,2.0,1655.61990608,1_I,test,01,3,51.0,11101,kill,0.0,200.0,15.6536053458
299,1_31_2,31,2.0,1664.44845064,1_I,test,01,3,52.0,00101,kill,0.0,100.0,6.55275140002
300,1_31_2,31,2.0,1672.52706118,1_I,test,01,3,53.0,00110,kill,0.0,0.0,5.84496744283
301,1_31_2,31,2.0,1706.26635505,1_I,test,01,3,54.0,10110,,,0.0,
302,1_31_2,31,2.0,1717.20440672,1_I,test,01,3,55.0,01011,kill,1.0,100.0,8.73440648902
303,1_31_2,31,2.0,1721.72036633,1_I,test,01,4,0.0,10011,kill,1.0,200.0,2.22368854811
304,1_31_2,31,2.0,1728.08000759,1_I,test,01,4,1.0,10101,ignore,0.0,100.0,4.17982453079
305,1_31_2,31,2.0,1732.23653612,1_I,test,01,4,2.0,00011,kill,1.0,200.0,1.93104432135
306,1_31_2,31,2.0,1739.45567598,1_I,test,01,4,3.0,01001,ignore,1.0,300.0,5.00880383962
307,1_31_2,31,2.0,1743.44090959,1_I,test,01,4,4.0,00111,kill,1.0,400.0,1.8326662887
308,1_31_2,31,2.0,1756.76873141,1_I,test,01,4,5.0,11010,ignore,1.0,500.0,11.1435253702
309,1_31_2,31,2.0,1761.26898696,1_I,test,01,4,6.0,10001,ignore,0.0,400.0,2.28135626341
310,1_31_2,31,2.0,1764.09726919,1_I,test,01,4,7.0,00100,ignore,0.0,300.0,0.618891656324
311,1_31_2,31,2.0,1769.59754691,1_I,test,01,4,8.0,01111,kill,0.0,200.0,3.30547414496
312,1_31_2,31,2.0,1772.73829258,1_I,test,01,4,9.0,01000,ignore,1.0,300.0,0.963828514588
313,1_31_2,31,2.0,1781.19195531,1_I,test,01,4,10.0,11110,kill,0.0,200.0,6.27662817664
314,1_31_2,31,2.0,1787.66097643,1_I,test,01,4,11.0,10111,kill,1.0,300.0,4.25765383935
315,1_31_2,31,2.0,1791.08305537,1_I,test,01,4,12.0,01100,ignore,1.0,400.0,1.25536471789
316,1_31_2,31,2.0,1794.69269365,1_I,test,01,4,13.0,11001,ignore,1.0,500.0,1.41920973583
317,1_31_2,31,2.0,1802.89617586,1_I,test,01,4,14.0,01110,kill,0.0,400.0,5.99992979918
318,1_31_2,31,2.0,1806.64328993,1_I,test,01,4,15.0,11100,ignore,1.0,500.0,1.53444787055
319,1_31_2,31,2.0,1809.8527273,1_I,test,01,4,16.0,00001,ignore,0.0,400.0,1.00425884972
320,1_31_2,31,2.0,1814.16547401,1_I,test,01,4,17.0,10100,ignore,0.0,300.0,2.09161781688
321,1_31_2,31,2.0,1817.99379318,1_I,test,01,4,18.0,01101,ignore,1.0,400.0,1.61540665775
322,1_31_2,31,2.0,1823.25969787,1_I,test,01,4,19.0,11111,ignore,1.0,500.0,3.08190547193
323,1_31_2,31,2.0,1826.90055007,1_I,test,01,4,20.0,01010,ignore,1.0,600.0,1.43537604034
324,1_31_2,31,2.0,1829.90069376,1_I,test,01,4,21.0,00101,kill,1.0,700.0,0.787889660734
325,1_31_2,31,2.0,1833.04145707,1_I,test,01,4,22.0,00010,kill,0.0,600.0,0.949367966832
326,1_31_2,31,2.0,1836.32286506,1_I,test,01,4,23.0,10011,kill,1.0,700.0,1.04812409863
327,1_31_2,31,2.0,1839.19801599,1_I,test,01,4,24.0,10111,kill,1.0,800.0,0.678357497878
328,1_31_2,31,2.0,1843.62019715,1_I,test,01,4,25.0,10000,ignore,1.0,900.0,2.21698991202
329,1_31_2,31,2.0,1848.0735212,1_I,test,01,4,26.0,00110,ignore,0.0,800.0,2.20959214145
330,1_31_2,31,2.0,1851.63620252,1_I,test,01,4,27.0,01001,ignore,1.0,900.0,1.36769341865
331,1_31_2,31,2.0,1854.74576137,1_I,test,01,4,28.0,01111,ignore,1.0,1000.0,0.929063508753
332,1_31_2,31,2.0,1857.82403036,1_I,test,01,4,29.0,00001,kill,1.0,1100.0,0.824471266724
333,1_31_2,31,2.0,1861.4179724,1_I,test,01,4,30.0,11100,kill,0.0,1000.0,1.40859299084
334,1_31_2,31,2.0,1864.98067055,1_I,test,01,4,31.0,01011,ignore,1.0,1100.0,1.36439233801
335,1_31_2,31,2.0,1868.96528959,1_I,test,01,4,32.0,00000,ignore,1.0,1200.0,1.78095332713
336,1_31_2,31,2.0,1872.57482402,1_I,test,01,4,33.0,11001,ignore,1.0,1300.0,1.36953588227
337,1_31_2,31,2.0,1878.77830663,1_I,test,01,4,34.0,00100,kill,1.0,1400.0,3.86761603354
338,1_31_2,31,2.0,1882.76287189,1_I,test,01,4,35.0,10110,kill,1.0,1500.0,1.79034627889
339,1_31_2,31,2.0,1886.71621873,1_I,test,01,4,36.0,01100,kill,0.0,1400.0,1.73156068738
340,1_31_2,31,2.0,1890.23201412,1_I,test,01,4,37.0,00011,kill,1.0,1500.0,1.325712097
341,1_31_2,31,2.0,1893.42281133,1_I,test,01,4,38.0,00111,kill,1.0,1600.0,0.967876761846
342,1_31_2,31,2.0,1896.76674649,1_I,test,01,4,39.0,11101,ignore,1.0,1700.0,1.13094587599
343,1_31_2,31,2.0,1899.82940626,1_I,test,01,4,40.0,11011,ignore,1.0,1800.0,0.88635718916
344,1_31_2,31,2.0,1905.92349506,1_I,test,01,4,41.0,01000,ignore,1.0,1900.0,3.88158024918
345,1_31_2,31,2.0,1908.98616551,1_I,test,01,4,42.0,01110,kill,0.0,1800.0,0.918114644097
346,1_31_2,31,2.0,1913.18953236,1_I,test,01,4,43.0,10001,kill,1.0,1900.0,1.99164692354
347,1_31_2,31,2.0,1918.92417039,1_I,test,01,4,44.0,11000,ignore,1.0,2000.0,3.53618770139
348,1_31_2,31,2.0,1923.48694408,1_I,test,01,4,45.0,11010,ignore,1.0,2100.0,2.42496661356
349,1_31_2,31,2.0,1929.48726389,1_I,test,01,4,46.0,10010,ignore,1.0,2200.0,3.7908348109
350,1_31_2,31,2.0,1933.04998668,1_I,test,01,4,47.0,10101,kill,1.0,2300.0,1.34542087444
351,1_31_2,31,2.0,1937.56586212,1_I,test,01,4,48.0,11110,kill,0.0,2200.0,2.33720491537
352,1_31_2,31,2.0,1941.22227304,1_I,test,01,4,49.0,01101,ignore,1.0,2300.0,1.42390210639
353,1_31_2,31,2.0,1944.87874553,1_I,test,01,4,50.0,10100,kill,1.0,2400.0,1.45781567071
354,1_31_2,31,2.0,1947.86323074,1_I,test,01,4,51.0,00001,kill,1.0,2500.0,0.733335823888
355,1_31_2,31,2.0,1951.11344535,1_I,test,01,4,52.0,00100,kill,1.0,2600.0,1.00704471382
356,1_31_2,31,2.0,1954.5823511,1_I,test,01,4,53.0,10000,ignore,1.0,2700.0,1.27918537491
357,1_31_2,31,2.0,1958.02323113,1_I,test,01,4,54.0,11111,ignore,1.0,2800.0,1.21544056762
358,1_31_2,31,2.0,1961.50780933,1_I,test,01,4,55.0,00110,kill,1.0,2900.0,1.32186377839
359,1_31_2,31,2.0,1965.14859543,1_I,test,01,4,56.0,11011,ignore,1.0,3000.0,1.39993447924
360,1_31_2,31,2.0,1969.44571198,1_I,test,01,4,57.0,10010,ignore,1.0,3100.0,2.10266233529
361,1_31_2,31,2.0,1973.19590914,1_I,test,01,4,58.0,10111,kill,1.0,3200.0,1.54604578489
362,1_31_2,31,2.0,1978.27430703,1_I,test,01,5,0.0,01000,ignore,1.0,3300.0,2.88050465768
363,1_31_2,31,2.0,1981.75884623,1_I,test,01,5,1.0,01111,ignore,1.0,3400.0,1.3108167968
364,1_31_2,31,2.0,1986.52472814,1_I,test,01,5,2.0,00111,kill,0.0,3300.0,2.5621936155
365,1_31_2,31,2.0,1990.82186973,1_I,test,01,5,3.0,01010,kill,0.0,3200.0,2.1004586043
366,1_31_2,31,2.0,1994.63457805,1_I,test,01,5,4.0,01110,kill,0.0,3100.0,1.60223189342
367,1_31_2,31,2.0,1997.71282282,1_I,test,01,5,5.0,11110,ignore,1.0,3200.0,0.871460246835
368,1_31_2,31,2.0,2001.3537017,1_I,test,01,5,6.0,00011,ignore,1.0,3300.0,1.47629039164
369,1_31_2,31,2.0,2004.57257143,1_I,test,01,5,7.0,10101,kill,1.0,3400.0,0.991811546515
370,1_31_2,31,2.0,2007.77590667,1_I,test,01,5,8.0,10011,ignore,0.0,3300.0,1.00612840838
371,1_31_2,31,2.0,2011.33865163,1_I,test,01,5,9.0,11101,kill,1.0,3400.0,1.38373820595
372,1_31_2,31,2.0,2015.13566616,1_I,test,01,5,10.0,01011,kill,0.0,3300.0,1.58321855568
373,1_31_2,31,2.0,2018.90144503,1_I,test,01,5,11.0,00101,kill,0.0,3200.0,1.52628158575
374,1_31_2,31,2.0,2025.99572966,1_I,test,01,5,12.0,00010,kill,0.0,3100.0,4.89606748146
375,1_31_2,31,2.0,2029.99585856,1_I,test,01,5,13.0,11000,kill,0.0,3000.0,1.77662345553
376,1_31_2,31,2.0,2034.93360357,1_I,test,01,5,14.0,11001,ignore,0.0,2900.0,2.77243480663
377,1_31_2,31,2.0,2039.96511389,1_I,test,01,5,15.0,01001,ignore,1.0,3000.0,2.78083222045
378,1_31_2,31,2.0,2047.04365259,1_I,test,01,5,16.0,10110,ignore,0.0,2900.0,4.78460007496
379,1_31_2,31,2.0,2054.60654288,1_I,test,01,5,17.0,01100,ignore,1.0,3000.0,5.38980708733
380,1_31_2,31,2.0,2059.20053336,1_I,test,01,5,18.0,11100,kill,0.0,2900.0,2.37372329957
381,1_31_2,31,2.0,2062.27886886,1_I,test,01,5,19.0,10001,ignore,0.0,2800.0,0.912334366092
382,1_31_2,31,2.0,2066.12590948,1_I,test,01,5,20.0,11010,ignore,1.0,2900.0,1.62447898471
383,1_31_2,31,2.0,2072.25125694,1_I,test,01,5,21.0,00000,kill,0.0,2800.0,3.88295675999
384,1_31_2,31,2.0,2085.31443111,1_I,test,01,5,22.0,11000,ignore,1.0,2900.0,10.8801019267
385,1_31_2,31,2.0,2092.68987413,1_I,test,01,5,23.0,01001,ignore,1.0,3000.0,5.16968564402
386,1_31_2,31,2.0,2099.48886414,1_I,test,01,5,24.0,11001,ignore,0.0,2900.0,4.62531400498
387,1_31_2,31,2.0,2104.72352783,1_I,test,01,5,25.0,01000,ignore,1.0,3000.0,3.03275504553
388,1_31_2,31,2.0,2109.16126442,1_I,test,01,5,26.0,10000,kill,1.0,3100.0,2.21584535129
389,1_31_2,31,2.0,2120.02116986,1_I,test,01,5,27.0,01100,ignore,1.0,3200.0,8.70272662446
390,1_31_2,31,2.0,2123.95891651,1_I,test,01,5,28.0,11010,kill,0.0,3100.0,1.68210811008
391,1_31_2,31,2.0,2128.77170611,1_I,test,01,5,29.0,10101,kill,1.0,3200.0,2.43025220158
392,1_31_2,31,2.0,2132.53749114,1_I,test,01,5,30.0,11111,kill,1.0,3300.0,1.29842532583
393,1_31_2,31,2.0,2138.83472018,1_I,test,01,5,31.0,11100,ignore,1.0,3400.0,3.95871534963
394,1_31_2,31,2.0,2142.78809493,1_I,test,01,5,32.0,00000,kill,0.0,3300.0,1.78370347502
395,1_31_2,31,2.0,2148.55398094,1_I,test,01,5,33.0,01101,ignore,1.0,3400.0,3.49541375172
396,1_31_2,31,2.0,2155.55437916,1_I,test,01,5,34.0,01010,kill,0.0,3300.0,4.79777442876
397,1_31_2,31,2.0,2164.21105117,1_I,test,01,5,35.0,01011,ignore,1.0,3400.0,6.44648665425
398,1_31_2,31,2.0,2174.80540045,1_I,test,01,5,36.0,11110,kill,0.0,3300.0,8.39238686481
