,unique_id,pair_id,sbj_id,wall_time,condition,block,rule_id,rule_num,trial,stimulus,choice,correct,points,reaction_time
0,3_27_1,27,1.0,36.9760167804,3_D,training,02,1_A,1.0,11011,kill,1.0,100.0,2.67267578169
1,3_27_1,27,1.0,41.9293938607,3_D,training,02,1_A,2.0,10100,kill,0.0,0.0,2.80339455985
2,3_27_1,27,1.0,45.8358038827,3_D,training,02,1_A,3.0,01000,ignore,0.0,0.0,1.77800110971
3,3_27_1,27,1.0,50.4297543563,3_D,training,02,1_A,4.0,01101,ignore,1.0,100.0,2.43388337775
4,3_27_1,27,1.0,54.0080729843,3_D,training,02,1_A,5.0,01110,ignore,1.0,200.0,1.44765854269
5,3_27_1,27,1.0,57.4613686003,3_D,training,02,1_A,6.0,10000,kill,1.0,300.0,1.30056030764
6,3_27_1,27,1.0,61.2584968232,3_D,training,02,1_A,7.0,11010,kill,0.0,200.0,1.64851616297
7,3_27_1,27,1.0,65.3549319581,3_D,training,02,1_A,8.0,10010,ignore,1.0,300.0,1.95736754834
8,3_27_1,27,1.0,68.4863297123,3_D,training,02,1_A,9.0,01001,ignore,0.0,200.0,0.990149233625
9,3_27_1,27,1.0,72.6584066993,3_D,training,02,1_A,10.0,11100,ignore,1.0,300.0,2.03010715443
10,3_27_1,27,1.0,76.9242689862,3_D,training,02,1_A,11.0,11110,ignore,1.0,400.0,2.14058750517
11,3_27_1,27,1.0,80.2837857168,3_D,training,02,1_A,12.0,11001,kill,1.0,500.0,1.2224148714
12,3_27_1,27,1.0,83.7839451174,3_D,training,02,1_A,13.0,11000,kill,1.0,600.0,1.34880674037
13,3_27_1,27,1.0,86.8621979967,3_D,training,02,1_A,14.0,00110,ignore,1.0,700.0,0.93453316784
14,3_27_1,27,1.0,89.8154923298,3_D,training,02,1_A,15.0,00100,ignore,1.0,800.0,0.808573957722
15,3_27_1,27,1.0,92.8156635973,3_D,training,02,1_A,16.0,10101,ignore,1.0,900.0,0.873192470646
16,3_27_1,27,1.0,95.7845362147,3_D,training,02,1_A,17.0,10111,ignore,1.0,1000.0,0.854958899012
17,3_27_1,27,1.0,98.5033952013,3_D,training,02,1_A,18.0,00001,kill,1.0,1100.0,0.614769414322
18,3_27_1,27,1.0,101.331738044,3_D,training,02,1_A,19.0,01100,ignore,1.0,1200.0,0.719004275272
19,3_27_1,27,1.0,104.175599516,3_D,training,02,1_A,20.0,00101,ignore,1.0,1300.0,0.698749811574
20,3_27_1,27,1.0,107.285113842,3_D,training,02,1_A,21.0,01111,ignore,1.0,1400.0,1.0077208276
21,3_27_1,27,1.0,109.988387488,3_D,training,02,1_A,22.0,11101,ignore,1.0,1500.0,0.584304009391
22,3_27_1,27,1.0,112.629147223,3_D,training,02,1_A,23.0,01010,kill,0.0,1400.0,0.54763416754
23,3_27_1,27,1.0,115.723031306,3_D,training,02,1_A,24.0,11111,ignore,1.0,1500.0,0.982857857618
24,3_27_1,27,1.0,118.738805554,3_D,training,02,1_A,25.0,10110,ignore,1.0,1600.0,0.905048862545
25,3_27_1,27,1.0,122.285812703,3_D,training,02,1_A,26.0,10011,kill,1.0,1700.0,1.43766601559
26,3_27_1,27,1.0,126.146100458,3_D,training,02,1_A,27.0,00000,kill,1.0,1800.0,1.74071707832
27,3_27_1,27,1.0,129.068117629,3_D,training,02,1_A,28.0,10001,kill,1.0,1900.0,0.856794732403
28,3_27_1,27,1.0,132.537055995,3_D,training,02,1_A,29.0,00010,kill,0.0,1800.0,1.36835849426
29,3_27_1,27,1.0,135.66216849,3_D,training,02,1_A,30.0,01011,kill,1.0,1900.0,1.02715423374
30,3_27_1,27,1.0,138.693558226,3_D,training,02,1_A,31.0,00011,kill,1.0,2000.0,0.948303521887
31,3_27_1,27,1.0,141.443700468,3_D,training,02,1_A,32.0,00111,ignore,1.0,2100.0,0.655896700697
32,3_27_1,27,1.0,144.693872217,3_D,training,02,1_A,33.0,00100,ignore,1.0,2200.0,1.14341373924
33,3_27_1,27,1.0,147.77212702,3_D,training,02,1_A,34.0,10101,ignore,1.0,2300.0,0.970660662684
34,3_27_1,27,1.0,150.569133688,3_D,training,02,1_A,35.0,10110,ignore,1.0,2400.0,0.701784196566
35,3_27_1,27,1.0,153.506785912,3_D,training,02,1_A,36.0,00101,ignore,1.0,2500.0,0.851862934704
36,3_27_1,27,1.0,156.428825535,3_D,training,02,1_A,37.0,11011,kill,1.0,2600.0,0.827443207512
37,3_27_1,27,1.0,159.80393851,3_D,training,02,1_A,38.0,00011,kill,1.0,2700.0,1.27641223504
38,3_27_1,27,1.0,163.491615591,3_D,training,02,1_A,39.0,00111,ignore,1.0,2800.0,1.61178057237
39,3_27_1,27,1.0,166.569901826,3_D,training,02,1_A,40.0,00001,kill,1.0,2900.0,0.980659604289
40,3_27_1,27,1.0,170.351408146,3_D,training,02,1_A,41.0,01110,ignore,1.0,3000.0,1.72799581774
41,3_27_1,27,1.0,173.445237706,3_D,training,02,1_A,42.0,01000,ignore,0.0,2900.0,0.980457547153
42,3_27_1,27,1.0,176.695395663,3_D,training,02,1_A,43.0,10011,kill,1.0,3000.0,1.15040491608
43,3_27_1,27,1.0,179.820532533,3_D,training,02,1_A,44.0,10000,ignore,0.0,2900.0,1.03419384014
44,3_27_1,27,1.0,182.680071073,3_D,training,02,1_A,45.0,00010,ignore,1.0,3000.0,0.794781794331
45,3_27_1,27,1.0,186.102121921,3_D,training,02,1_A,46.0,11111,ignore,1.0,3100.0,1.35074296087
46,3_27_1,27,1.0,189.024109906,3_D,training,02,1_A,47.0,01001,kill,1.0,3200.0,0.834520980265
47,3_27_1,27,1.0,192.555554807,3_D,training,02,1_A,48.0,01100,ignore,1.0,3300.0,1.45140846652
48,3_27_1,27,1.0,195.743194363,3_D,training,02,1_A,49.0,01111,ignore,1.0,3400.0,1.12376191897
49,3_27_1,27,1.0,198.587087266,3_D,training,02,1_A,50.0,11100,ignore,1.0,3500.0,0.745245403201
50,3_27_1,27,1.0,202.399773568,3_D,training,02,1_A,51.0,00000,kill,1.0,3600.0,1.72483859484
51,3_27_1,27,1.0,206.040579487,3_D,training,02,1_A,52.0,10111,ignore,1.0,3700.0,1.53687221971
52,3_27_1,27,1.0,209.525133021,3_D,training,02,1_A,53.0,11010,kill,0.0,3600.0,1.42176379842
53,3_27_1,27,1.0,213.353406587,3_D,training,02,1_A,54.0,10100,ignore,1.0,3700.0,1.75133598253
54,3_27_1,27,1.0,217.544775861,3_D,training,02,1_A,55.0,01010,ignore,1.0,3800.0,2.12263937933
55,3_27_1,27,1.0,220.388615844,3_D,training,02,1_A,56.0,01101,ignore,1.0,3900.0,0.743097183067
56,3_27_1,27,1.0,223.65440244,3_D,training,02,1_A,57.0,01011,kill,1.0,4000.0,1.19621736216
57,3_27_1,27,1.0,227.179385361,3_D,training,02,1_A,58.0,11001,kill,1.0,4100.0,1.46281635572
58,3_27_1,27,1.0,229.882715455,3_D,training,02,1_A,59.0,11101,ignore,1.0,4200.0,0.647701840646
59,3_27_1,27,1.0,233.664162441,3_D,training,02,1_A,60.0,11000,kill,1.0,4300.0,1.68008999561
60,3_27_1,27,1.0,236.592476419,3_D,training,02,1_A,61.0,11110,ignore,1.0,4400.0,0.846455821651
61,3_27_1,27,1.0,239.217603346,3_D,training,02,1_A,62.0,10001,kill,1.0,4500.0,0.542528857286
62,3_27_1,27,1.0,243.483400205,3_D,training,02,1_A,63.0,00110,ignore,1.0,4600.0,2.19590176816
63,3_27_1,27,1.0,246.811736954,3_D,training,02,1_A,64.0,10010,kill,0.0,4500.0,1.25432642811
64,3_27_1,27,1.0,249.84310905,3_D,training,02,1_A,65.0,01100,ignore,1.0,4600.0,0.967037746197
65,3_27_1,27,1.0,252.858891316,3_D,training,02,1_A,66.0,11010,ignore,1.0,4700.0,0.955115733836
66,3_27_1,27,1.0,255.874657866,3_D,training,02,1_A,67.0,01101,ignore,1.0,4800.0,0.976740337339
67,3_27_1,27,1.0,259.843582762,3_D,training,02,1_A,68.0,11111,ignore,1.0,4900.0,1.91730154301
68,3_27_1,27,1.0,262.968746252,3_D,training,02,1_A,69.0,10110,ignore,1.0,5000.0,1.07534678456
69,3_27_1,27,1.0,266.562678444,3_D,training,02,1_A,70.0,10010,ignore,1.0,5100.0,1.54808382484
70,3_27_1,27,1.0,270.015948081,3_D,training,02,1_A,71.0,01110,ignore,1.0,5200.0,1.38457502253
71,3_27_1,27,1.0,273.578644485,3_D,training,02,1_A,72.0,00011,kill,1.0,5300.0,1.50035792978
72,3_27_1,27,1.0,276.96938642,3_D,training,02,1_A,73.0,11101,ignore,1.0,5400.0,1.31463438884
73,3_27_1,27,1.0,282.125932911,3_D,training,02,1_A,74.0,01010,ignore,1.0,5500.0,3.12120766021
74,3_27_1,27,1.0,285.376063606,3_D,training,02,1_A,75.0,01011,kill,1.0,5600.0,1.1824306511
75,3_27_1,27,1.0,288.219964528,3_D,training,02,1_A,76.0,10101,ignore,1.0,5700.0,0.752176925078
76,3_27_1,27,1.0,291.938915563,3_D,training,02,1_A,77.0,00100,ignore,1.0,5800.0,1.66146834599
77,3_27_1,27,1.0,295.235892403,3_D,training,02,1_A,78.0,10011,ignore,0.0,5700.0,1.22927455074
78,3_27_1,27,1.0,298.376685493,3_D,training,02,1_A,79.0,10111,ignore,1.0,5800.0,1.04628808216
79,3_27_1,27,1.0,301.439395047,3_D,training,02,1_A,80.0,11110,ignore,1.0,5900.0,1.01624218632
80,3_27_1,27,1.0,304.923933186,3_D,training,02,1_A,81.0,11011,kill,1.0,6000.0,1.42628474661
81,3_27_1,27,1.0,307.783435805,3_D,training,02,1_A,82.0,11100,ignore,1.0,6100.0,0.820693857786
82,3_27_1,27,1.0,310.721097651,3_D,training,02,1_A,83.0,10100,ignore,1.0,6200.0,0.879077464855
83,3_27_1,27,1.0,313.361818899,3_D,training,02,1_A,84.0,10001,kill,1.0,6300.0,0.592093792999
84,3_27_1,27,1.0,316.408849782,3_D,training,02,1_A,85.0,10000,ignore,0.0,6200.0,0.996534239061
85,3_27_1,27,1.0,319.924649367,3_D,training,02,1_A,86.0,11001,kill,1.0,6300.0,1.4637916823
86,3_27_1,27,1.0,323.487342243,3_D,training,02,1_A,87.0,00000,kill,1.0,6400.0,1.52924119528
87,3_27_1,27,1.0,326.706198664,3_D,training,02,1_A,88.0,00110,ignore,1.0,6500.0,1.17537789495
88,3_27_1,27,1.0,329.831358626,3_D,training,02,1_A,89.0,01001,kill,1.0,6600.0,1.06728502564
89,3_27_1,27,1.0,332.974081843,3_D,training,02,1_A,90.0,01111,ignore,1.0,6700.0,1.12561571299
90,3_27_1,27,1.0,335.802320771,3_D,training,02,1_A,91.0,00101,ignore,1.0,6800.0,0.805039561503
91,3_27_1,27,1.0,339.693147056,3_D,training,02,1_A,92.0,11000,kill,1.0,6900.0,1.82391650871
92,3_27_1,27,1.0,343.537103142,3_D,training,02,1_A,93.0,00010,ignore,1.0,7000.0,1.80283329004
93,3_27_1,27,1.0,346.412240493,3_D,training,02,1_A,94.0,00111,ignore,1.0,7100.0,0.820851654782
94,3_27_1,27,1.0,349.429909908,3_D,training,02,1_A,95.0,01000,kill,1.0,7200.0,0.993026783795
95,3_27_1,27,1.0,352.789473465,3_D,training,02,1_A,96.0,00001,kill,1.0,7300.0,1.30063599889
96,3_27_1,27,1.0,355.586490717,3_D,training,02,1_A,97.0,01101,ignore,1.0,7400.0,0.755886437477
97,3_27_1,27,1.0,358.446000391,3_D,training,02,1_A,98.0,10111,ignore,1.0,7500.0,0.826230543982
98,3_27_1,27,1.0,361.258620303,3_D,training,02,1_A,99.0,10100,ignore,1.0,7600.0,0.772991696413
99,3_27_1,27,1.0,363.977524511,3_D,training,02,1_A,100.0,11101,ignore,1.0,7700.0,0.699652333438
100,3_27_1,27,1.0,367.633964201,3_D,training,02,1_A,101.0,01010,ignore,1.0,7800.0,1.61989011941
101,3_27_1,27,1.0,370.477839464,3_D,training,02,1_A,102.0,10010,ignore,1.0,7900.0,0.798859499733
102,3_27_1,27,1.0,373.493597996,3_D,training,02,1_A,103.0,00110,ignore,1.0,8000.0,0.987093680746
103,3_27_1,27,1.0,376.306249659,3_D,training,02,1_A,104.0,00011,kill,1.0,8100.0,0.775220097952
104,3_27_1,27,1.0,379.150150581,3_D,training,02,1_A,105.0,11111,ignore,1.0,8200.0,0.821796191703
105,3_27_1,27,1.0,382.372182185,3_D,training,02,1_A,106.0,01001,kill,1.0,8300.0,1.19252035806
106,3_27_1,27,1.0,385.122326351,3_D,training,02,1_A,107.0,00111,ignore,1.0,8400.0,0.692559486582
107,3_27_1,27,1.0,389.57565853,3_D,training,02,1_A,108.0,11011,kill,1.0,8500.0,2.4465366445
108,3_27_1,27,1.0,393.700892579,3_D,training,02,1_A,109.0,01011,kill,1.0,8600.0,2.12093760924
109,3_27_1,27,1.0,396.544753731,3_D,training,02,1_A,110.0,01100,ignore,1.0,8700.0,0.807224344357
110,3_27_1,27,1.0,399.951214107,3_D,training,02,1_A,111.0,10011,kill,1.0,8800.0,1.36356396712
111,3_27_1,27,1.0,402.77945977,3_D,training,02,1_A,112.0,11100,ignore,1.0,8900.0,0.792206367685
112,3_27_1,27,1.0,405.779593512,3_D,training,02,1_A,113.0,10000,ignore,0.0,8800.0,0.989805736495
113,3_27_1,27,1.0,408.779756762,3_D,training,02,1_A,114.0,11001,kill,1.0,8900.0,0.962024804921
114,3_27_1,27,1.0,411.467384771,3_D,training,02,1_A,115.0,00100,ignore,1.0,9000.0,0.656152960459
115,3_27_1,27,1.0,414.483134965,3_D,training,02,1_A,116.0,00010,ignore,1.0,9100.0,1.00332945255
116,3_27_1,27,1.0,417.155159673,3_D,training,02,1_A,117.0,10001,kill,1.0,9200.0,0.639648099863
117,3_27_1,27,1.0,420.458446469,3_D,training,02,1_A,118.0,01000,kill,1.0,9300.0,1.29990346159
118,3_27_1,27,1.0,423.146070951,3_D,training,02,1_A,119.0,11110,ignore,1.0,9400.0,0.668652278917
119,3_27_1,27,1.0,425.989973797,3_D,training,02,1_A,120.0,01111,ignore,1.0,9500.0,0.797961468023
120,3_27_1,27,1.0,428.880722146,3_D,training,02,1_A,121.0,11000,kill,1.0,9600.0,0.874504238389
121,3_27_1,27,1.0,432.349645759,3_D,training,02,1_A,122.0,00001,kill,1.0,9700.0,1.44428483
122,3_27_1,27,1.0,435.037259656,3_D,training,02,1_A,123.0,01110,ignore,1.0,9800.0,0.687857328419
123,3_27_1,27,1.0,438.25614847,3_D,training,02,1_A,124.0,11010,ignore,1.0,9900.0,1.21843915675
124,3_27_1,27,1.0,441.240677629,3_D,training,02,1_A,125.0,00101,ignore,1.0,10000.0,0.93291639004
125,3_27_1,27,1.0,443.787681892,3_D,training,02,1_A,126.0,10110,ignore,1.0,10100.0,0.524760017062
126,3_27_1,27,1.0,446.631605584,3_D,training,02,1_A,127.0,10101,ignore,1.0,10200.0,0.811705843298
127,3_27_1,27,1.0,449.637957876,3_D,training,02,1_A,128.0,00000,kill,1.0,10300.0,1.00883021748
128,3_27_1,27,1.0,452.434999824,3_D,training,02,1_A,129.0,10101,ignore,1.0,10400.0,0.765562087669
129,3_27_1,27,1.0,455.481993502,3_D,training,02,1_A,130.0,10001,kill,1.0,10500.0,0.986511243038
130,3_27_1,27,1.0,458.044652702,3_D,training,02,1_A,131.0,11111,ignore,1.0,10600.0,0.552251333414
131,3_27_1,27,1.0,461.341631467,3_D,training,02,1_A,132.0,11010,kill,0.0,10500.0,1.31216383947
132,3_27_1,27,1.0,464.169924597,3_D,training,02,1_A,133.0,10011,kill,1.0,10600.0,0.792110470727
133,3_27_1,27,1.0,466.795063071,3_D,training,02,1_A,134.0,01100,ignore,1.0,10700.0,0.60496034228
134,3_27_1,27,1.0,469.545184465,3_D,training,02,1_A,135.0,00100,ignore,1.0,10800.0,0.696921034145
135,3_27_1,27,1.0,472.139055399,3_D,training,02,1_A,136.0,11001,kill,1.0,10900.0,0.594574926312
136,3_27_1,27,1.0,475.326735045,3_D,training,02,1_A,137.0,10111,ignore,1.0,11000.0,1.13487570279
137,3_27_1,27,1.0,478.748747727,3_D,training,02,1_A,138.0,00011,kill,1.0,11100.0,1.37306353895
138,3_27_1,27,1.0,481.655153259,3_D,training,02,1_A,139.0,00010,ignore,1.0,11200.0,0.906808363241
139,3_27_1,27,1.0,484.295896316,3_D,training,02,1_A,140.0,00110,ignore,1.0,11300.0,0.619827257186
140,3_27_1,27,1.0,486.842879731,3_D,training,02,1_A,141.0,01111,ignore,1.0,11400.0,0.569522407492
141,3_27_1,27,1.0,489.764889205,3_D,training,02,1_A,142.0,10000,kill,1.0,11500.0,0.887425631747
142,3_27_1,27,1.0,492.314167412,3_D,training,02,1_A,143.0,00101,ignore,1.0,11600.0,0.496441549363
143,3_27_1,27,1.0,495.767500874,3_D,training,02,1_A,144.0,10110,ignore,1.0,11700.0,1.44087327169
144,3_27_1,27,1.0,498.876955223,3_D,training,02,1_A,145.0,11101,ignore,1.0,11800.0,1.06727412097
145,3_27_1,27,1.0,501.877106606,3_D,training,02,1_A,146.0,11000,kill,1.0,11900.0,1.00601552954
146,3_27_1,27,1.0,504.67411584,3_D,training,02,1_A,147.0,00111,ignore,1.0,12000.0,0.794892765392
147,3_27_1,27,1.0,507.534780768,3_D,training,02,1_A,148.0,01000,kill,1.0,12100.0,0.840778016187
148,3_27_1,27,1.0,510.316139233,3_D,training,02,1_A,149.0,11110,ignore,1.0,12200.0,0.797820669486
149,3_27_1,27,1.0,513.06624363,3_D,training,02,1_A,150.0,11100,ignore,1.0,12300.0,0.747397472041
150,3_27_1,27,1.0,516.051834069,3_D,training,02,1_A,151.0,10010,ignore,1.0,12400.0,0.978291045663
151,3_27_1,27,1.0,518.926960515,3_D,training,02,1_A,152.0,00000,kill,1.0,12500.0,0.815398998697
152,3_27_1,27,1.0,521.567688819,3_D,training,02,1_A,153.0,10100,ignore,1.0,12600.0,0.610916858299
153,3_27_1,27,1.0,524.177229765,3_D,training,02,1_A,154.0,01110,ignore,1.0,12700.0,0.624735321191
154,3_27_1,27,1.0,527.333608837,3_D,training,02,1_A,155.0,01011,kill,1.0,12800.0,1.11658728708
155,3_27_1,27,1.0,530.505645733,3_D,training,02,1_A,156.0,01010,ignore,1.0,12900.0,1.12358808568
156,3_27_1,27,1.0,533.099565096,3_D,training,02,1_A,157.0,11011,kill,1.0,13000.0,0.620582886724
157,3_27_1,27,1.0,538.193552453,3_D,training,02,1_A,158.0,01001,kill,1.0,13100.0,3.08208715398
158,3_27_1,27,1.0,541.115566738,3_D,training,02,1_A,159.0,00001,kill,1.0,13200.0,0.914114813353
159,3_27_1,27,1.0,545.709524268,3_D,training,02,1_A,160.0,01101,ignore,1.0,13300.0,2.57778943081
160,3_27_1,27,1.0,548.506534784,3_D,training,02,1_A,161.0,11000,kill,1.0,13400.0,0.783414637277
161,3_27_1,27,1.0,551.241030748,3_D,training,02,1_A,162.0,11011,kill,1.0,13500.0,0.741876822121
162,3_27_1,27,1.0,554.022443737,3_D,training,02,1_A,163.0,00011,kill,1.0,13600.0,0.765321543462
163,3_27_1,27,1.0,556.585039112,3_D,training,02,1_A,164.0,10110,ignore,1.0,13700.0,0.564787856045
164,3_27_1,27,1.0,559.413338337,3_D,training,02,1_A,165.0,00010,ignore,1.0,13800.0,0.819741623447
165,3_27_1,27,1.0,562.085295052,3_D,training,02,1_A,166.0,00001,kill,1.0,13900.0,0.631230656236
166,3_27_1,27,1.0,564.772934928,3_D,training,02,1_A,167.0,01010,ignore,1.0,14000.0,0.716703069022
167,3_27_1,27,1.0,568.090351932,3_D,training,02,1_A,168.0,10111,ignore,1.0,14100.0,1.33426311687
168,3_27_1,27,1.0,570.965493132,3_D,training,02,1_A,169.0,01011,kill,1.0,14200.0,0.870234739072
169,3_27_1,27,1.0,573.574997514,3_D,training,02,1_A,170.0,00110,ignore,1.0,14300.0,0.584474314688
170,3_27_1,27,1.0,576.606372497,3_D,training,02,1_A,171.0,10001,kill,1.0,14400.0,1.0057307252
171,3_27_1,27,1.0,579.294034824,3_D,training,02,1_A,172.0,01110,ignore,1.0,14500.0,0.683363321179
172,3_27_1,27,1.0,583.762975436,3_D,training,02,1_A,173.0,01001,kill,1.0,14600.0,2.49443508995
173,3_27_1,27,1.0,587.310003432,3_D,training,02,1_A,174.0,00100,ignore,1.0,14700.0,1.52589698935
174,3_27_1,27,1.0,590.169555763,3_D,training,02,1_A,175.0,10000,kill,1.0,14800.0,0.862879859393
175,3_27_1,27,1.0,593.122783706,3_D,training,02,1_A,176.0,00101,ignore,1.0,14900.0,0.912498997732
176,3_27_1,27,1.0,595.701043,3_D,training,02,1_A,177.0,10101,ignore,1.0,15000.0,0.593717947486
177,3_27_1,27,1.0,598.388684159,3_D,training,02,1_A,178.0,00111,ignore,1.0,15100.0,0.654509241707
178,3_27_1,27,1.0,601.154410458,3_D,training,02,1_A,179.0,11001,kill,1.0,15200.0,0.778450446291
179,3_27_1,27,1.0,603.920196412,3_D,training,02,1_A,180.0,10011,kill,1.0,15300.0,0.770171556131
180,3_27_1,27,1.0,606.748481525,3_D,training,02,1_A,181.0,10010,ignore,1.0,15400.0,0.816323650626
181,3_27_1,27,1.0,609.514231557,3_D,training,02,1_A,182.0,10100,ignore,1.0,15500.0,0.790202794804
182,3_27_1,27,1.0,614.717607836,3_D,training,02,1_A,183.0,01101,ignore,1.0,15600.0,3.18789132533
183,3_27_1,27,1.0,617.592721132,3_D,training,02,1_A,184.0,01111,ignore,1.0,15700.0,0.872164865792
184,3_27_1,27,1.0,620.233467397,3_D,training,02,1_A,185.0,11110,ignore,1.0,15800.0,0.676750279832
185,3_27_1,27,1.0,622.780469093,3_D,training,02,1_A,186.0,11100,ignore,1.0,15900.0,0.559551048293
186,3_27_1,27,1.0,625.287003236,3_D,training,02,1_A,187.0,01100,ignore,1.0,16000.0,0.560836195811
187,3_27_1,27,1.0,627.865283377,3_D,training,02,1_A,188.0,11111,ignore,1.0,16100.0,0.59356047121
188,3_27_1,27,1.0,631.20918494,3_D,training,02,1_A,189.0,00000,kill,1.0,16200.0,1.33588662991
189,3_27_1,27,1.0,633.740562809,3_D,training,02,1_A,190.0,11101,ignore,1.0,16300.0,0.552630431088
190,3_27_1,27,1.0,636.678205091,3_D,training,02,1_A,191.0,01000,kill,1.0,16400.0,0.953162194146
191,3_27_1,27,1.0,639.584567004,3_D,training,02,1_A,192.0,11010,ignore,1.0,16500.0,0.904194128798
192,3_27_1,27,1.0,642.350355524,3_D,training,02,1_A,193.0,11101,ignore,1.0,16600.0,0.778349738448
193,3_27_1,27,1.0,645.071578579,3_D,training,02,1_A,194.0,00001,kill,1.0,16700.0,0.721479314801
194,3_27_1,27,1.0,647.774857678,3_D,training,02,1_A,195.0,11110,ignore,1.0,16800.0,0.764452056334
195,3_27_1,27,1.0,650.618724923,3_D,training,02,1_A,196.0,00000,kill,1.0,16900.0,0.818891700583
196,3_27_1,27,1.0,653.634511038,3_D,training,02,1_A,197.0,00011,kill,1.0,17000.0,1.01572036575
197,3_27_1,27,1.0,656.10339039,3_D,training,02,1_A,198.0,01101,ignore,1.0,17100.0,0.502047191567
198,3_27_1,27,1.0,658.603499116,3_D,training,02,1_A,199.0,00101,ignore,1.0,17200.0,0.512000269409
199,3_27_1,27,1.0,661.087993958,3_D,training,02,1_A,200.0,01111,ignore,1.0,17300.0,0.539981013044
200,3_27_1,27,1.0,664.635059799,3_D,training,02,1_A,201.0,00100,ignore,1.0,17400.0,1.49922256112
201,3_27_1,27,1.0,667.29140295,3_D,training,02,1_A,202.0,11001,kill,1.0,17500.0,0.668083953136
202,3_27_1,27,1.0,670.994722781,3_D,training,02,1_A,203.0,01010,ignore,1.0,17600.0,1.76126083652
203,3_27_1,27,1.0,673.776117488,3_D,training,02,1_A,204.0,10010,ignore,1.0,17700.0,0.78516227112
204,3_27_1,27,1.0,676.510799473,3_D,training,02,1_A,205.0,00111,ignore,1.0,17800.0,0.776610443467
205,3_27_1,27,1.0,679.167217673,3_D,training,02,1_A,206.0,10111,ignore,1.0,17900.0,0.638370649758
206,3_27_1,27,1.0,681.704811205,3_D,training,02,1_A,207.0,01110,ignore,1.0,18000.0,0.564149612081
207,3_27_1,27,1.0,684.267434805,3_D,training,02,1_A,208.0,11100,ignore,1.0,18100.0,0.597279284655
208,3_27_1,27,1.0,686.830059687,3_D,training,02,1_A,209.0,10101,ignore,1.0,18200.0,0.57991648305
209,3_27_1,27,1.0,689.36146129,3_D,training,02,1_A,210.0,00110,ignore,1.0,18300.0,0.547056219995
210,3_27_1,27,1.0,691.924060835,3_D,training,02,1_A,211.0,10100,ignore,1.0,18400.0,0.564050187142
211,3_27_1,27,1.0,695.017973463,3_D,training,02,1_A,212.0,10000,kill,1.0,18500.0,1.09902467342
212,3_27_1,27,1.0,698.111883205,3_D,training,02,1_A,213.0,01011,kill,1.0,18600.0,1.14232712088
213,3_27_1,27,1.0,701.174464468,3_D,training,02,1_A,214.0,11011,kill,1.0,18700.0,1.04579288182
214,3_27_1,27,1.0,703.909020087,3_D,training,02,1_A,215.0,10011,kill,1.0,18800.0,0.745788712386
215,3_27_1,27,1.0,706.506283335,3_D,training,02,1_A,216.0,00010,ignore,1.0,18900.0,0.634940489363
216,3_27_1,27,1.0,709.147037939,3_D,training,02,1_A,217.0,11010,ignore,1.0,19000.0,0.664832436905
217,3_27_1,27,1.0,711.584662901,3_D,training,02,1_A,218.0,01100,ignore,1.0,19100.0,0.485851189733
218,3_27_1,27,1.0,714.287904154,3_D,training,02,1_A,219.0,01001,kill,1.0,19200.0,0.679908144186
219,3_27_1,27,1.0,717.541162566,3_D,training,02,1_A,220.0,11000,kill,1.0,19300.0,1.29105175549
220,3_27_1,27,1.0,720.213158089,3_D,training,02,1_A,221.0,01000,kill,1.0,19400.0,0.71955528187
221,3_27_1,27,1.0,722.857039125,3_D,training,02,1_A,222.0,11111,ignore,1.0,19500.0,0.681358144666
222,3_27_1,27,1.0,725.31028984,3_D,training,02,1_A,223.0,10110,ignore,1.0,19600.0,0.519183240162
223,3_27_1,27,1.0,729.107328259,3_D,training,02,1_A,224.0,10001,kill,1.0,19700.0,1.84201280978
224,3_27_1,27,1.0,731.794971022,3_D,training,02,1_A,225.0,11100,ignore,1.0,19800.0,0.71901614212
225,3_27_1,27,1.0,734.591966465,3_D,training,02,1_A,226.0,00100,ignore,1.0,19900.0,0.817074148556
226,3_27_1,27,1.0,737.170212288,3_D,training,02,1_A,227.0,10000,kill,1.0,20000.0,0.606803873085
227,3_27_1,27,1.0,739.732875016,3_D,training,02,1_A,228.0,01101,ignore,1.0,20100.0,0.63954739202
228,3_27_1,27,1.0,742.311113784,3_D,training,02,1_A,229.0,00110,ignore,1.0,20200.0,0.605479917765
229,3_27_1,27,1.0,745.201843531,3_D,training,02,1_A,230.0,01001,kill,1.0,20300.0,0.89987812427
230,3_27_1,27,1.0,747.858239281,3_D,training,02,1_A,231.0,10001,kill,1.0,20400.0,0.72772544605
231,3_27_1,27,1.0,750.514604241,3_D,training,02,1_A,232.0,11001,kill,1.0,20500.0,0.698892855198
232,3_27_1,27,1.0,753.124126905,3_D,training,02,1_A,233.0,11111,ignore,1.0,20600.0,0.629786108089
233,3_27_1,27,1.0,755.702360861,3_D,training,02,1_A,234.0,00011,kill,1.0,20700.0,0.619479911355
234,3_27_1,27,1.0,758.249368331,3_D,training,02,1_A,235.0,01111,ignore,1.0,20800.0,0.569490655656
235,3_27_1,27,1.0,760.890120689,3_D,training,02,1_A,236.0,11011,kill,1.0,20900.0,0.716085351498
236,3_27_1,27,1.0,763.499622827,3_D,training,02,1_A,237.0,01100,ignore,1.0,21000.0,0.580308409746
237,3_27_1,27,1.0,766.281039664,3_D,training,02,1_A,238.0,00101,ignore,1.0,21100.0,0.787043326825
238,3_27_1,27,1.0,769.093627182,3_D,training,02,1_A,239.0,11010,ignore,1.0,21200.0,0.867233068093
239,3_27_1,27,1.0,771.890681317,3_D,training,02,1_A,240.0,11110,ignore,1.0,21300.0,0.816065787236
240,3_27_1,27,1.0,774.484522744,3_D,training,02,1_A,241.0,10011,kill,1.0,21400.0,0.654516297673
241,3_27_1,27,1.0,777.250284644,3_D,training,02,1_A,242.0,11000,kill,1.0,21500.0,0.770397667686
242,3_27_1,27,1.0,779.891121994,3_D,training,02,1_A,243.0,00111,ignore,1.0,21600.0,0.658139214156
243,3_27_1,27,1.0,782.547551741,3_D,training,02,1_A,244.0,10101,ignore,1.0,21700.0,0.679274069655
244,3_27_1,27,1.0,785.110184321,3_D,training,02,1_A,245.0,11101,ignore,1.0,21800.0,0.594560172936
245,3_27_1,27,1.0,787.86185899,3_D,training,02,1_A,246.0,10100,ignore,1.0,21900.0,0.802851250668
246,3_27_1,27,1.0,790.830756945,3_D,training,02,1_A,247.0,01010,ignore,1.0,22000.0,1.02665710904
247,3_27_1,27,1.0,793.502707566,3_D,training,02,1_A,248.0,01110,ignore,1.0,22100.0,0.680234963584
248,3_27_1,27,1.0,796.174727784,3_D,training,02,1_A,249.0,01011,kill,1.0,22200.0,0.73335385977
249,3_27_1,27,1.0,798.787523453,3_D,training,02,1_A,250.0,10111,ignore,1.0,22300.0,0.687679646431
250,3_27_1,27,1.0,801.318876947,3_D,training,02,1_A,251.0,10110,ignore,1.0,22400.0,0.555439025251
251,3_27_1,27,1.0,804.053389909,3_D,training,02,1_A,252.0,10010,ignore,1.0,22500.0,0.77271458949
252,3_27_1,27,1.0,806.866015594,3_D,training,02,1_A,253.0,00000,kill,1.0,22600.0,0.828434249648
253,3_27_1,27,1.0,809.788051367,3_D,training,02,1_A,254.0,00001,kill,1.0,22700.0,0.963626187888
254,3_27_1,27,1.0,812.803804126,3_D,training,02,1_A,255.0,01000,kill,1.0,22800.0,1.01844685416
255,3_27_1,27,1.0,815.538321579,3_D,training,02,1_A,256.0,00010,ignore,1.0,22900.0,0.759887489457
256,3_27_1,27,1.0,818.054056698,3_D,training,02,1_A,257.0,10010,ignore,1.0,23000.0,0.578551474857
257,3_27_1,27,1.0,820.741678293,3_D,training,02,1_A,258.0,00111,ignore,1.0,23100.0,0.689179680106
258,3_27_1,27,1.0,823.257457352,3_D,training,02,1_A,259.0,01110,ignore,1.0,23200.0,0.606713749185
259,3_27_1,27,1.0,825.976284586,3_D,training,02,1_A,260.0,10001,kill,1.0,23300.0,0.716570930072
260,3_27_1,27,1.0,828.617080884,3_D,training,02,1_A,261.0,00011,kill,1.0,23400.0,0.671300831
261,3_27_1,27,1.0,831.695333122,3_D,training,02,1_A,262.0,11001,kill,1.0,23500.0,1.15678029975
262,3_27_1,27,1.0,834.289221374,3_D,training,02,1_A,263.0,11110,ignore,1.0,23600.0,0.630713325831
263,3_27_1,27,1.0,837.726862373,3_D,training,02,1_A,264.0,10000,kill,1.0,23700.0,1.50149393989
264,3_27_1,27,1.0,840.461384316,3_D,training,02,1_A,265.0,00100,ignore,1.0,23800.0,0.768225393127
265,3_27_1,27,1.0,945.528929771,3_D,test,02,2,0.0,01101,ignore,1.0,100.0,22.545402238
266,3_27_1,27,1.0,952.576148919,3_D,test,02,2,1.0,11100,ignore,1.0,200.0,5.13107702867
267,3_27_1,27,1.0,958.654554143,3_D,test,02,2,2.0,01000,kill,0.0,100.0,4.1308419368
268,3_27_1,27,1.0,962.748486335,3_D,test,02,2,3.0,10111,ignore,0.0,0.0,2.18860109111
269,3_27_1,27,1.0,969.170671567,3_D,test,02,2,4.0,01010,ignore,1.0,100.0,4.5090383684
270,3_27_1,27,1.0,976.264806458,3_D,test,02,2,5.0,11000,kill,0.0,0.0,5.09345623539
271,3_27_1,27,1.0,984.499564775,3_D,test,02,2,6.0,01011,ignore,1.0,100.0,6.33443149782
272,3_27_1,27,1.0,988.749792651,3_D,test,02,2,7.0,10011,ignore,0.0,0.0,2.30096442191
273,3_27_1,27,1.0,997.234546318,3_D,test,02,2,8.0,11010,kill,1.0,100.0,6.53506781743
274,3_27_1,27,1.0,1001.98480306,3_D,test,02,2,9.0,11011,kill,1.0,200.0,2.82975339408
275,3_27_1,27,1.0,1014.18853663,3_D,test,02,2,10.0,01001,kill,0.0,100.0,10.2264358084
276,3_27_1,27,1.0,1021.07949858,3_D,test,02,2,11.0,00110,kill,1.0,200.0,4.98690798062
277,3_27_1,27,1.0,1027.73604795,3_D,test,02,2,12.0,11101,ignore,1.0,300.0,4.67072833579
278,3_27_1,27,1.0,1031.89251458,3_D,test,02,2,13.0,00000,ignore,1.0,400.0,2.19171918549
279,3_27_1,27,1.0,1041.09608554,3_D,test,02,2,14.0,01111,kill,0.0,300.0,7.28811422964
280,3_27_1,27,1.0,1048.38080874,3_D,test,02,2,15.0,00001,kill,0.0,200.0,5.33528591085
281,3_27_1,27,1.0,1054.34984333,3_D,test,02,2,16.0,00010,ignore,0.0,100.0,4.08043477563
282,3_27_1,27,1.0,1063.41279278,3_D,test,02,2,17.0,00101,ignore,1.0,200.0,7.05690955217
283,3_27_1,27,1.0,1068.63295969,3_D,test,02,2,18.0,10110,kill,1.0,300.0,3.26481255192
284,3_27_1,27,1.0,1079.52413332,3_D,test,02,2,19.0,01100,kill,0.0,200.0,8.95707697094
285,3_27_1,27,1.0,1084.96189587,3_D,test,02,2,20.0,10101,ignore,1.0,300.0,3.47940941586
286,3_27_1,27,1.0,1089.80587313,3_D,test,02,2,21.0,10100,kill,0.0,200.0,2.93170597159
287,3_27_1,27,1.0,1101.13453958,3_D,test,02,2,22.0,11111,kill,1.0,300.0,9.41338420042
288,3_27_1,27,1.0,1108.60364954,3_D,test,02,2,23.0,10110,ignore,0.0,200.0,5.50967468801
289,3_27_1,27,1.0,1112.1350784,3_D,test,02,2,24.0,10111,kill,1.0,300.0,1.59872736078
290,3_27_1,27,1.0,1118.05724182,3_D,test,02,2,25.0,00000,ignore,1.0,400.0,3.98179369004
291,3_27_1,27,1.0,1124.19812568,3_D,test,02,2,26.0,00111,kill,1.0,500.0,4.1786948392
292,3_27_1,27,1.0,1128.82333952,3_D,test,02,2,27.0,10000,kill,0.0,400.0,2.69765325071
293,3_27_1,27,1.0,1138.4800932,3_D,test,02,2,28.0,10010,kill,1.0,500.0,7.69979537706
294,3_27_1,27,1.0,1144.29287219,3_D,test,02,2,29.0,00100,ignore,1.0,600.0,3.89188435917
295,3_27_1,27,1.0,1153.65581235,3_D,test,02,2,30.0,11011,kill,1.0,700.0,7.38822872868
296,3_27_1,27,1.0,1160.20299045,3_D,test,02,2,31.0,01010,kill,0.0,600.0,4.58331136363
297,3_27_1,27,1.0,1168.75030613,3_D,test,02,2,32.0,11100,kill,0.0,500.0,6.63794921631
298,3_27_1,27,1.0,1174.45369749,3_D,test,02,2,33.0,00101,ignore,1.0,600.0,3.71867296572
299,3_27_1,27,1.0,1186.57931673,3_D,test,02,2,34.0,01011,kill,0.0,500.0,10.2251371904
300,3_27_1,27,1.0,1192.40767657,3_D,test,02,2,35.0,00001,ignore,1.0,600.0,3.83827026264
301,3_27_1,27,1.0,1197.81418056,3_D,test,02,2,36.0,01101,ignore,1.0,700.0,3.43357548117
302,3_27_1,27,1.0,1202.7206666,3_D,test,02,2,37.0,11110,kill,1.0,800.0,3.00798927493
303,3_27_1,27,1.0,1217.87768519,3_D,test,02,2,38.0,10100,ignore,1.0,900.0,13.1969694637
304,3_27_1,27,1.0,1224.79988326,3_D,test,02,2,39.0,10011,kill,1.0,1000.0,5.02935858085
305,3_27_1,27,1.0,1230.42514777,3_D,test,02,2,40.0,11001,kill,0.0,900.0,3.7227654245
306,3_27_1,27,1.0,1237.31610427,3_D,test,02,2,41.0,11101,ignore,1.0,1000.0,4.94764475149
307,3_27_1,27,1.0,1245.11361737,3_D,test,02,2,42.0,00010,kill,1.0,1100.0,5.90049487961
308,3_27_1,27,1.0,1250.00448118,3_D,test,02,2,43.0,10001,ignore,1.0,1200.0,2.99861125811
309,3_27_1,27,1.0,1253.84841546,3_D,test,02,2,44.0,11010,kill,1.0,1300.0,1.97615822036
310,3_27_1,27,1.0,1256.89540368,3_D,test,02,2,45.0,10101,ignore,1.0,1400.0,1.12888230332
311,3_27_1,27,1.0,1259.61430244,3_D,test,02,2,46.0,00011,kill,1.0,1500.0,0.763652808113
312,3_27_1,27,1.0,1262.36444757,3_D,test,02,2,47.0,01100,ignore,1.0,1600.0,0.87156607108
313,3_27_1,27,1.0,1265.1927051,3_D,test,02,2,48.0,11111,kill,1.0,1700.0,0.926460504244
314,3_27_1,27,1.0,1267.7865911,3_D,test,02,2,49.0,00110,kill,1.0,1800.0,0.640742415642
315,3_27_1,27,1.0,1270.39607913,3_D,test,02,2,50.0,01000,kill,0.0,1700.0,0.688676782353
316,3_27_1,27,1.0,1276.66197894,3_D,test,02,2,51.0,01110,kill,0.0,1600.0,4.31680698412
317,3_27_1,27,1.0,1279.59963405,3_D,test,02,2,52.0,01001,kill,0.0,1500.0,1.04774064844
318,3_27_1,27,1.0,1282.97482144,3_D,test,02,2,53.0,11000,ignore,1.0,1600.0,1.39584499973
319,3_27_1,27,1.0,1287.45941089,3_D,test,02,2,54.0,01111,kill,0.0,1500.0,2.5397488077
320,3_27_1,27,1.0,1293.89721225,3_D,test,02,2,55.0,11011,kill,1.0,1600.0,4.53497256192
321,3_27_1,27,1.0,1297.78801256,3_D,test,02,2,56.0,00001,ignore,1.0,1700.0,1.91734035081
322,3_27_1,27,1.0,1308.74167124,3_D,test,02,2,57.0,01111,ignore,1.0,1800.0,9.06563168512
323,3_27_1,27,1.0,1313.94502731,3_D,test,02,2,58.0,10010,kill,1.0,1900.0,3.21527744369
324,3_27_1,27,1.0,1317.52646082,3_D,test,02,2,59.0,10110,ignore,0.0,1800.0,1.66006196419
325,3_27_1,27,1.0,1323.18298037,3_D,test,02,2,60.0,10011,kill,1.0,1900.0,3.75573954515
326,3_27_1,27,1.0,1326.77691802,3_D,test,02,2,61.0,01101,ignore,1.0,2000.0,1.64309397581
327,3_27_1,27,1.0,1332.77721629,3_D,test,02,2,62.0,01001,ignore,1.0,2100.0,4.09899580812
328,3_27_1,27,1.0,1340.71511419,3_D,test,02,2,63.0,11000,kill,0.0,2000.0,6.02926909841
329,3_27_1,27,1.0,1344.6840362,3_D,test,02,2,64.0,01100,ignore,1.0,2100.0,2.02385781593
330,3_27_1,27,1.0,1350.63743606,3_D,test,02,3,0.0,11110,kill,0.0,2000.0,4.08953793062
331,3_27_1,27,1.0,1355.87209302,3_D,test,02,3,1.0,00101,ignore,1.0,2100.0,3.31655906323
332,3_27_1,27,1.0,1360.90384325,3_D,test,02,3,2.0,11101,ignore,1.0,2200.0,3.08615555834
333,3_27_1,27,1.0,1364.06026434,3_D,test,02,3,3.0,10101,ignore,1.0,2300.0,1.24123216365
334,3_27_1,27,1.0,1374.18584991,3_D,test,02,3,4.0,10001,ignore,1.0,2400.0,8.18332739991
335,3_27_1,27,1.0,1395.37435799,3_D,test,02,3,5.0,11111,ignore,1.0,2500.0,19.3175921204
336,3_27_1,27,1.0,1399.28082574,3_D,test,02,3,6.0,11001,kill,0.0,2400.0,1.94543238623
337,3_27_1,27,1.0,1404.51433419,3_D,test,02,3,7.0,10111,ignore,1.0,2500.0,3.28259005173
338,3_27_1,27,1.0,1411.60844952,3_D,test,02,3,8.0,00011,ignore,1.0,2600.0,5.18298807221
339,3_27_1,27,1.0,1420.32889898,3_D,test,02,3,9.0,01011,ignore,1.0,2700.0,6.77973270728
340,3_27_1,27,1.0,1424.76663908,3_D,test,02,3,10.0,00110,ignore,1.0,2800.0,2.54587562902
341,3_27_1,27,1.0,1429.11055508,3_D,test,02,3,11.0,00000,kill,1.0,2900.0,2.3616187663
342,3_27_1,27,1.0,1433.98580501,3_D,test,02,3,12.0,00010,ignore,0.0,2800.0,2.9375758917
343,3_27_1,27,1.0,1439.37670442,3_D,test,02,3,13.0,11100,ignore,0.0,2700.0,3.50892675589
344,3_27_1,27,1.0,1444.751929,3_D,test,02,3,14.0,00111,ignore,1.0,2800.0,3.42239915585
345,3_27_1,27,1.0,1449.03340453,3_D,test,02,3,15.0,01110,ignore,1.0,2900.0,2.422808081
346,3_27_1,27,1.0,1457.36195425,3_D,test,02,3,16.0,10100,kill,1.0,3000.0,6.38933972219
347,3_27_1,27,1.0,1461.73712816,3_D,test,02,3,17.0,01010,ignore,0.0,2900.0,2.44147142495
348,3_27_1,27,1.0,1469.22192769,3_D,test,02,3,18.0,11010,ignore,0.0,2800.0,5.62610834753
349,3_27_1,27,1.0,1474.44090342,3_D,test,02,3,19.0,01000,ignore,0.0,2700.0,3.32724499909
350,3_27_1,27,1.0,1478.55045912,3_D,test,02,3,20.0,00100,ignore,0.0,2600.0,2.13561369242
351,3_27_1,27,1.0,1482.67565564,3_D,test,02,3,21.0,10000,kill,1.0,2700.0,2.22625588131
352,3_27_1,27,1.0,1489.61349774,3_D,test,02,3,22.0,11001,ignore,1.0,2800.0,5.00862848107
353,3_27_1,27,1.0,1493.31681147,3_D,test,02,3,23.0,00100,kill,1.0,2900.0,1.82372311117
354,3_27_1,27,1.0,1498.66077365,3_D,test,02,3,24.0,11011,kill,0.0,2800.0,3.45650447573
355,3_27_1,27,1.0,1505.05172598,3_D,test,02,3,25.0,10101,ignore,1.0,2900.0,4.43598124397
356,3_27_1,27,1.0,1510.1769703,3_D,test,02,3,26.0,01001,ignore,1.0,3000.0,3.19240329321
357,3_27_1,27,1.0,1514.55217051,3_D,test,02,3,27.0,00010,ignore,0.0,2900.0,2.43864134217
358,3_27_1,27,1.0,1521.08376872,3_D,test,02,3,28.0,11100,ignore,0.0,2800.0,4.65512054472
359,3_27_1,27,1.0,1533.05312595,3_D,test,02,3,29.0,00110,kill,0.0,2700.0,10.0168162852
360,3_27_1,27,1.0,1540.13149942,3_D,test,02,3,30.0,01111,kill,0.0,2600.0,5.14541987793
361,3_27_1,27,1.0,1548.99136607,3_D,test,02,3,31.0,11010,ignore,0.0,2500.0,6.97076201198
362,3_27_1,27,1.0,1553.36655922,3_D,test,02,3,32.0,11101,ignore,1.0,2600.0,2.43889792266
363,3_27_1,27,1.0,1560.11687017,3_D,test,02,3,33.0,10011,ignore,1.0,2700.0,4.87115842883
364,3_27_1,27,1.0,1566.7890825,3_D,test,02,3,34.0,01110,kill,0.0,2600.0,4.72901315937
365,3_27_1,27,1.0,1572.13303955,3_D,test,02,3,35.0,11111,ignore,1.0,2700.0,3.42532545631
366,3_27_1,27,1.0,1580.53970808,3_D,test,02,3,36.0,00011,ignore,1.0,2800.0,6.52942144308
367,3_27_1,27,1.0,1584.82117559,3_D,test,02,3,37.0,00111,ignore,1.0,2900.0,2.33595526519
368,3_27_1,27,1.0,1589.79019414,3_D,test,02,3,38.0,10010,kill,1.0,3000.0,3.10052053766
369,3_27_1,27,1.0,1593.41537045,3_D,test,02,3,39.0,10001,ignore,1.0,3100.0,1.72764494392
370,3_27_1,27,1.0,1596.462376,3_D,test,02,3,40.0,01101,ignore,1.0,3200.0,1.10668680823
371,3_27_1,27,1.0,1599.63437633,3_D,test,02,3,41.0,10110,kill,0.0,3100.0,1.30553893128
372,3_27_1,27,1.0,1609.80676122,3_D,test,02,3,42.0,10100,kill,1.0,3200.0,8.25425522702
373,3_27_1,27,1.0,1612.40495746,3_D,test,02,3,43.0,10111,ignore,1.0,3300.0,0.677575186102
374,3_27_1,27,1.0,1615.17071358,3_D,test,02,3,44.0,01100,kill,1.0,3400.0,0.852945383635
375,3_27_1,27,1.0,1618.53026078,3_D,test,02,3,45.0,00001,kill,0.0,3300.0,1.42729054212
376,3_27_1,27,1.0,1622.27125593,3_D,test,02,3,46.0,01011,ignore,1.0,3400.0,1.89323782124
377,3_27_1,27,1.0,1630.66225893,3_D,test,02,3,47.0,11000,kill,1.0,3500.0,6.46536163416
378,3_27_1,27,1.0,1635.09999904,3_D,test,02,3,48.0,00000,kill,1.0,3600.0,2.50692831462
379,3_27_1,27,1.0,1637.7719936,3_D,test,02,3,49.0,01000,kill,1.0,3700.0,0.800626377117
380,3_27_1,27,1.0,1640.41274852,3_D,test,02,3,50.0,10000,kill,1.0,3800.0,0.705149249661
381,3_27_1,27,1.0,1644.06918116,3_D,test,02,3,51.0,11110,ignore,1.0,3900.0,1.82561058138
382,3_27_1,27,1.0,1646.92868442,3_D,test,02,3,52.0,01010,ignore,0.0,3800.0,0.927947708897
383,3_27_1,27,1.0,1652.66331861,3_D,test,02,3,53.0,00101,ignore,1.0,3900.0,3.79476287152
384,3_27_1,27,1.0,1655.86656339,3_D,test,02,3,54.0,11111,ignore,1.0,4000.0,1.31554941901
385,3_27_1,27,1.0,1662.89818084,3_D,test,02,3,55.0,00110,ignore,1.0,4100.0,5.07021517481
386,3_27_1,27,1.0,1665.99211464,3_D,test,02,3,56.0,11110,ignore,1.0,4200.0,1.23510854958
387,3_27_1,27,1.0,1669.55478058,3_D,test,02,3,57.0,10001,ignore,1.0,4300.0,1.63451745229
388,3_27_1,27,1.0,1674.53938575,3_D,test,02,3,58.0,10010,ignore,0.0,4200.0,3.04015195979
389,3_27_1,27,1.0,1679.30523745,3_D,test,02,3,59.0,00001,ignore,1.0,4300.0,2.88724570469
390,3_27_1,27,1.0,1682.07100929,3_D,test,02,3,60.0,11101,ignore,1.0,4400.0,0.884735385334
391,3_27_1,27,1.0,1686.07120044,3_D,test,02,3,61.0,01010,kill,1.0,4500.0,2.05773798642
392,3_27_1,27,1.0,1689.91511067,3_D,test,02,3,62.0,01011,ignore,1.0,4600.0,1.93591645739
393,3_27_1,27,1.0,1694.39972386,3_D,test,02,3,63.0,11000,kill,1.0,4700.0,2.55387901589
394,3_27_1,27,1.0,1697.1498924,3_D,test,02,3,64.0,01000,kill,1.0,4800.0,0.90209946984
395,3_27_1,27,1.0,1699.68127347,3_D,test,02,3,65.0,11011,ignore,1.0,4900.0,0.644559691846
396,3_27_1,27,1.0,1702.41576046,3_D,test,02,3,66.0,10011,ignore,1.0,5000.0,0.78699008637
397,3_27_1,27,1.0,1712.38501602,3_D,test,02,3,67.0,11010,kill,1.0,5100.0,8.05281869702
398,3_27_1,27,1.0,1715.21326008,3_D,test,02,3,68.0,01001,ignore,1.0,5200.0,0.876610764193
399,3_27_1,27,1.0,1717.77586732,3_D,test,02,4,0.0,01111,ignore,1.0,5300.0,0.708826689504
400,3_27_1,27,1.0,1720.57288169,3_D,test,02,4,1.0,01101,ignore,1.0,5400.0,0.840149714717
401,3_27_1,27,1.0,1723.27613352,3_D,test,02,4,2.0,10111,ignore,0.0,5300.0,0.7670640457
402,3_27_1,27,1.0,1728.08890354,3_D,test,02,4,3.0,10000,kill,1.0,5400.0,2.91492304189
403,3_27_1,27,1.0,1732.16721511,3_D,test,02,4,4.0,10110,ignore,0.0,5300.0,2.12352233693
404,3_27_1,27,1.0,1735.69862441,3_D,test,02,4,5.0,00000,kill,0.0,5200.0,1.6730228068
405,3_27_1,27,1.0,1740.05822324,3_D,test,02,4,6.0,01110,ignore,1.0,5300.0,2.40520120721
406,3_27_1,27,1.0,1743.68335723,3_D,test,02,4,7.0,00011,ignore,1.0,5400.0,1.67543305975
407,3_27_1,27,1.0,1752.04627782,3_D,test,02,4,8.0,11100,kill,0.0,5300.0,6.49044879134
408,3_27_1,27,1.0,1754.98391176,3_D,test,02,4,9.0,11001,ignore,0.0,5200.0,1.00281917811
409,3_27_1,27,1.0,1759.01853056,3_D,test,02,4,10.0,10100,ignore,0.0,5100.0,2.16601815949
410,3_27_1,27,1.0,1763.64372613,3_D,test,02,4,11.0,00010,kill,0.0,5000.0,2.70335767641
411,3_27_1,27,1.0,1771.84724224,3_D,test,02,4,12.0,01100,kill,0.0,4900.0,6.28182800769
412,3_27_1,27,1.0,1775.13183105,3_D,test,02,4,13.0,10101,ignore,0.0,4800.0,1.41389992719
413,3_27_1,27,1.0,1783.16342798,3_D,test,02,4,14.0,00111,kill,0.0,4700.0,6.1352977777
414,3_27_1,27,1.0,1786.72612727,3_D,test,02,4,15.0,00101,kill,0.0,4600.0,1.62900802776
415,3_27_1,27,1.0,1790.52313426,3_D,test,02,4,16.0,00100,ignore,1.0,4700.0,1.86013637253
416,3_27_1,27,1.0,1795.83592448,3_D,test,02,4,17.0,01111,kill,0.0,4600.0,3.37685996799
417,3_27_1,27,1.0,1800.58616646,3_D,test,02,4,18.0,10001,ignore,0.0,4500.0,2.89137825416
418,3_27_1,27,1.0,1804.36755476,3_D,test,02,4,19.0,00110,ignore,1.0,4600.0,1.82999971135
419,3_27_1,27,1.0,1807.61774447,3_D,test,02,4,20.0,11100,ignore,1.0,4700.0,1.3169019189
420,3_27_1,27,1.0,1810.21159648,3_D,test,02,4,21.0,11110,ignore,1.0,4800.0,0.73100165815
421,3_27_1,27,1.0,1815.55563242,3_D,test,02,4,22.0,00111,ignore,1.0,4900.0,3.39812600026
422,3_27_1,27,1.0,1818.91827623,3_D,test,02,4,23.0,10011,kill,1.0,5000.0,1.50297761656
423,3_27_1,27,1.0,1821.96530326,3_D,test,02,4,24.0,01101,ignore,1.0,5100.0,1.0819396202
424,3_27_1,27,1.0,1826.33117164,3_D,test,02,4,25.0,11111,ignore,0.0,5000.0,2.462921233
425,3_27_1,27,1.0,1832.45646406,3_D,test,02,4,26.0,01000,ignore,1.0,5100.0,4.23866186861
426,3_27_1,27,1.0,1835.42533732,3_D,test,02,4,27.0,00000,ignore,1.0,5200.0,1.01844332618
427,3_27_1,27,1.0,1838.61300446,3_D,test,02,4,28.0,01100,kill,0.0,5100.0,1.32432350951
428,3_27_1,27,1.0,1841.61313403,3_D,test,02,4,29.0,00100,ignore,1.0,5200.0,1.07161802863
429,3_27_1,27,1.0,1845.01952898,3_D,test,02,4,30.0,11000,ignore,1.0,5300.0,1.45244729676
430,3_27_1,27,1.0,1851.87925162,3_D,test,02,4,31.0,00101,ignore,1.0,5400.0,4.98849364803
431,3_27_1,27,1.0,1858.03578336,3_D,test,02,4,32.0,01001,ignore,1.0,5500.0,4.26811506352
432,3_27_1,27,1.0,1864.00482435,3_D,test,02,4,33.0,11011,ignore,0.0,5400.0,4.03877380185
433,3_27_1,27,1.0,1866.66122395,3_D,test,02,4,34.0,00010,kill,0.0,5300.0,0.732025414298
434,3_27_1,27,1.0,1870.19263774,3_D,test,02,4,35.0,11001,ignore,0.0,5200.0,1.60732088277
435,3_27_1,27,1.0,1877.08361188,3_D,test,02,4,36.0,10110,ignore,0.0,5100.0,5.04226329648
436,3_27_1,27,1.0,1883.66203795,3_D,test,02,4,37.0,01010,ignore,1.0,5200.0,4.71240149715
437,3_27_1,27,1.0,1886.80280314,3_D,test,02,4,38.0,01011,ignore,1.0,5300.0,1.20972151395
438,3_27_1,27,1.0,1890.09987171,3_D,test,02,4,39.0,00001,kill,0.0,5200.0,1.3697741771
439,3_27_1,27,1.0,1893.28748593,3_D,test,02,4,40.0,10111,kill,1.0,5300.0,1.25104668803
440,3_27_1,27,1.0,1896.80639591,3_D,test,02,4,41.0,11010,kill,0.0,5200.0,1.69261817937
441,3_27_1,27,1.0,1901.63476441,3_D,test,02,4,42.0,11101,ignore,0.0,5100.0,2.88862835279
442,3_27_1,27,1.0,1906.38497946,3_D,test,02,4,43.0,01110,ignore,1.0,5200.0,2.80374639585
443,3_27_1,27,1.0,1910.1663979,3_D,test,02,4,44.0,10100,kill,1.0,5300.0,1.89216531481
444,3_27_1,27,1.0,1913.68222795,3_D,test,02,4,45.0,10000,ignore,0.0,5200.0,1.56751691026
445,3_27_1,27,1.0,1917.01050922,3_D,test,02,4,46.0,10101,kill,1.0,5300.0,1.45946445237
446,3_27_1,27,1.0,1923.26078296,3_D,test,02,4,47.0,10010,ignore,0.0,5200.0,4.28805393322
447,3_27_1,27,1.0,1929.40174539,3_D,test,02,4,48.0,00011,ignore,1.0,5300.0,4.18547722367
448,3_27_1,27,1.0,1936.82393062,3_D,test,02,4,49.0,11011,kill,1.0,5400.0,5.5375396497
449,3_27_1,27,1.0,1945.85562248,3_D,test,02,4,50.0,10001,ignore,0.0,5300.0,7.09615963155
450,3_27_1,27,1.0,1950.05897342,3_D,test,02,4,51.0,11010,kill,0.0,5200.0,2.38015093347
451,3_27_1,27,1.0,1955.01232901,3_D,test,02,4,52.0,10111,kill,1.0,5300.0,3.04521974515
452,3_27_1,27,1.0,1958.43434971,3_D,test,02,4,53.0,11110,ignore,1.0,5400.0,1.49911126934
453,3_27_1,27,1.0,1961.57514216,3_D,test,02,4,54.0,00100,ignore,1.0,5500.0,1.2655761996
454,3_27_1,27,1.0,1964.80967405,3_D,test,02,4,55.0,11001,kill,1.0,5600.0,1.35307880549
455,3_27_1,27,1.0,1967.79418364,3_D,test,02,4,56.0,00001,ignore,1.0,5700.0,1.05083051897
456,3_27_1,27,1.0,1971.06001321,3_D,test,02,4,57.0,01000,ignore,1.0,5800.0,1.36169221246
457,3_27_1,27,1.0,1974.3726482,3_D,test,02,4,58.0,10011,kill,1.0,5900.0,1.37163919652
458,3_27_1,27,1.0,1979.6542363,3_D,test,02,4,59.0,11000,ignore,1.0,6000.0,3.43226659995
459,3_27_1,27,1.0,1985.09203029,3_D,test,02,4,60.0,01010,ignore,1.0,6100.0,3.49264223379
460,3_27_1,27,1.0,1988.63903199,3_D,test,02,4,61.0,11100,ignore,1.0,6200.0,1.62337608606
461,3_27_1,27,1.0,1991.79546205,3_D,test,02,5,0.0,11101,kill,0.0,6100.0,1.26442736046
462,3_27_1,27,1.0,1995.31125298,3_D,test,02,5,1.0,00010,ignore,0.0,6000.0,1.59004531853
463,3_27_1,27,1.0,2002.13969589,3_D,test,02,5,2.0,00101,kill,0.0,5900.0,4.95296591007
464,3_27_1,27,1.0,2009.5931942,3_D,test,02,5,3.0,00011,ignore,0.0,5800.0,5.51113751752
465,3_27_1,27,1.0,2014.03092436,3_D,test,02,5,4.0,11111,ignore,0.0,5700.0,2.52033304147
466,3_27_1,27,1.0,2016.9560747,3_D,test,02,5,5.0,01111,kill,0.0,5600.0,1.06934472551
467,3_27_1,27,1.0,2023.42508363,3_D,test,02,5,6.0,01110,ignore,1.0,5700.0,4.54753891204
468,3_27_1,27,1.0,2026.84715276,3_D,test,02,5,7.0,01011,kill,0.0,5600.0,1.5672093344
469,3_27_1,27,1.0,2030.45671648,3_D,test,02,5,8.0,01001,kill,0.0,5500.0,1.7461646028
470,3_27_1,27,1.0,2035.9882438,3_D,test,02,5,9.0,00000,ignore,1.0,5600.0,3.59657817847
471,3_27_1,27,1.0,2044.91050441,3_D,test,02,5,10.0,10100,kill,0.0,5500.0,7.05373212356
472,3_27_1,27,1.0,2048.47315815,3_D,test,02,5,11.0,10101,kill,0.0,5400.0,1.71448910014
473,3_27_1,27,1.0,2052.31713605,3_D,test,02,5,12.0,10110,ignore,0.0,5300.0,1.98505482804
474,3_27_1,27,1.0,2056.25479308,3_D,test,02,5,13.0,01101,ignore,1.0,5400.0,2.01780379931
475,3_27_1,27,1.0,2059.83309022,3_D,test,02,5,14.0,00111,kill,1.0,5500.0,1.63975169423
476,3_27_1,27,1.0,2062.78636756,3_D,test,02,5,15.0,01100,ignore,1.0,5600.0,1.09736074896
477,3_27_1,27,1.0,2065.39589022,3_D,test,02,5,16.0,10010,kill,1.0,5700.0,0.71969704259
478,3_27_1,27,1.0,2068.42728381,3_D,test,02,5,17.0,00110,kill,1.0,5800.0,1.08285336746
479,3_27_1,27,1.0,2071.11492208,3_D,test,02,5,18.0,10000,ignore,1.0,5900.0,0.768331232579
480,3_27_1,27,1.0,2073.94315363,3_D,test,02,5,19.0,10000,ignore,1.0,6000.0,0.889389113931
481,3_27_1,27,1.0,2076.54011123,3_D,test,02,5,20.0,01000,ignore,1.0,6100.0,0.737944726148
482,3_27_1,27,1.0,2079.14958258,3_D,test,02,5,21.0,11100,ignore,1.0,6200.0,0.668085556765
483,3_27_1,27,1.0,2081.63406587,3_D,test,02,5,22.0,00100,ignore,1.0,6300.0,0.545379466505
484,3_27_1,27,1.0,2084.05610036,3_D,test,02,6,0.0,00000,ignore,0.0,6200.0,0.542552590981
485,3_27_1,27,1.0,2089.27520887,3_D,test,02,6,1.0,00001,kill,0.0,6100.0,3.29781265134
486,3_27_1,27,1.0,2094.90051444,3_D,test,02,6,2.0,00101,kill,0.0,6000.0,3.75158133762
487,3_27_1,27,1.0,2098.29127915,3_D,test,02,6,3.0,01010,kill,1.0,6100.0,1.45565294923
488,3_27_1,27,1.0,2101.49456114,3_D,test,02,6,4.0,01101,ignore,1.0,6200.0,1.26095614719
489,3_27_1,27,1.0,2106.68232802,3_D,test,02,6,5.0,00110,ignore,1.0,6300.0,3.30884561231
490,3_27_1,27,1.0,2109.47931608,3_D,test,02,6,6.0,11110,ignore,1.0,6400.0,0.871100698219
491,3_27_1,27,1.0,2112.38590956,3_D,test,02,6,7.0,01111,ignore,1.0,6500.0,1.04833270792
492,3_27_1,27,1.0,2116.22983358,3_D,test,02,6,8.0,11011,kill,0.0,6400.0,1.93504183865
493,3_27_1,27,1.0,2124.65211086,3_D,test,02,6,9.0,11000,kill,1.0,6500.0,6.5057483651
494,3_27_1,27,1.0,2128.73043462,3_D,test,02,6,10.0,01110,ignore,1.0,6600.0,2.24571366259
495,3_27_1,27,1.0,2132.52751345,3_D,test,02,6,11.0,10010,kill,1.0,6700.0,1.92572540115
496,3_27_1,27,1.0,2136.40266747,3_D,test,02,6,12.0,10011,kill,0.0,6600.0,1.94452505348
497,3_27_1,27,1.0,2143.68619084,3_D,test,02,6,13.0,10001,ignore,1.0,6700.0,5.37115201432
498,3_27_1,27,1.0,2150.56151421,3_D,test,02,6,14.0,00010,kill,1.0,6800.0,4.94507124919
499,3_27_1,27,1.0,2153.81165004,3_D,test,02,6,15.0,11111,kill,0.0,6700.0,1.41213786069
500,3_27_1,27,1.0,2157.43683758,3_D,test,02,6,16.0,11010,kill,1.0,6800.0,1.68418053003
501,3_27_1,27,1.0,2160.67137941,3_D,test,02,6,17.0,11001,ignore,1.0,6900.0,1.2963956856
502,3_27_1,27,1.0,2164.10904542,3_D,test,02,6,18.0,11101,ignore,1.0,7000.0,1.56709611826
