,unique_id,pair_id,sbj_id,wall_time,condition,block,rule_id,rule_num,trial,stimulus,choice,correct,points,reaction_time
0,1_19_1,19,1.0,42.5937839328,1_I,training,05,1_A,1.0,11100,kill,0.0,0.0,2.76398682859
1,1_19_1,19,1.0,46.9564929485,1_I,training,05,1_A,2.0,01000,ignore,0.0,0.0,2.12379997217
2,1_19_1,19,1.0,50.8820997413,1_I,training,05,1_A,3.0,00110,ignore,0.0,0.0,1.76627758088
3,1_19_1,19,1.0,55.0010764073,1_I,training,05,1_A,4.0,10010,ignore,0.0,0.0,1.96810353215
4,1_19_1,19,1.0,58.3950073916,1_I,training,05,1_A,5.0,10110,kill,0.0,0.0,1.22258845978
5,1_19_1,19,1.0,62.4421336674,1_I,training,05,1_A,6.0,01100,ignore,0.0,0.0,1.90538864583
6,1_19_1,19,1.0,67.2079884034,1_I,training,05,1_A,7.0,00111,ignore,1.0,100.0,2.57763659226
7,1_19_1,19,1.0,72.4426382077,1_I,training,05,1_A,8.0,10100,ignore,1.0,200.0,3.03969693101
8,1_19_1,19,1.0,76.0677680888,1_I,training,05,1_A,9.0,11010,kill,1.0,300.0,1.48275510996
9,1_19_1,19,1.0,79.1773169543,1_I,training,05,1_A,10.0,00000,kill,1.0,400.0,0.92958481962
10,1_19_1,19,1.0,83.021220659,1_I,training,05,1_A,11.0,10011,kill,0.0,300.0,1.67463106777
11,1_19_1,19,1.0,86.8808069852,1_I,training,05,1_A,12.0,10001,ignore,1.0,400.0,1.67727815932
12,1_19_1,19,1.0,91.2404000852,1_I,training,05,1_A,13.0,11000,kill,1.0,500.0,2.19383992896
13,1_19_1,19,1.0,94.3186986556,1_I,training,05,1_A,14.0,10000,kill,1.0,600.0,0.906387463097
14,1_19_1,19,1.0,99.8970503896,1_I,training,05,1_A,15.0,01101,ignore,1.0,700.0,3.37343901447
15,1_19_1,19,1.0,103.631640462,1_I,training,05,1_A,16.0,11011,ignore,1.0,800.0,1.58897868985
16,1_19_1,19,1.0,107.116171521,1_I,training,05,1_A,17.0,11101,ignore,1.0,900.0,1.34283201848
17,1_19_1,19,1.0,111.335134598,1_I,training,05,1_A,18.0,00011,ignore,1.0,1000.0,2.07027272679
18,1_19_1,19,1.0,114.897820132,1_I,training,05,1_A,19.0,00010,kill,1.0,1100.0,1.42776268627
19,1_19_1,19,1.0,118.085422482,1_I,training,05,1_A,20.0,10101,ignore,1.0,1200.0,1.03852651258
20,1_19_1,19,1.0,121.007453156,1_I,training,05,1_A,21.0,01001,ignore,1.0,1300.0,0.798317733912
21,1_19_1,19,1.0,123.851361376,1_I,training,05,1_A,22.0,01111,ignore,1.0,1400.0,0.708031714194
22,1_19_1,19,1.0,126.554617816,1_I,training,05,1_A,23.0,00101,ignore,1.0,1500.0,0.554205644694
23,1_19_1,19,1.0,129.273482572,1_I,training,05,1_A,24.0,00001,ignore,1.0,1600.0,0.558614727073
24,1_19_1,19,1.0,131.976762822,1_I,training,05,1_A,25.0,11111,ignore,1.0,1700.0,0.597474589276
25,1_19_1,19,1.0,134.49250846,1_I,training,05,1_A,26.0,10111,ignore,1.0,1800.0,0.37331216098
26,1_19_1,19,1.0,137.727060969,1_I,training,05,1_A,27.0,00100,kill,1.0,1900.0,1.06645932211
27,1_19_1,19,1.0,141.039714994,1_I,training,05,1_A,28.0,01010,kill,1.0,2000.0,1.18308283533
28,1_19_1,19,1.0,143.680438002,1_I,training,05,1_A,29.0,11001,ignore,1.0,2100.0,0.524661097976
29,1_19_1,19,1.0,147.32124722,1_I,training,05,1_A,30.0,01110,kill,1.0,2200.0,1.49721846018
30,1_19_1,19,1.0,151.399576991,1_I,training,05,1_A,31.0,11110,ignore,1.0,2300.0,1.96013064678
31,1_19_1,19,1.0,154.180996527,1_I,training,05,1_A,32.0,01011,ignore,1.0,2400.0,0.640848629304
32,1_19_1,19,1.0,156.852973113,1_I,training,05,1_A,33.0,11001,ignore,1.0,2500.0,0.519335714675
33,1_19_1,19,1.0,159.540614669,1_I,training,05,1_A,34.0,10101,ignore,1.0,2600.0,0.517079036292
34,1_19_1,19,1.0,162.446983658,1_I,training,05,1_A,35.0,10111,ignore,1.0,2700.0,0.759645072974
35,1_19_1,19,1.0,165.994027623,1_I,training,05,1_A,36.0,11110,ignore,1.0,2800.0,1.42362373203
36,1_19_1,19,1.0,168.994210308,1_I,training,05,1_A,37.0,00010,kill,1.0,2900.0,0.839208072972
37,1_19_1,19,1.0,171.728686664,1_I,training,05,1_A,38.0,11101,ignore,1.0,3000.0,0.575676726408
38,1_19_1,19,1.0,174.369474125,1_I,training,05,1_A,39.0,10011,ignore,1.0,3100.0,0.478476986356
39,1_19_1,19,1.0,177.400853326,1_I,training,05,1_A,40.0,10001,ignore,1.0,3200.0,0.871437890439
40,1_19_1,19,1.0,179.932220006,1_I,training,05,1_A,41.0,01011,ignore,1.0,3300.0,0.384423951744
41,1_19_1,19,1.0,183.244870747,1_I,training,05,1_A,42.0,11000,kill,1.0,3400.0,1.15572558758
42,1_19_1,19,1.0,185.698136321,1_I,training,05,1_A,43.0,11010,ignore,0.0,3300.0,0.301952763703
43,1_19_1,19,1.0,188.307658297,1_I,training,05,1_A,44.0,01001,ignore,1.0,3400.0,0.45528168248
44,1_19_1,19,1.0,191.854708009,1_I,training,05,1_A,45.0,01010,kill,1.0,3500.0,1.39778051555
45,1_19_1,19,1.0,194.52668747,1_I,training,05,1_A,46.0,00101,ignore,1.0,3600.0,0.512256140591
46,1_19_1,19,1.0,197.229922562,1_I,training,05,1_A,47.0,01111,ignore,1.0,3700.0,0.570572207756
47,1_19_1,19,1.0,200.308230574,1_I,training,05,1_A,48.0,01000,kill,1.0,3800.0,0.9380630663
48,1_19_1,19,1.0,204.042774257,1_I,training,05,1_A,49.0,01110,kill,1.0,3900.0,1.60416498179
49,1_19_1,19,1.0,208.136746417,1_I,training,05,1_A,50.0,10000,kill,1.0,4000.0,1.95009690539
50,1_19_1,19,1.0,211.12123786,1_I,training,05,1_A,51.0,00001,ignore,1.0,4100.0,0.843442269963
51,1_19_1,19,1.0,215.355849075,1_I,training,05,1_A,52.0,00100,kill,1.0,4200.0,2.05582456614
52,1_19_1,19,1.0,218.543520394,1_I,training,05,1_A,53.0,00111,ignore,1.0,4300.0,1.01715847367
53,1_19_1,19,1.0,221.434227698,1_I,training,05,1_A,54.0,00000,kill,1.0,4400.0,0.723016025824
54,1_19_1,19,1.0,227.262695099,1_I,training,05,1_A,55.0,10010,ignore,0.0,4300.0,3.6961559288
55,1_19_1,19,1.0,229.872173148,1_I,training,05,1_A,56.0,11011,ignore,1.0,4400.0,0.480792780927
56,1_19_1,19,1.0,233.028542035,1_I,training,05,1_A,57.0,00110,kill,1.0,4500.0,1.01422113806
57,1_19_1,19,1.0,236.372464829,1_I,training,05,1_A,58.0,10110,ignore,1.0,4600.0,1.18437271771
58,1_19_1,19,1.0,239.575768274,1_I,training,05,1_A,59.0,11100,ignore,1.0,4700.0,1.05911906205
59,1_19_1,19,1.0,242.482155327,1_I,training,05,1_A,60.0,11111,ignore,1.0,4800.0,0.756162554739
60,1_19_1,19,1.0,245.372919695,1_I,training,05,1_A,61.0,01100,kill,1.0,4900.0,0.734263291186
61,1_19_1,19,1.0,249.779398912,1_I,training,05,1_A,62.0,10100,ignore,1.0,5000.0,2.24375287627
62,1_19_1,19,1.0,252.545128436,1_I,training,05,1_A,63.0,00011,ignore,1.0,5100.0,0.606765683546
63,1_19_1,19,1.0,255.232790108,1_I,training,05,1_A,64.0,01101,ignore,1.0,5200.0,0.531805535657
64,1_19_1,19,1.0,258.295435204,1_I,training,05,1_A,65.0,11110,ignore,1.0,5300.0,0.916094833861
65,1_19_1,19,1.0,261.576829492,1_I,training,05,1_A,66.0,11000,kill,1.0,5400.0,1.14213584325
66,1_19_1,19,1.0,264.217575489,1_I,training,05,1_A,67.0,00101,ignore,1.0,5500.0,0.475804852535
67,1_19_1,19,1.0,267.249011754,1_I,training,05,1_A,68.0,10010,kill,1.0,5600.0,0.884908581331
68,1_19_1,19,1.0,269.733479181,1_I,training,05,1_A,69.0,01111,ignore,1.0,5700.0,0.358813094728
69,1_19_1,19,1.0,272.296120788,1_I,training,05,1_A,70.0,10111,ignore,1.0,5800.0,0.401839416621
70,1_19_1,19,1.0,275.624388055,1_I,training,05,1_A,71.0,00110,kill,1.0,5900.0,1.17484885345
71,1_19_1,19,1.0,278.218275852,1_I,training,05,1_A,72.0,10001,ignore,1.0,6000.0,0.461745462935
72,1_19_1,19,1.0,281.421564929,1_I,training,05,1_A,73.0,00100,kill,1.0,6100.0,1.04812098785
73,1_19_1,19,1.0,283.912529389,1_I,training,05,1_A,74.0,01001,ignore,1.0,6200.0,0.333202237711
74,1_19_1,19,1.0,286.465828585,1_I,training,05,1_A,75.0,01011,ignore,1.0,6300.0,0.41785744049
75,1_19_1,19,1.0,288.997231802,1_I,training,05,1_A,76.0,00111,ignore,1.0,6400.0,0.372372870432
76,1_19_1,19,1.0,291.512964714,1_I,training,05,1_A,77.0,10101,ignore,1.0,6500.0,0.353589933169
77,1_19_1,19,1.0,294.46623542,1_I,training,05,1_A,78.0,10000,kill,1.0,6600.0,0.775924603869
78,1_19_1,19,1.0,297.013240384,1_I,training,05,1_A,79.0,00011,ignore,1.0,6700.0,0.384217455614
79,1_19_1,19,1.0,299.904020352,1_I,training,05,1_A,80.0,11010,kill,1.0,6800.0,0.761983036116
80,1_19_1,19,1.0,302.701032604,1_I,training,05,1_A,81.0,10110,ignore,1.0,6900.0,0.63939166158
81,1_19_1,19,1.0,305.591810519,1_I,training,05,1_A,82.0,11001,ignore,1.0,7000.0,0.735109802163
82,1_19_1,19,1.0,308.170038684,1_I,training,05,1_A,83.0,11101,ignore,1.0,7100.0,0.414085909781
83,1_19_1,19,1.0,311.279560455,1_I,training,05,1_A,84.0,11100,ignore,1.0,7200.0,0.961543277361
84,1_19_1,19,1.0,313.889079967,1_I,training,05,1_A,85.0,10011,ignore,1.0,7300.0,0.442811861498
85,1_19_1,19,1.0,316.420494269,1_I,training,05,1_A,86.0,11111,ignore,1.0,7400.0,0.391049480661
86,1_19_1,19,1.0,319.483080249,1_I,training,05,1_A,87.0,00010,kill,1.0,7500.0,0.918809252176
87,1_19_1,19,1.0,322.311342385,1_I,training,05,1_A,88.0,00000,kill,1.0,7600.0,0.66999824704
88,1_19_1,19,1.0,325.108366952,1_I,training,05,1_A,89.0,10100,ignore,1.0,7700.0,0.642446408507
89,1_19_1,19,1.0,328.077238174,1_I,training,05,1_A,90.0,01000,kill,1.0,7800.0,0.820680895331
90,1_19_1,19,1.0,331.405506262,1_I,training,05,1_A,91.0,01110,kill,1.0,7900.0,1.14221014902
91,1_19_1,19,1.0,334.093163008,1_I,training,05,1_A,92.0,11011,ignore,1.0,8000.0,0.546179801066
92,1_19_1,19,1.0,336.671414983,1_I,training,05,1_A,93.0,01101,ignore,1.0,8100.0,0.432253463941
93,1_19_1,19,1.0,339.71849569,1_I,training,05,1_A,94.0,01100,kill,1.0,8200.0,0.894547393737
94,1_19_1,19,1.0,342.546730731,1_I,training,05,1_A,95.0,01010,kill,1.0,8300.0,0.702511329577
95,1_19_1,19,1.0,345.390565877,1_I,training,05,1_A,96.0,00001,ignore,1.0,8400.0,0.687640323973
96,1_19_1,19,1.0,348.343859983,1_I,training,05,1_A,97.0,00100,kill,1.0,8500.0,0.768126193356
97,1_19_1,19,1.0,351.281495689,1_I,training,05,1_A,98.0,10110,ignore,1.0,8600.0,0.786945667707
98,1_19_1,19,1.0,354.062893466,1_I,training,05,1_A,99.0,01101,ignore,1.0,8700.0,0.664310366557
99,1_19_1,19,1.0,357.016174435,1_I,training,05,1_A,100.0,01011,ignore,1.0,8800.0,0.847807015203
100,1_19_1,19,1.0,359.672547222,1_I,training,05,1_A,101.0,00111,ignore,1.0,8900.0,0.465124117312
101,1_19_1,19,1.0,362.594566401,1_I,training,05,1_A,102.0,00010,kill,1.0,9000.0,0.758437296403
102,1_19_1,19,1.0,365.54783916,1_I,training,05,1_A,103.0,11000,kill,1.0,9100.0,0.800704550018
103,1_19_1,19,1.0,368.610493288,1_I,training,05,1_A,104.0,10000,kill,1.0,9200.0,0.893901631483
104,1_19_1,19,1.0,371.782515648,1_I,training,05,1_A,105.0,01001,ignore,1.0,9300.0,1.00324441137
105,1_19_1,19,1.0,374.767034186,1_I,training,05,1_A,106.0,01000,kill,1.0,9400.0,0.815694609055
106,1_19_1,19,1.0,378.0328296,1_I,training,05,1_A,107.0,01110,kill,1.0,9500.0,1.1302690895
107,1_19_1,19,1.0,381.220475056,1_I,training,05,1_A,108.0,01010,kill,1.0,9600.0,1.0812313902
108,1_19_1,19,1.0,384.111215614,1_I,training,05,1_A,109.0,00000,kill,1.0,9700.0,0.725051018502
109,1_19_1,19,1.0,387.439531324,1_I,training,05,1_A,110.0,00110,kill,1.0,9800.0,1.19339902073
110,1_19_1,19,1.0,390.205292048,1_I,training,05,1_A,111.0,11111,ignore,1.0,9900.0,0.62717760022
111,1_19_1,19,1.0,392.90855013,1_I,training,05,1_A,112.0,10101,ignore,1.0,10000.0,0.52061779701
112,1_19_1,19,1.0,395.533674675,1_I,training,05,1_A,113.0,11001,ignore,1.0,10100.0,0.494345167108
113,1_19_1,19,1.0,398.018174533,1_I,training,05,1_A,114.0,10011,ignore,1.0,10200.0,0.326972458835
114,1_19_1,19,1.0,400.987049039,1_I,training,05,1_A,115.0,01100,kill,1.0,10300.0,0.804856230661
115,1_19_1,19,1.0,403.643423057,1_I,training,05,1_A,116.0,10100,ignore,1.0,10400.0,0.482310096428
116,1_19_1,19,1.0,406.752982186,1_I,training,05,1_A,117.0,10010,kill,1.0,10500.0,0.975523024319
117,1_19_1,19,1.0,409.425012141,1_I,training,05,1_A,118.0,11011,ignore,1.0,10600.0,0.542908705311
118,1_19_1,19,1.0,412.409507689,1_I,training,05,1_A,119.0,10111,ignore,1.0,10700.0,0.802083106688
119,1_19_1,19,1.0,415.003377833,1_I,training,05,1_A,120.0,00011,ignore,1.0,10800.0,0.431265320432
120,1_19_1,19,1.0,417.909789518,1_I,training,05,1_A,121.0,11110,ignore,1.0,10900.0,0.770207575822
121,1_19_1,19,1.0,420.94116954,1_I,training,05,1_A,122.0,00101,ignore,1.0,11000.0,0.84908827648
122,1_19_1,19,1.0,423.831923645,1_I,training,05,1_A,123.0,00001,ignore,1.0,11100.0,0.73477850519
123,1_19_1,19,1.0,427.160207744,1_I,training,05,1_A,124.0,11100,ignore,1.0,11200.0,1.17804564344
124,1_19_1,19,1.0,429.941633848,1_I,training,05,1_A,125.0,01111,ignore,1.0,11300.0,0.620421523054
125,1_19_1,19,1.0,433.17612683,1_I,training,05,1_A,126.0,11101,ignore,1.0,11400.0,1.08756092765
126,1_19_1,19,1.0,436.270035769,1_I,training,05,1_A,127.0,11010,kill,1.0,11500.0,0.962636105787
127,1_19_1,19,1.0,439.223277738,1_I,training,05,1_A,128.0,10001,ignore,1.0,11600.0,0.806519283988
128,1_19_1,19,1.0,442.192182623,1_I,training,05,1_A,129.0,10010,kill,1.0,11700.0,0.755114884512
129,1_19_1,19,1.0,444.926725485,1_I,training,05,1_A,130.0,10101,ignore,1.0,11800.0,0.522865033226
130,1_19_1,19,1.0,447.817459063,1_I,training,05,1_A,131.0,01010,kill,1.0,11900.0,0.753210440083
131,1_19_1,19,1.0,450.442596744,1_I,training,05,1_A,132.0,00011,ignore,1.0,12000.0,0.435527022872
132,1_19_1,19,1.0,453.223974406,1_I,training,05,1_A,133.0,10111,ignore,1.0,12100.0,0.627818846651
133,1_19_1,19,1.0,455.911613088,1_I,training,05,1_A,134.0,00111,ignore,1.0,12200.0,0.544323799069
134,1_19_1,19,1.0,458.458626673,1_I,training,05,1_A,135.0,01011,ignore,1.0,12300.0,0.383158290573
135,1_19_1,19,1.0,461.021685788,1_I,training,05,1_A,136.0,01001,ignore,1.0,12400.0,0.351073800402
136,1_19_1,19,1.0,463.665567407,1_I,training,05,1_A,137.0,11011,ignore,1.0,12500.0,0.485446538645
137,1_19_1,19,1.0,466.712583661,1_I,training,05,1_A,138.0,01110,kill,1.0,12600.0,0.928876246418
138,1_19_1,19,1.0,469.384594732,1_I,training,05,1_A,139.0,11001,ignore,1.0,12700.0,0.503424428369
139,1_19_1,19,1.0,472.322223048,1_I,training,05,1_A,140.0,11100,ignore,1.0,12800.0,0.772238052679
140,1_19_1,19,1.0,475.619242894,1_I,training,05,1_A,141.0,11000,kill,1.0,12900.0,1.1143606769
141,1_19_1,19,1.0,478.056848426,1_I,training,05,1_A,142.0,01111,ignore,1.0,13000.0,0.276518434193
142,1_19_1,19,1.0,480.494493368,1_I,training,05,1_A,143.0,10001,ignore,1.0,13100.0,0.27199358261
143,1_19_1,19,1.0,483.494637053,1_I,training,05,1_A,144.0,00110,kill,1.0,13200.0,0.830458877095
144,1_19_1,19,1.0,486.588568571,1_I,training,05,1_A,145.0,00100,kill,1.0,13300.0,0.915371071082
145,1_19_1,19,1.0,489.323036716,1_I,training,05,1_A,146.0,11110,ignore,1.0,13400.0,0.627105347099
146,1_19_1,19,1.0,491.932561566,1_I,training,05,1_A,147.0,11111,ignore,1.0,13500.0,0.478684303544
147,1_19_1,19,1.0,494.807690113,1_I,training,05,1_A,148.0,10110,ignore,1.0,13600.0,0.729549596224
148,1_19_1,19,1.0,497.432828205,1_I,training,05,1_A,149.0,01101,ignore,1.0,13700.0,0.514209437983
149,1_19_1,19,1.0,500.432955879,1_I,training,05,1_A,150.0,00000,kill,1.0,13800.0,0.867905287656
150,1_19_1,19,1.0,503.120588814,1_I,training,05,1_A,151.0,00001,ignore,1.0,13900.0,0.559960441416
151,1_19_1,19,1.0,506.2145347,1_I,training,05,1_A,152.0,11010,kill,1.0,14000.0,0.949465922185
152,1_19_1,19,1.0,509.120903689,1_I,training,05,1_A,153.0,10011,ignore,1.0,14100.0,0.765055435795
153,1_19_1,19,1.0,512.230427513,1_I,training,05,1_A,154.0,01100,kill,1.0,14200.0,0.992316537629
154,1_19_1,19,1.0,515.043077638,1_I,training,05,1_A,155.0,00010,kill,1.0,14300.0,0.673250868987
155,1_19_1,19,1.0,518.058841544,1_I,training,05,1_A,156.0,10000,kill,1.0,14400.0,0.849015612832
156,1_19_1,19,1.0,520.933987334,1_I,training,05,1_A,157.0,01000,kill,1.0,14500.0,0.725301851773
157,1_19_1,19,1.0,523.730960174,1_I,training,05,1_A,158.0,00101,ignore,1.0,14600.0,0.620044246825
158,1_19_1,19,1.0,526.699918428,1_I,training,05,1_A,159.0,10100,ignore,1.0,14700.0,0.859336724578
159,1_19_1,19,1.0,529.825025525,1_I,training,05,1_A,160.0,11101,ignore,1.0,14800.0,0.981111556765
160,1_19_1,19,1.0,532.590805544,1_I,training,05,1_A,161.0,01001,ignore,1.0,14900.0,0.60726693956
161,1_19_1,19,1.0,535.122155803,1_I,training,05,1_A,162.0,11111,ignore,1.0,15000.0,0.395027096973
162,1_19_1,19,1.0,537.887911191,1_I,training,05,1_A,163.0,11100,ignore,1.0,15100.0,0.616709519061
163,1_19_1,19,1.0,540.79431877,1_I,training,05,1_A,164.0,01000,kill,1.0,15200.0,0.76897352539
164,1_19_1,19,1.0,543.575701358,1_I,training,05,1_A,165.0,11001,ignore,1.0,15300.0,0.631452850119
165,1_19_1,19,1.0,546.513381811,1_I,training,05,1_A,166.0,10010,kill,1.0,15400.0,0.812675578158
166,1_19_1,19,1.0,549.216610746,1_I,training,05,1_A,167.0,00111,ignore,1.0,15500.0,0.534948956865
167,1_19_1,19,1.0,552.826156943,1_I,training,05,1_A,168.0,00001,ignore,1.0,15600.0,1.45298436172
168,1_19_1,19,1.0,555.576288825,1_I,training,05,1_A,169.0,11011,ignore,1.0,15700.0,0.634868452113
169,1_19_1,19,1.0,558.420149424,1_I,training,05,1_A,170.0,01100,kill,1.0,15800.0,0.703104954635
170,1_19_1,19,1.0,560.920319589,1_I,training,05,1_A,171.0,01101,ignore,1.0,15900.0,0.363184818962
171,1_19_1,19,1.0,564.529860038,1_I,training,05,1_A,172.0,00000,kill,1.0,16000.0,1.46912923907
172,1_19_1,19,1.0,567.592491998,1_I,training,05,1_A,173.0,10100,ignore,1.0,16100.0,0.931250746651
173,1_19_1,19,1.0,570.702062211,1_I,training,05,1_A,174.0,00100,kill,1.0,16200.0,0.956080366816
174,1_19_1,19,1.0,573.38966805,1_I,training,05,1_A,175.0,10001,ignore,1.0,16300.0,0.545009793172
175,1_19_1,19,1.0,576.061641353,1_I,training,05,1_A,176.0,00011,ignore,1.0,16400.0,0.515913954745
176,1_19_1,19,1.0,578.577421475,1_I,training,05,1_A,177.0,10101,ignore,1.0,16500.0,0.37391851244
177,1_19_1,19,1.0,581.468194464,1_I,training,05,1_A,178.0,11010,kill,1.0,16600.0,0.743005508068
178,1_19_1,19,1.0,584.577721982,1_I,training,05,1_A,179.0,11000,kill,1.0,16700.0,0.995401663711
179,1_19_1,19,1.0,587.468460077,1_I,training,05,1_A,180.0,01011,ignore,1.0,16800.0,0.754517564692
180,1_19_1,19,1.0,590.484222341,1_I,training,05,1_A,181.0,01110,kill,1.0,16900.0,0.880435456411
181,1_19_1,19,1.0,593.328157246,1_I,training,05,1_A,182.0,00010,kill,1.0,17000.0,0.736024871494
182,1_19_1,19,1.0,596.047005991,1_I,training,05,1_A,183.0,01010,kill,1.0,17100.0,0.551086034169
183,1_19_1,19,1.0,598.718998178,1_I,training,05,1_A,184.0,10111,ignore,1.0,17200.0,0.49870457547
184,1_19_1,19,1.0,601.2972559,1_I,training,05,1_A,185.0,11101,ignore,1.0,17300.0,0.433466166862
185,1_19_1,19,1.0,604.031807383,1_I,training,05,1_A,186.0,10000,kill,1.0,17400.0,0.613960205774
186,1_19_1,19,1.0,606.797514739,1_I,training,05,1_A,187.0,10011,ignore,1.0,17500.0,0.65021813463
187,1_19_1,19,1.0,609.532016137,1_I,training,05,1_A,188.0,00101,ignore,1.0,17600.0,0.583186124444
188,1_19_1,19,1.0,613.094764071,1_I,training,05,1_A,189.0,11110,ignore,1.0,17700.0,1.44175433857
189,1_19_1,19,1.0,616.219879789,1_I,training,05,1_A,190.0,10110,ignore,1.0,17800.0,0.986067874415
190,1_19_1,19,1.0,618.907493428,1_I,training,05,1_A,191.0,01111,ignore,1.0,17900.0,0.570150594385
191,1_19_1,19,1.0,621.563875657,1_I,training,05,1_A,192.0,00110,ignore,0.0,17800.0,0.486847263886
192,1_19_1,19,1.0,624.485912489,1_I,training,05,1_A,193.0,01110,kill,1.0,17900.0,0.778771623081
193,1_19_1,19,1.0,627.642332281,1_I,training,05,1_A,194.0,11011,ignore,1.0,18000.0,1.01123043367
194,1_19_1,19,1.0,630.611203092,1_I,training,05,1_A,195.0,01100,kill,1.0,18100.0,0.835884429494
195,1_19_1,19,1.0,634.611389062,1_I,training,05,1_A,196.0,11010,kill,1.0,18200.0,1.8767062102
196,1_19_1,19,1.0,638.689726633,1_I,training,05,1_A,197.0,00101,ignore,1.0,18300.0,1.93012384431
197,1_19_1,19,1.0,641.408613968,1_I,training,05,1_A,198.0,11111,ignore,1.0,18400.0,0.583553137449
198,1_19_1,19,1.0,644.736911614,1_I,training,05,1_A,199.0,00100,kill,1.0,18500.0,1.15432609393
199,1_19_1,19,1.0,647.799557942,1_I,training,05,1_A,200.0,00110,kill,1.0,18600.0,0.942979562631
200,1_19_1,19,1.0,650.643442352,1_I,training,05,1_A,201.0,00010,kill,1.0,18700.0,0.672940508999
201,1_19_1,19,1.0,653.643600816,1_I,training,05,1_A,202.0,00001,ignore,1.0,18800.0,0.844969438163
202,1_19_1,19,1.0,656.362447098,1_I,training,05,1_A,203.0,11001,ignore,1.0,18900.0,0.576460015904
203,1_19_1,19,1.0,659.315726015,1_I,training,05,1_A,204.0,11100,ignore,1.0,19000.0,0.811742035017
204,1_19_1,19,1.0,662.034673697,1_I,training,05,1_A,205.0,01111,ignore,1.0,19100.0,0.58043106375
205,1_19_1,19,1.0,664.815984032,1_I,training,05,1_A,206.0,10011,ignore,1.0,19200.0,0.59188687789
206,1_19_1,19,1.0,667.519287272,1_I,training,05,1_A,207.0,00111,ignore,1.0,19300.0,0.548619985952
207,1_19_1,19,1.0,670.50377461,1_I,training,05,1_A,208.0,01000,kill,1.0,19400.0,0.856291419819
208,1_19_1,19,1.0,673.425772031,1_I,training,05,1_A,209.0,10110,ignore,1.0,19500.0,0.772171136439
209,1_19_1,19,1.0,676.472818253,1_I,training,05,1_A,210.0,10000,kill,1.0,19600.0,0.930326645677
210,1_19_1,19,1.0,679.129218546,1_I,training,05,1_A,211.0,00011,ignore,1.0,19700.0,0.510881689213
211,1_19_1,19,1.0,681.879346733,1_I,training,05,1_A,212.0,01101,ignore,1.0,19800.0,0.60100267624
212,1_19_1,19,1.0,685.051343231,1_I,training,05,1_A,213.0,10100,ignore,1.0,19900.0,1.04559869714
213,1_19_1,19,1.0,688.004632821,1_I,training,05,1_A,214.0,11110,ignore,1.0,20000.0,0.822236800566
214,1_19_1,19,1.0,691.067284896,1_I,training,05,1_A,215.0,10001,ignore,1.0,20100.0,0.907178552647
215,1_19_1,19,1.0,693.848678979,1_I,training,05,1_A,216.0,01001,ignore,1.0,20200.0,0.63878941541
216,1_19_1,19,1.0,696.88006598,1_I,training,05,1_A,217.0,10010,kill,1.0,20300.0,0.865279543623
217,1_19_1,19,1.0,699.755239685,1_I,training,05,1_A,218.0,11000,kill,1.0,20400.0,0.751225942484
218,1_19_1,19,1.0,702.505327231,1_I,training,05,1_A,219.0,11101,ignore,1.0,20500.0,0.596946238342
219,1_19_1,19,1.0,705.489872453,1_I,training,05,1_A,220.0,10101,ignore,1.0,20600.0,0.833119516101
220,1_19_1,19,1.0,708.130629124,1_I,training,05,1_A,221.0,01011,ignore,1.0,20700.0,0.501734690652
221,1_19_1,19,1.0,711.162050609,1_I,training,05,1_A,222.0,00000,kill,1.0,20800.0,0.892982046333
222,1_19_1,19,1.0,714.13092101,1_I,training,05,1_A,223.0,10111,ignore,1.0,20900.0,0.862724000064
223,1_19_1,19,1.0,717.224813938,1_I,training,05,1_A,224.0,01010,kill,1.0,21000.0,0.935199625927
224,1_19_1,19,1.0,720.334364446,1_I,training,05,1_A,225.0,10100,ignore,1.0,21100.0,0.949762324186
225,1_19_1,19,1.0,723.225130866,1_I,training,05,1_A,226.0,11111,ignore,1.0,21200.0,0.765146983782
226,1_19_1,19,1.0,725.928342559,1_I,training,05,1_A,227.0,11001,ignore,1.0,21300.0,0.57445458132
227,1_19_1,19,1.0,728.537864124,1_I,training,05,1_A,228.0,10111,ignore,1.0,21400.0,0.476679279489
228,1_19_1,19,1.0,731.647378505,1_I,training,05,1_A,229.0,11010,kill,1.0,21500.0,0.968988632862
229,1_19_1,19,1.0,734.522535378,1_I,training,05,1_A,230.0,01000,kill,1.0,21600.0,0.721887070838
230,1_19_1,19,1.0,737.897719552,1_I,training,05,1_A,231.0,10011,ignore,1.0,21700.0,1.28202773452
231,1_19_1,19,1.0,740.819723952,1_I,training,05,1_A,232.0,00001,ignore,1.0,21800.0,0.79255308449
232,1_19_1,19,1.0,743.913618933,1_I,training,05,1_A,233.0,10000,kill,1.0,21900.0,0.94107183397
233,1_19_1,19,1.0,746.851254228,1_I,training,05,1_A,234.0,01011,ignore,1.0,22000.0,0.795333187458
234,1_19_1,19,1.0,749.835794113,1_I,training,05,1_A,235.0,01101,ignore,1.0,22100.0,0.826452113219
235,1_19_1,19,1.0,752.945301515,1_I,training,05,1_A,236.0,01010,kill,1.0,22200.0,1.01286598155
236,1_19_1,19,1.0,755.992340348,1_I,training,05,1_A,237.0,10010,kill,1.0,22300.0,0.898750390517
237,1_19_1,19,1.0,759.008129297,1_I,training,05,1_A,238.0,01001,ignore,1.0,22400.0,0.852495667892
238,1_19_1,19,1.0,761.633212788,1_I,training,05,1_A,239.0,11101,ignore,1.0,22500.0,0.507429139601
239,1_19_1,19,1.0,765.086523931,1_I,training,05,1_A,240.0,01110,kill,1.0,22600.0,1.32166554934
240,1_19_1,19,1.0,767.633538338,1_I,training,05,1_A,241.0,10101,ignore,1.0,22700.0,0.429647425304
241,1_19_1,19,1.0,770.493008895,1_I,training,05,1_A,242.0,01100,kill,1.0,22800.0,0.697655181022
242,1_19_1,19,1.0,773.086903671,1_I,training,05,1_A,243.0,00101,ignore,1.0,22900.0,0.4201568139
243,1_19_1,19,1.0,776.243301705,1_I,training,05,1_A,244.0,00100,kill,1.0,23000.0,1.00633364274
244,1_19_1,19,1.0,778.946570871,1_I,training,05,1_A,245.0,11011,ignore,1.0,23100.0,0.555512769301
245,1_19_1,19,1.0,781.587308658,1_I,training,05,1_A,246.0,00011,ignore,1.0,23200.0,0.52948235156
246,1_19_1,19,1.0,784.524971458,1_I,training,05,1_A,247.0,00110,kill,1.0,23300.0,0.809470167056
247,1_19_1,19,1.0,787.54071648,1_I,training,05,1_A,248.0,10001,ignore,1.0,23400.0,0.860231267456
248,1_19_1,19,1.0,790.931523748,1_I,training,05,1_A,249.0,00111,ignore,1.0,23500.0,1.26217742164
249,1_19_1,19,1.0,793.822307001,1_I,training,05,1_A,250.0,11000,kill,1.0,23600.0,0.75115492095
250,1_19_1,19,1.0,796.6036744,1_I,training,05,1_A,251.0,10110,ignore,1.0,23700.0,0.675913560637
251,1_19_1,19,1.0,799.681990623,1_I,training,05,1_A,252.0,00010,kill,1.0,23800.0,0.948936339666
252,1_19_1,19,1.0,802.650838855,1_I,training,05,1_A,253.0,11110,ignore,1.0,23900.0,0.826592103638
253,1_19_1,19,1.0,805.322874147,1_I,training,05,1_A,254.0,11100,ignore,1.0,24000.0,0.557429940132
254,1_19_1,19,1.0,808.02610965,1_I,training,05,1_A,255.0,01111,ignore,1.0,24100.0,0.584614355133
255,1_19_1,19,1.0,810.963744945,1_I,training,05,1_A,256.0,00000,kill,1.0,24200.0,0.779293816076
256,1_19_1,19,1.0,813.76078306,1_I,training,05,1_A,257.0,11100,ignore,1.0,24300.0,0.682236940147
257,1_19_1,19,1.0,816.526569648,1_I,training,05,1_A,258.0,00101,ignore,1.0,24400.0,0.599694730572
258,1_19_1,19,1.0,819.214179593,1_I,training,05,1_A,259.0,00111,ignore,1.0,24500.0,0.550174249071
259,1_19_1,19,1.0,822.16744414,1_I,training,05,1_A,260.0,00100,kill,1.0,24600.0,0.627050746732
260,1_19_1,19,1.0,824.948797991,1_I,training,05,1_A,261.0,01111,ignore,1.0,24700.0,0.55094727534
261,1_19_1,19,1.0,827.730205211,1_I,training,05,1_A,262.0,10111,ignore,1.0,24800.0,0.557429529603
262,1_19_1,19,1.0,830.792859339,1_I,training,05,1_A,263.0,01101,ignore,1.0,24900.0,0.902712817251
263,1_19_1,19,1.0,833.980515058,1_I,training,05,1_A,264.0,11000,kill,1.0,25000.0,1.07504759058
264,1_19_1,19,1.0,837.230670135,1_I,training,05,1_A,265.0,01010,kill,1.0,25100.0,1.09443893195
265,1_19_1,19,1.0,840.168353873,1_I,training,05,1_A,266.0,11110,ignore,1.0,25200.0,0.79299317167
266,1_19_1,19,1.0,904.530819445,1_I,test,05,2,0.0,01110,ignore,0.0,0.0,1.87711181293
267,1_19_1,19,1.0,907.48408974,1_I,test,05,2,1.0,10010,ignore,1.0,100.0,0.810960387636
268,1_19_1,19,1.0,910.640473816,1_I,test,05,2,2.0,11111,ignore,0.0,0.0,1.05899918756
269,1_19_1,19,1.0,913.500010879,1_I,test,05,2,3.0,00010,ignore,1.0,100.0,0.719226431833
270,1_19_1,19,1.0,916.500149638,1_I,test,05,2,4.0,01001,ignore,1.0,200.0,0.84633116314
271,1_19_1,19,1.0,920.250318057,1_I,test,05,2,5.0,11101,kill,0.0,100.0,1.64062242778
272,1_19_1,19,1.0,923.656761558,1_I,test,05,2,6.0,10000,ignore,1.0,200.0,1.22633782192
273,1_19_1,19,1.0,926.360031545,1_I,test,05,2,7.0,10001,ignore,1.0,300.0,0.54140945309
274,1_19_1,19,1.0,930.579009402,1_I,test,05,2,8.0,10100,ignore,0.0,200.0,2.08003798215
275,1_19_1,19,1.0,933.547890065,1_I,test,05,2,9.0,11011,ignore,1.0,300.0,0.82274667769
276,1_19_1,19,1.0,936.126124798,1_I,test,05,2,10.0,10011,ignore,1.0,400.0,0.455472989035
277,1_19_1,19,1.0,940.313834707,1_I,test,05,2,11.0,10110,ignore,0.0,300.0,2.00853613128
278,1_19_1,19,1.0,943.642128248,1_I,test,05,2,12.0,00110,ignore,0.0,200.0,1.1735072444
279,1_19_1,19,1.0,948.032982317,1_I,test,05,2,13.0,11001,ignore,1.0,300.0,2.27938392721
280,1_19_1,19,1.0,951.126851435,1_I,test,05,2,14.0,01100,ignore,1.0,400.0,0.962218187176
281,1_19_1,19,1.0,954.78330099,1_I,test,05,2,15.0,10101,ignore,0.0,300.0,1.52200538532
282,1_19_1,19,1.0,958.877225529,1_I,test,05,2,16.0,11010,ignore,1.0,400.0,1.93560317602
283,1_19_1,19,1.0,962.205496081,1_I,test,05,2,17.0,00001,ignore,1.0,500.0,1.17650000144
284,1_19_1,19,1.0,965.252517672,1_I,test,05,2,18.0,00011,ignore,1.0,600.0,0.91328845703
285,1_19_1,19,1.0,968.455809212,1_I,test,05,2,19.0,00000,ignore,1.0,700.0,1.03072276519
286,1_19_1,19,1.0,971.362234444,1_I,test,05,2,20.0,01011,ignore,1.0,800.0,0.786377905983
287,1_19_1,19,1.0,974.377993014,1_I,test,05,2,21.0,01000,ignore,1.0,900.0,0.900322716914
288,1_19_1,19,1.0,978.237576466,1_I,test,05,2,22.0,10101,kill,1.0,1000.0,1.70047058949
289,1_19_1,19,1.0,981.206436193,1_I,test,05,2,23.0,01101,ignore,1.0,1100.0,0.88088046994
290,1_19_1,19,1.0,985.659798241,1_I,test,05,2,24.0,11100,ignore,1.0,1200.0,2.36877253035
291,1_19_1,19,1.0,988.456819524,1_I,test,05,2,25.0,00101,ignore,0.0,1100.0,0.680765603902
292,1_19_1,19,1.0,991.456996873,1_I,test,05,2,26.0,11001,ignore,1.0,1200.0,0.860177077617
293,1_19_1,19,1.0,995.425909147,1_I,test,05,2,27.0,10000,ignore,1.0,1300.0,1.79370667122
294,1_19_1,19,1.0,998.863559427,1_I,test,05,2,28.0,00110,kill,1.0,1400.0,1.32415171349
295,1_19_1,19,1.0,1001.87933236,1_I,test,05,2,29.0,01000,ignore,1.0,1500.0,0.910515743586
296,1_19_1,19,1.0,1004.84825778,1_I,test,05,2,30.0,00010,ignore,1.0,1600.0,0.835317899355
297,1_19_1,19,1.0,1010.59850707,1_I,test,05,2,31.0,10111,ignore,0.0,1500.0,3.6064770816
298,1_19_1,19,1.0,1013.53618629,1_I,test,05,2,32.0,00000,ignore,1.0,1600.0,0.756563231127
299,1_19_1,19,1.0,1016.41127912,1_I,test,05,2,33.0,01001,ignore,1.0,1700.0,0.751911115527
300,1_19_1,19,1.0,1020.31773925,1_I,test,05,2,34.0,01010,ignore,1.0,1800.0,1.73575761706
301,1_19_1,19,1.0,1023.13038363,1_I,test,05,2,35.0,00001,ignore,1.0,1900.0,0.654807439279
302,1_19_1,19,1.0,1026.27116678,1_I,test,05,2,36.0,00011,ignore,1.0,2000.0,1.01579592763
303,1_19_1,19,1.0,1029.34942388,1_I,test,05,2,37.0,11111,kill,1.0,2100.0,0.923610800362
304,1_19_1,19,1.0,1032.1933202,1_I,test,05,2,38.0,10110,kill,1.0,2200.0,0.729502795908
305,1_19_1,19,1.0,1035.24033563,1_I,test,05,2,39.0,10010,ignore,1.0,2300.0,0.888547921675
306,1_19_1,19,1.0,1038.47486187,1_I,test,05,2,40.0,00100,ignore,0.0,2200.0,1.05269346081
307,1_19_1,19,1.0,1041.69380319,1_I,test,05,2,41.0,10100,ignore,0.0,2100.0,1.06931947825
308,1_19_1,19,1.0,1045.36585901,1_I,test,05,2,42.0,11010,ignore,1.0,2200.0,1.52568988387
309,1_19_1,19,1.0,1048.86601316,1_I,test,05,2,43.0,10001,ignore,1.0,2300.0,1.39178761196
310,1_19_1,19,1.0,1052.25679415,1_I,test,05,2,44.0,01100,kill,0.0,2200.0,1.22773977875
311,1_19_1,19,1.0,1055.9482955,1_I,test,05,2,45.0,01110,kill,1.0,2300.0,1.5576327415
312,1_19_1,19,1.0,1058.80785391,1_I,test,05,2,46.0,11110,kill,1.0,2400.0,0.762494144828
313,1_19_1,19,1.0,1062.01107772,1_I,test,05,2,47.0,11101,kill,0.0,2300.0,1.00121598715
314,1_19_1,19,1.0,1065.1987166,1_I,test,05,2,48.0,10011,ignore,1.0,2400.0,1.02546799289
315,1_19_1,19,1.0,1070.8239992,1_I,test,05,2,49.0,01111,kill,1.0,2500.0,3.46911199685
316,1_19_1,19,1.0,1074.18356644,1_I,test,05,2,50.0,01011,ignore,1.0,2600.0,1.21071349545
317,1_19_1,19,1.0,1078.80875872,1_I,test,05,2,51.0,00111,kill,1.0,2700.0,2.49219358417
318,1_19_1,19,1.0,1082.41829342,1_I,test,05,2,52.0,11000,ignore,1.0,2800.0,1.43338652422
319,1_19_1,19,1.0,1085.41844819,1_I,test,05,2,53.0,11011,ignore,1.0,2900.0,0.835816692195
320,1_19_1,19,1.0,1088.19985911,1_I,test,05,2,54.0,01000,ignore,1.0,3000.0,0.65055025266
321,1_19_1,19,1.0,1094.55956469,1_I,test,05,2,55.0,00101,kill,1.0,3100.0,4.1958757427
322,1_19_1,19,1.0,1097.15343319,1_I,test,05,2,56.0,11010,ignore,1.0,3200.0,0.492613965953
323,1_19_1,19,1.0,1100.90360777,1_I,test,05,2,57.0,11101,ignore,1.0,3300.0,1.59676150025
324,1_19_1,19,1.0,1104.41936942,1_I,test,05,3,0.0,00110,kill,0.0,3200.0,1.36064939133
325,1_19_1,19,1.0,1108.91959993,1_I,test,05,3,1.0,00111,kill,0.0,3100.0,2.36017523024
326,1_19_1,19,1.0,1111.76351965,1_I,test,05,3,2.0,11111,ignore,1.0,3200.0,0.700617969433
327,1_19_1,19,1.0,1114.49803295,1_I,test,05,3,3.0,11001,ignore,0.0,3100.0,0.648581765694
328,1_19_1,19,1.0,1117.43562514,1_I,test,05,3,4.0,00010,ignore,1.0,3200.0,0.812992506611
329,1_19_1,19,1.0,1120.29516836,1_I,test,05,3,5.0,10011,ignore,0.0,3100.0,0.706555862129
330,1_19_1,19,1.0,1123.79530938,1_I,test,05,3,6.0,11110,ignore,0.0,3000.0,1.40023794266
331,1_19_1,19,1.0,1129.02995425,1_I,test,05,3,7.0,11011,kill,1.0,3100.0,3.13703337725
332,1_19_1,19,1.0,1131.87383497,1_I,test,05,3,8.0,00011,kill,0.0,3000.0,0.693104466105
333,1_19_1,19,1.0,1135.24902202,1_I,test,05,3,9.0,11000,kill,1.0,3100.0,1.22326378013
334,1_19_1,19,1.0,1138.29604361,1_I,test,05,3,10.0,01110,ignore,1.0,3200.0,0.88817351915
335,1_19_1,19,1.0,1141.70248177,1_I,test,05,3,11.0,01011,ignore,1.0,3300.0,1.28539489409
336,1_19_1,19,1.0,1144.34320929,1_I,test,05,3,12.0,00001,ignore,1.0,3400.0,0.500180017005
337,1_19_1,19,1.0,1147.51523207,1_I,test,05,3,13.0,10000,kill,1.0,3500.0,1.0064050748
338,1_19_1,19,1.0,1150.34351596,1_I,test,05,3,14.0,01100,ignore,1.0,3600.0,0.689376040948
339,1_19_1,19,1.0,1153.15613612,1_I,test,05,3,15.0,10010,kill,1.0,3700.0,0.652072494511
340,1_19_1,19,1.0,1156.04690582,1_I,test,05,3,16.0,10100,kill,1.0,3800.0,0.773455681949
341,1_19_1,19,1.0,1158.90643673,1_I,test,05,3,17.0,01001,ignore,1.0,3900.0,0.707844923458
342,1_19_1,19,1.0,1161.70343461,1_I,test,05,3,18.0,01111,ignore,1.0,4000.0,0.654476963366
343,1_19_1,19,1.0,1164.70357049,1_I,test,05,4,0.0,10110,kill,1.0,4100.0,0.880631689315
344,1_19_1,19,1.0,1168.07872675,1_I,test,05,4,1.0,11100,kill,0.0,4000.0,1.22181584404
345,1_19_1,19,1.0,1171.56329271,1_I,test,05,4,2.0,01101,ignore,1.0,4100.0,1.36802495688
346,1_19_1,19,1.0,1175.18847472,1_I,test,05,4,3.0,00000,ignore,1.0,4200.0,1.45075026243
347,1_19_1,19,1.0,1178.64178053,1_I,test,05,4,4.0,10111,kill,1.0,4300.0,1.28503280743
348,1_19_1,19,1.0,1181.67319791,1_I,test,05,4,5.0,00100,ignore,1.0,4400.0,0.88671408825
349,1_19_1,19,1.0,1184.79833703,1_I,test,05,4,6.0,01010,ignore,0.0,4300.0,1.01346083819
350,1_19_1,19,1.0,1187.70474871,1_I,test,05,4,7.0,10001,ignore,1.0,4400.0,0.786880393583
351,1_19_1,19,1.0,1191.11112448,1_I,test,05,4,8.0,10101,kill,0.0,4300.0,1.25674694289
352,1_19_1,19,1.0,1193.92378445,1_I,test,05,4,9.0,00100,ignore,1.0,4400.0,0.665725049786
353,1_19_1,19,1.0,1197.50206968,1_I,test,05,4,10.0,01000,kill,0.0,4300.0,1.49914343106
354,1_19_1,19,1.0,1200.14280131,1_I,test,05,4,11.0,00010,ignore,0.0,4200.0,0.503627229738
355,1_19_1,19,1.0,1203.09613442,1_I,test,05,4,12.0,11001,ignore,1.0,4300.0,0.794210800937
356,1_19_1,19,1.0,1206.51811932,1_I,test,05,4,13.0,01100,kill,0.0,4200.0,1.26778607001
357,1_19_1,19,1.0,1209.75264802,1_I,test,05,4,14.0,00111,kill,1.0,4300.0,1.07128837574
358,1_19_1,19,1.0,1212.62778724,1_I,test,05,4,15.0,10011,kill,1.0,4400.0,0.753121355272
359,1_19_1,19,1.0,1216.89366476,1_I,test,05,4,16.0,01101,ignore,1.0,4500.0,2.09094820313
360,1_19_1,19,1.0,1219.64376831,1_I,test,05,4,17.0,10010,kill,1.0,4600.0,0.593738364067
361,1_19_1,19,1.0,1223.37830625,1_I,test,05,4,18.0,00001,ignore,1.0,4700.0,1.60574141348
362,1_19_1,19,1.0,1226.09720385,1_I,test,05,4,19.0,01010,kill,1.0,4800.0,0.580068156039
363,1_19_1,19,1.0,1229.05050206,1_I,test,05,4,20.0,11100,ignore,1.0,4900.0,0.853225178078
364,1_19_1,19,1.0,1231.95691087,1_I,test,05,4,21.0,01011,kill,1.0,5000.0,0.746713406772
365,1_19_1,19,1.0,1235.50394416,1_I,test,05,4,22.0,00011,ignore,0.0,4900.0,1.38575201334
366,1_19_1,19,1.0,1238.7072164,1_I,test,05,4,23.0,01001,ignore,1.0,5000.0,1.07971161153
367,1_19_1,19,1.0,1241.62921136,1_I,test,05,4,24.0,00101,ignore,1.0,5100.0,0.755325075404
368,1_19_1,19,1.0,1244.12935361,1_I,test,05,4,25.0,10111,kill,1.0,5200.0,0.385893235341
369,1_19_1,19,1.0,1246.8482081,1_I,test,05,4,26.0,11000,ignore,1.0,5300.0,0.57713985207
370,1_19_1,19,1.0,1249.64527249,1_I,test,05,4,27.0,11010,kill,0.0,5200.0,0.651824945471
371,1_19_1,19,1.0,1252.62975613,1_I,test,05,4,28.0,10000,ignore,1.0,5300.0,0.879999885052
372,1_19_1,19,1.0,1255.55177819,1_I,test,05,4,29.0,10001,ignore,1.0,5400.0,0.810783860132
373,1_19_1,19,1.0,1259.4894492,1_I,test,05,4,30.0,11011,ignore,1.0,5500.0,1.79053738668
374,1_19_1,19,1.0,1263.67718251,1_I,test,05,4,31.0,11110,kill,0.0,5400.0,2.06656318597
375,1_19_1,19,1.0,1266.06788673,1_I,test,05,4,32.0,01110,ignore,0.0,5300.0,0.236023845171
376,1_19_1,19,1.0,1268.61490442,1_I,test,05,4,33.0,00000,ignore,1.0,5400.0,0.443201864131
377,1_19_1,19,1.0,1273.33392887,1_I,test,05,4,34.0,01111,ignore,0.0,5300.0,2.6054326956
378,1_19_1,19,1.0,1276.88092973,1_I,test,05,4,35.0,10100,ignore,1.0,5400.0,1.37461764347
379,1_19_1,19,1.0,1279.67792721,1_I,test,05,4,36.0,10110,ignore,0.0,5300.0,0.653283144784
380,1_19_1,19,1.0,1282.88122531,1_I,test,05,4,37.0,00110,kill,1.0,5400.0,1.02080068772
381,1_19_1,19,1.0,1285.88136448,1_I,test,05,4,38.0,11101,ignore,1.0,5500.0,0.897313538715
382,1_19_1,19,1.0,1288.85026896,1_I,test,05,4,39.0,10101,ignore,1.0,5600.0,0.798747557865
383,1_19_1,19,1.0,1292.70986226,1_I,test,05,4,40.0,11111,kill,0.0,5500.0,1.65879737146
384,1_19_1,19,1.0,1296.38504221,1_I,test,05,4,41.0,01011,kill,1.0,5600.0,1.54812652999
385,1_19_1,19,1.0,1299.54141479,1_I,test,05,4,42.0,10101,ignore,1.0,5700.0,0.997790121932
386,1_19_1,19,1.0,1303.04163093,1_I,test,05,4,43.0,10111,kill,1.0,5800.0,1.38708171704
387,1_19_1,19,1.0,1306.01051611,1_I,test,05,4,44.0,01110,kill,1.0,5900.0,0.803992066936
388,1_19_1,19,1.0,1309.21377974,1_I,test,05,4,45.0,10011,kill,1.0,6000.0,1.02951827286
389,1_19_1,19,1.0,1312.87021903,1_I,test,05,4,46.0,11110,kill,0.0,5900.0,1.54208395238
390,1_19_1,19,1.0,1315.79221193,1_I,test,05,4,47.0,00000,ignore,1.0,6000.0,0.738163317501
391,1_19_1,19,1.0,1318.8079939,1_I,test,05,4,48.0,11011,kill,0.0,5900.0,0.92960206184
392,1_19_1,19,1.0,1321.51129099,1_I,test,05,4,49.0,01101,ignore,1.0,6000.0,0.554856743822
393,1_19_1,19,1.0,1324.12074276,1_I,test,05,4,50.0,11001,ignore,1.0,6100.0,0.460169031245
394,1_19_1,19,1.0,1326.82400947,1_I,test,05,4,51.0,10110,ignore,0.0,6000.0,0.597183113625
395,1_19_1,19,1.0,1329.4960542,1_I,test,05,4,52.0,00110,ignore,0.0,5900.0,0.546437202802
396,1_19_1,19,1.0,1331.93362032,1_I,test,05,4,53.0,01000,kill,0.0,5800.0,0.277919569962
397,1_19_1,19,1.0,1334.52752864,1_I,test,05,4,54.0,00001,ignore,1.0,5900.0,0.449705876435
398,1_19_1,19,1.0,1337.19952658,1_I,test,05,4,55.0,01100,ignore,1.0,6000.0,0.500232564726
399,1_19_1,19,1.0,1339.84029064,1_I,test,05,4,56.0,10001,ignore,1.0,6100.0,0.528845210418
400,1_19_1,19,1.0,1342.76226014,1_I,test,05,4,57.0,10010,ignore,0.0,6000.0,0.764456063331
401,1_19_1,19,1.0,1346.26250667,1_I,test,05,4,58.0,00111,ignore,0.0,5900.0,1.34823088648
402,1_19_1,19,1.0,1349.21574001,1_I,test,05,4,59.0,01111,ignore,0.0,5800.0,0.825965225722
403,1_19_1,19,1.0,1351.93463925,1_I,test,05,4,60.0,10100,ignore,1.0,5900.0,0.5338470968
404,1_19_1,19,1.0,1354.88787917,1_I,test,05,4,61.0,01001,ignore,1.0,6000.0,0.848862896011
405,1_19_1,19,1.0,1357.7630422,1_I,test,05,4,62.0,00100,ignore,1.0,6100.0,0.685743269067
406,1_19_1,19,1.0,1360.49756413,1_I,test,05,4,63.0,10000,ignore,1.0,6200.0,0.572809180745
407,1_19_1,19,1.0,1363.15391146,1_I,test,05,4,64.0,00101,ignore,1.0,6300.0,0.515062927952
408,1_19_1,19,1.0,1365.99779217,1_I,test,05,4,65.0,11010,kill,0.0,6200.0,0.71487194982
409,1_19_1,19,1.0,1368.59168654,1_I,test,05,4,66.0,01010,kill,1.0,6300.0,0.514392944482
410,1_19_1,19,1.0,1371.35745712,1_I,test,05,4,67.0,00010,kill,1.0,6400.0,0.613646561553
411,1_19_1,19,1.0,1374.21696503,1_I,test,05,4,68.0,00011,kill,1.0,6500.0,0.701283026552
412,1_19_1,19,1.0,1377.29524308,1_I,test,05,4,69.0,11101,ignore,1.0,6600.0,0.919695995
413,1_19_1,19,1.0,1380.07659816,1_I,test,05,4,70.0,11000,ignore,1.0,6700.0,0.666935289531
414,1_19_1,19,1.0,1382.88925485,1_I,test,05,4,71.0,11111,ignore,1.0,6800.0,0.670185448304
415,1_19_1,19,1.0,1385.67061158,1_I,test,05,4,72.0,11100,ignore,1.0,6900.0,0.619788897733
416,1_19_1,19,1.0,1388.38954818,1_I,test,05,4,73.0,10000,ignore,1.0,7000.0,0.552754834904
417,1_19_1,19,1.0,1391.04592589,1_I,test,05,4,74.0,11011,ignore,1.0,7100.0,0.581861757613
418,1_19_1,19,1.0,1393.93664346,1_I,test,05,4,75.0,01100,kill,0.0,7000.0,0.755658425023
419,1_19_1,19,1.0,1396.68681229,1_I,test,05,4,76.0,00010,kill,1.0,7100.0,0.595894873355
420,1_19_1,19,1.0,1399.46819898,1_I,test,05,4,77.0,01010,kill,1.0,7200.0,0.67064934617
421,1_19_1,19,1.0,1402.40580718,1_I,test,05,4,78.0,00000,ignore,1.0,7300.0,0.758350674765
422,1_19_1,19,1.0,1405.64036708,1_I,test,05,4,79.0,11110,ignore,1.0,7400.0,1.13267150571
423,1_19_1,19,1.0,1408.74368165,1_I,test,05,4,80.0,10011,ignore,0.0,7300.0,0.922523719344
424,1_19_1,19,1.0,1412.21260234,1_I,test,05,4,81.0,10110,ignore,0.0,7200.0,1.30578587378
425,1_19_1,19,1.0,1415.1815376,1_I,test,05,4,82.0,11000,ignore,1.0,7300.0,0.843000951196
426,1_19_1,19,1.0,1418.11918727,1_I,test,05,4,83.0,10111,kill,1.0,7400.0,0.747866582973
427,1_19_1,19,1.0,1420.77559166,1_I,test,05,4,84.0,11111,kill,0.0,7300.0,0.552022451015
428,1_19_1,19,1.0,1425.2757918,1_I,test,05,4,85.0,00100,ignore,1.0,7400.0,2.30981357464
429,1_19_1,19,1.0,1429.0103519,1_I,test,05,4,86.0,10010,kill,1.0,7500.0,1.55610187854
430,1_19_1,19,1.0,1433.1980146,1_I,test,05,4,87.0,10101,ignore,1.0,7600.0,2.04165104946
431,1_19_1,19,1.0,1436.65131958,1_I,test,05,4,88.0,00011,ignore,0.0,7500.0,1.2590110108
432,1_19_1,19,1.0,1439.6201904,1_I,test,05,4,89.0,00001,ignore,1.0,7600.0,0.861294948318
433,1_19_1,19,1.0,1442.51099951,1_I,test,05,4,90.0,00101,ignore,1.0,7700.0,0.72272167647
434,1_19_1,19,1.0,1445.52677286,1_I,test,05,4,91.0,01011,kill,1.0,7800.0,0.850108030729
435,1_19_1,19,1.0,1448.40191208,1_I,test,05,4,92.0,01000,ignore,1.0,7900.0,0.767238218943
436,1_19_1,19,1.0,1451.855199,1_I,test,05,4,93.0,10100,ignore,1.0,8000.0,1.31258834073
437,1_19_1,19,1.0,1454.69908054,1_I,test,05,4,94.0,11001,ignore,1.0,8100.0,0.68105420585
438,1_19_1,19,1.0,1457.6680002,1_I,test,05,4,95.0,11101,ignore,1.0,8200.0,0.802489530482
439,1_19_1,19,1.0,1460.49621677,1_I,test,05,4,96.0,01101,ignore,1.0,8300.0,0.671999165805
440,1_19_1,19,1.0,1463.48078375,1_I,test,05,4,97.0,11010,kill,0.0,8200.0,0.894420540248
441,1_19_1,19,1.0,1466.30901551,1_I,test,05,4,98.0,10001,ignore,1.0,8300.0,0.654198624645
442,1_19_1,19,1.0,1469.96542031,1_I,test,05,4,99.0,00111,kill,1.0,8400.0,1.48147713291
443,1_19_1,19,1.0,1472.8093351,1_I,test,05,4,100.0,01111,kill,1.0,8500.0,0.716894626627
444,1_19_1,19,1.0,1475.63761366,1_I,test,05,4,101.0,01110,kill,1.0,8600.0,0.690243899437
445,1_19_1,19,1.0,1478.5596312,1_I,test,05,4,102.0,11100,ignore,1.0,8700.0,0.816030011318
446,1_19_1,19,1.0,1481.54412839,1_I,test,05,4,103.0,00110,kill,1.0,8800.0,0.840755767626
447,1_19_1,19,1.0,1484.99743912,1_I,test,05,4,104.0,01001,ignore,1.0,8900.0,1.29378118225
448,1_19_1,19,1.0,1488.16946641,1_I,test,05,4,105.0,11110,ignore,1.0,9000.0,1.05860015329
449,1_19_1,19,1.0,1491.10708856,1_I,test,05,4,106.0,00111,kill,1.0,9100.0,0.764096029323
450,1_19_1,19,1.0,1493.95100623,1_I,test,05,4,107.0,10100,ignore,1.0,9200.0,0.721628026986
451,1_19_1,19,1.0,1496.7949046,1_I,test,05,5,0.0,01110,kill,1.0,9300.0,0.716622445841
452,1_19_1,19,1.0,1499.68566568,1_I,test,05,5,1.0,01001,ignore,1.0,9400.0,0.718964103748
453,1_19_1,19,1.0,1502.5295349,1_I,test,05,5,2.0,01100,ignore,1.0,9500.0,0.737249890286
454,1_19_1,19,1.0,1505.45156557,1_I,test,05,5,3.0,10101,ignore,0.0,9400.0,0.795145575667
455,1_19_1,19,1.0,1509.6705697,1_I,test,05,5,4.0,01101,ignore,1.0,9500.0,1.943104774
456,1_19_1,19,1.0,1512.79569445,1_I,test,05,5,5.0,11011,ignore,1.0,9600.0,0.992504559952
457,1_19_1,19,1.0,1515.764555,1_I,test,05,5,6.0,10011,ignore,1.0,9700.0,0.790431880703
458,1_19_1,19,1.0,1518.59279374,1_I,test,05,5,7.0,00101,ignore,0.0,9600.0,0.698469670728
459,1_19_1,19,1.0,1521.6554647,1_I,test,05,5,8.0,01000,ignore,1.0,9700.0,0.935668450142
460,1_19_1,19,1.0,1524.62435727,1_I,test,05,5,9.0,00000,ignore,1.0,9800.0,0.789586190787
461,1_19_1,19,1.0,1527.37452158,1_I,test,05,5,10.0,00010,ignore,1.0,9900.0,0.630327589895
462,1_19_1,19,1.0,1530.40590037,1_I,test,05,5,11.0,10000,ignore,1.0,10000.0,0.879766294001
463,1_19_1,19,1.0,1533.71856384,1_I,test,05,5,12.0,00110,ignore,0.0,9900.0,1.20756884265
464,1_19_1,19,1.0,1536.51559949,1_I,test,05,5,13.0,11100,kill,0.0,9800.0,0.615613406402
465,1_19_1,19,1.0,1540.92206311,1_I,test,05,5,14.0,11010,ignore,1.0,9900.0,2.25135628547
466,1_19_1,19,1.0,1544.9847275,1_I,test,05,5,15.0,01111,kill,1.0,10000.0,1.93975608825
467,1_19_1,19,1.0,1548.92245023,1_I,test,05,5,16.0,00100,ignore,0.0,9900.0,1.7630089483
468,1_19_1,19,1.0,1553.65707069,1_I,test,05,5,17.0,10001,ignore,1.0,10000.0,2.60155647998
469,1_19_1,19,1.0,1556.75091271,1_I,test,05,5,18.0,11001,ignore,1.0,10100.0,0.925218842793
470,1_19_1,19,1.0,1560.29799198,1_I,test,05,5,19.0,01010,ignore,1.0,10200.0,1.41612788145
471,1_19_1,19,1.0,1563.81375445,1_I,test,05,5,20.0,00011,ignore,1.0,10300.0,1.37467511754
472,1_19_1,19,1.0,1566.61081596,1_I,test,05,5,21.0,10010,ignore,1.0,10400.0,0.643238319113
473,1_19_1,19,1.0,1569.64220214,1_I,test,05,5,22.0,11111,kill,1.0,10500.0,0.933529183076
474,1_19_1,19,1.0,1572.61110128,1_I,test,05,5,23.0,10111,kill,1.0,10600.0,0.771091444944
475,1_19_1,19,1.0,1575.4237432,1_I,test,05,5,24.0,10110,kill,1.0,10700.0,0.658035018952
476,1_19_1,19,1.0,1578.43951819,1_I,test,05,5,25.0,11000,ignore,1.0,10800.0,0.923977813367
477,1_19_1,19,1.0,1582.78345945,1_I,test,05,5,26.0,11101,ignore,1.0,10900.0,2.22331345415
478,1_19_1,19,1.0,1585.7836056,1_I,test,05,6,0.0,00001,ignore,1.0,11000.0,0.841447919664
479,1_19_1,19,1.0,1588.83067564,1_I,test,05,6,1.0,01011,ignore,1.0,11100.0,0.905476909586
480,1_19_1,19,1.0,1591.72161407,1_I,test,05,6,2.0,10111,kill,0.0,11000.0,0.673446280833
481,1_19_1,19,1.0,1595.47158585,1_I,test,05,6,3.0,11011,ignore,0.0,10900.0,1.66203808807
482,1_19_1,19,1.0,1599.7530101,1_I,test,05,6,4.0,10110,ignore,0.0,10800.0,2.09882666682
483,1_19_1,19,1.0,1602.80004647,1_I,test,05,6,5.0,00100,ignore,1.0,10900.0,0.873876022679
484,1_19_1,19,1.0,1605.58146642,1_I,test,05,6,6.0,01011,ignore,1.0,11000.0,0.651908282876
485,1_19_1,19,1.0,1608.75348755,1_I,test,05,6,7.0,11111,kill,0.0,10900.0,1.00296812529
486,1_19_1,19,1.0,1611.62861035,1_I,test,05,6,8.0,10000,ignore,0.0,10800.0,0.75532712805
487,1_19_1,19,1.0,1614.48813058,1_I,test,05,6,9.0,00010,ignore,1.0,10900.0,0.710851638483
488,1_19_1,19,1.0,1618.22268986,1_I,test,05,6,10.0,01001,ignore,1.0,11000.0,1.54933718026
489,1_19_1,19,1.0,1621.72287029,1_I,test,05,6,11.0,11110,kill,1.0,11100.0,1.38372851547
490,1_19_1,19,1.0,1625.37931204,1_I,test,05,6,12.0,10100,ignore,0.0,11000.0,1.46807335826
491,1_19_1,19,1.0,1629.34824156,1_I,test,05,6,13.0,00110,kill,0.0,10900.0,1.85941144087
492,1_19_1,19,1.0,1632.89525597,1_I,test,05,6,14.0,00111,ignore,1.0,11000.0,1.37891424088
493,1_19_1,19,1.0,1635.75480288,1_I,test,05,6,15.0,00011,ignore,1.0,11100.0,0.689442957189
494,1_19_1,19,1.0,1638.70808098,1_I,test,05,6,16.0,00001,ignore,1.0,11200.0,0.815704872282
495,1_19_1,19,1.0,1641.31757586,1_I,test,05,6,17.0,10001,ignore,0.0,11100.0,0.46786768319
496,1_19_1,19,1.0,1644.36462167,1_I,test,05,6,18.0,01101,ignore,1.0,11200.0,0.866738974522
497,1_19_1,19,1.0,1648.70857361,1_I,test,05,6,19.0,10010,ignore,0.0,11100.0,2.18755965501
498,1_19_1,19,1.0,1651.97431812,1_I,test,05,6,20.0,10011,ignore,0.0,11000.0,1.0293848509
499,1_19_1,19,1.0,1654.80258518,1_I,test,05,6,21.0,01000,ignore,1.0,11100.0,0.697045955856
500,1_19_1,19,1.0,1657.59510091,1_I,test,05,6,22.0,00000,ignore,1.0,11200.0,0.660744921446
501,1_19_1,19,1.0,1660.51713733,1_I,test,05,6,23.0,11101,kill,0.0,11100.0,0.752248980963
502,1_19_1,19,1.0,1663.58270868,1_I,test,05,6,24.0,01111,ignore,1.0,11200.0,0.891870744095
503,1_19_1,19,1.0,1667.082924,1_I,test,05,6,25.0,11010,kill,1.0,11300.0,1.28495809114
504,1_19_1,19,1.0,1670.16430688,1_I,test,05,6,26.0,10101,kill,0.0,11200.0,0.940488472137
505,1_19_1,19,1.0,1675.70527091,1_I,test,05,6,27.0,11000,kill,1.0,11300.0,3.35077329311
506,1_19_1,19,1.0,1678.34600377,1_I,test,05,6,28.0,11001,ignore,0.0,11200.0,0.479020526865
507,1_19_1,19,1.0,1681.30400007,1_I,test,05,6,29.0,11100,ignore,0.0,11100.0,0.831552526581
508,1_19_1,19,1.0,1684.74162613,1_I,test,05,6,30.0,01010,ignore,1.0,11200.0,1.29078021463
509,1_19_1,19,1.0,1687.64800415,1_I,test,05,6,31.0,00101,ignore,1.0,11300.0,0.787373439014
510,1_19_1,19,1.0,1690.66381445,1_I,test,05,6,32.0,01100,ignore,1.0,11400.0,0.836101188852
511,1_19_1,19,1.0,1694.13269737,1_I,test,05,6,33.0,01110,kill,0.0,11300.0,1.30982219575
512,1_19_1,19,1.0,1696.88285594,1_I,test,05,6,34.0,10110,ignore,0.0,11200.0,0.647802170961
513,1_19_1,19,1.0,1699.42986336,1_I,test,05,6,35.0,01000,ignore,1.0,11300.0,0.388243514359
514,1_19_1,19,1.0,1701.96120705,1_I,test,05,6,36.0,00000,ignore,1.0,11400.0,0.424133609155
515,1_19_1,19,1.0,1704.83637542,1_I,test,05,6,37.0,11000,ignore,0.0,11300.0,0.754354584644
516,1_19_1,19,1.0,1708.16466855,1_I,test,05,6,38.0,01011,ignore,1.0,11400.0,1.17460746235
517,1_19_1,19,1.0,1710.99292782,1_I,test,05,6,39.0,00001,ignore,1.0,11500.0,0.69188026837
518,1_19_1,19,1.0,1715.44631737,1_I,test,05,6,40.0,01110,kill,0.0,11400.0,2.33911262496
519,1_19_1,19,1.0,1718.21203294,1_I,test,05,6,41.0,01001,ignore,1.0,11500.0,0.599550224333
520,1_19_1,19,1.0,1721.36842317,1_I,test,05,6,42.0,11111,kill,0.0,11400.0,1.01333809
521,1_19_1,19,1.0,1724.32167417,1_I,test,05,6,43.0,10101,ignore,1.0,11500.0,0.76659779357
522,1_19_1,19,1.0,1727.19685527,1_I,test,05,6,44.0,11001,ignore,0.0,11400.0,0.767693906229
523,1_19_1,19,1.0,1730.29077693,1_I,test,05,6,45.0,11010,ignore,0.0,11300.0,0.940356692301
524,1_19_1,19,1.0,1733.3065121,1_I,test,05,6,46.0,11011,ignore,0.0,11200.0,0.862985096563
525,1_19_1,19,1.0,1737.32235442,1_I,test,05,6,47.0,10100,ignore,0.0,11100.0,1.87424385674
526,1_19_1,19,1.0,1740.47871509,1_I,test,05,6,48.0,00011,ignore,1.0,11200.0,0.973918266121
527,1_19_1,19,1.0,1743.05698349,1_I,test,05,6,49.0,11100,kill,1.0,11300.0,0.477930572142
528,1_19_1,19,1.0,1745.82272615,1_I,test,05,6,50.0,10011,kill,1.0,11400.0,0.584218605096
529,1_19_1,19,1.0,1748.60414404,1_I,test,05,6,51.0,10000,kill,1.0,11500.0,0.601285941309
530,1_19_1,19,1.0,1751.32299895,1_I,test,05,6,52.0,00100,ignore,1.0,11600.0,0.574568297876
531,1_19_1,19,1.0,1754.02628125,1_I,test,05,6,53.0,01100,ignore,1.0,11700.0,0.524341706347
532,1_19_1,19,1.0,1756.82327913,1_I,test,05,6,54.0,11101,kill,0.0,11600.0,0.682709869652
533,1_19_1,19,1.0,1761.1672516,1_I,test,05,6,55.0,00111,ignore,1.0,11700.0,2.15096386071
534,1_19_1,19,1.0,1763.7767822,1_I,test,05,6,56.0,01010,ignore,1.0,11800.0,0.475210406419
535,1_19_1,19,1.0,1766.9644178,1_I,test,05,6,57.0,00110,ignore,1.0,11900.0,1.0610477277
536,1_19_1,19,1.0,1769.80830591,1_I,test,05,6,58.0,01111,ignore,1.0,12000.0,0.686670654271
537,1_19_1,19,1.0,1772.85529424,1_I,test,05,6,59.0,00010,ignore,1.0,12100.0,0.940199459663
538,1_19_1,19,1.0,1775.69920944,1_I,test,05,6,60.0,00101,ignore,1.0,12200.0,0.598216415334
539,1_19_1,19,1.0,1778.40247738,1_I,test,05,6,61.0,01101,ignore,1.0,12300.0,0.539459439933
540,1_19_1,19,1.0,1784.0121102,1_I,test,05,6,62.0,10111,kill,0.0,12200.0,3.50674848238
541,1_19_1,19,1.0,1787.48101611,1_I,test,05,6,63.0,11110,kill,1.0,12300.0,1.36334574636
542,1_19_1,19,1.0,1790.84057308,1_I,test,05,6,64.0,10010,kill,1.0,12400.0,1.20507200475
543,1_19_1,19,1.0,1794.325091,1_I,test,05,6,65.0,10001,ignore,0.0,12300.0,1.24614626084
544,1_19_1,19,1.0,1797.55963818,1_I,test,05,6,66.0,11011,kill,1.0,12400.0,0.994425836074
545,1_19_1,19,1.0,1801.05980875,1_I,test,05,6,67.0,00101,ignore,1.0,12500.0,1.24660974818
546,1_19_1,19,1.0,1804.96626436,1_I,test,05,6,68.0,01100,ignore,1.0,12600.0,1.62121466525
547,1_19_1,19,1.0,1807.91951249,1_I,test,05,6,69.0,01001,ignore,1.0,12700.0,0.653402198219
548,1_19_1,19,1.0,1811.20093921,1_I,test,05,6,70.0,10011,ignore,0.0,12600.0,1.14100606721
549,1_19_1,19,1.0,1816.49804773,1_I,test,05,6,71.0,10111,kill,0.0,12500.0,3.14647513569
550,1_19_1,19,1.0,1819.40445982,1_I,test,05,6,72.0,10010,ignore,0.0,12400.0,0.810364709934
551,1_19_1,19,1.0,1823.18589126,1_I,test,05,6,73.0,10101,ignore,1.0,12500.0,1.58268076314
552,1_19_1,19,1.0,1826.49855063,1_I,test,05,6,74.0,01110,ignore,1.0,12600.0,1.18798701579
553,1_19_1,19,1.0,1830.1549657,1_I,test,05,6,75.0,11010,kill,1.0,12700.0,1.53607503815
554,1_19_1,19,1.0,1833.73330142,1_I,test,05,6,76.0,11001,kill,1.0,12800.0,1.42283141089
555,1_19_1,19,1.0,1836.65530541,1_I,test,05,6,77.0,01000,ignore,1.0,12900.0,0.823427334915
556,1_19_1,19,1.0,1839.85858587,1_I,test,05,6,78.0,10000,kill,1.0,13000.0,1.06301785678
557,1_19_1,19,1.0,1842.71816234,1_I,test,05,6,79.0,00010,ignore,1.0,13100.0,0.698580513579
558,1_19_1,19,1.0,1846.90581436,1_I,test,05,6,80.0,10100,ignore,0.0,13000.0,2.06664241808
559,1_19_1,19,1.0,1849.90593834,1_I,test,05,6,81.0,01111,ignore,1.0,13100.0,0.870429631004
560,1_19_1,19,1.0,1853.97178393,1_I,test,05,6,82.0,10110,kill,1.0,13200.0,1.88746740912
561,1_19_1,19,1.0,1857.17512144,1_I,test,05,6,83.0,11110,kill,1.0,13300.0,1.04166829168
562,1_19_1,19,1.0,1860.20644892,1_I,test,05,6,84.0,11000,kill,1.0,13400.0,0.87076421221
563,1_19_1,19,1.0,1863.28476473,1_I,test,05,6,85.0,01010,ignore,1.0,13500.0,0.971232584843
564,1_19_1,19,1.0,1867.12872181,1_I,test,05,6,86.0,10001,kill,1.0,13600.0,1.70001284956
565,1_19_1,19,1.0,1870.28510834,1_I,test,05,6,87.0,11111,ignore,1.0,13700.0,0.996424291663
566,1_19_1,19,1.0,1873.16024141,1_I,test,05,6,88.0,00111,ignore,1.0,13800.0,0.702295801806
567,1_19_1,19,1.0,1876.61354721,1_I,test,05,6,89.0,01101,ignore,1.0,13900.0,1.2874458974
568,1_19_1,19,1.0,1879.83244379,1_I,test,05,6,90.0,00100,kill,0.0,13800.0,1.10567593409
569,1_19_1,19,1.0,1882.66073917,1_I,test,05,6,91.0,00001,ignore,1.0,13900.0,0.616296937329
570,1_19_1,19,1.0,1885.9264767,1_I,test,05,6,92.0,11101,ignore,1.0,14000.0,1.06934780476
571,1_19_1,19,1.0,1889.16103168,1_I,test,05,6,93.0,11100,ignore,0.0,13900.0,1.10859192218
572,1_19_1,19,1.0,1892.59869181,1_I,test,05,6,94.0,00000,ignore,1.0,14000.0,1.26112523559
573,1_19_1,19,1.0,1895.53633572,1_I,test,05,6,95.0,00011,ignore,1.0,14100.0,0.817612190414
574,1_19_1,19,1.0,1898.25521854,1_I,test,05,6,96.0,01011,ignore,1.0,14200.0,0.547011122464
575,1_19_1,19,1.0,1902.23979209,1_I,test,05,6,97.0,00110,ignore,1.0,14300.0,1.82871207584
576,1_19_1,19,1.0,1905.38058468,1_I,test,05,6,98.0,01010,ignore,1.0,14400.0,1.02323389361
577,1_19_1,19,1.0,1908.27134782,1_I,test,05,6,99.0,01001,ignore,1.0,14500.0,0.722956909636
578,1_19_1,19,1.0,1910.95896269,1_I,test,05,6,100.0,10001,ignore,0.0,14400.0,0.584021140605
579,1_19_1,19,1.0,1914.02158357,1_I,test,05,6,101.0,11101,ignore,1.0,14500.0,0.922143569411
580,1_19_1,19,1.0,1919.06869999,1_I,test,05,6,102.0,00111,ignore,1.0,14600.0,2.87478370249
581,1_19_1,19,1.0,1921.69384588,1_I,test,05,6,103.0,00001,ignore,1.0,14700.0,0.48870408694
582,1_19_1,19,1.0,1925.45964314,1_I,test,05,6,104.0,10110,kill,1.0,14800.0,1.64129528495
583,1_19_1,19,1.0,1928.72553339,1_I,test,05,6,105.0,00100,ignore,1.0,14900.0,1.07872141537
584,1_19_1,19,1.0,1931.97560718,1_I,test,05,6,106.0,11001,ignore,0.0,14800.0,1.10188059269
585,1_19_1,19,1.0,1935.46012634,1_I,test,05,6,107.0,11100,kill,1.0,14900.0,1.32603645252
586,1_19_1,19,1.0,1938.7103315,1_I,test,05,6,108.0,11000,kill,1.0,15000.0,1.16020322832
587,1_19_1,19,1.0,1941.88231937,1_I,test,05,6,109.0,11110,kill,1.0,15100.0,1.02202406439
588,1_19_1,19,1.0,1944.86683955,1_I,test,05,6,110.0,01110,ignore,1.0,15200.0,0.826505071471
589,1_19_1,19,1.0,1947.88264369,1_I,test,05,6,111.0,11111,ignore,1.0,15300.0,0.872442455111
590,1_19_1,19,1.0,1950.77338918,1_I,test,05,6,112.0,01111,ignore,1.0,15400.0,0.728034743897
591,1_19_1,19,1.0,1954.78925243,1_I,test,05,6,113.0,10000,kill,1.0,15500.0,1.92556163458
592,1_19_1,19,1.0,1958.44565354,1_I,test,05,6,114.0,10010,kill,1.0,15600.0,1.49174405482
593,1_19_1,19,1.0,1961.33644213,1_I,test,05,6,115.0,00101,ignore,1.0,15700.0,0.702170590435
594,1_19_1,19,1.0,1964.3990704,1_I,test,05,6,116.0,10100,ignore,0.0,15600.0,0.939112789172
595,1_19_1,19,1.0,1967.6648888,1_I,test,05,6,117.0,01011,ignore,1.0,15700.0,1.08753958014
596,1_19_1,19,1.0,1971.11811702,1_I,test,05,6,118.0,10111,ignore,1.0,15800.0,1.36435482686
597,1_19_1,19,1.0,1974.11826152,1_I,test,05,6,119.0,10101,ignore,1.0,15900.0,0.860094150741
598,1_19_1,19,1.0,1977.46221223,1_I,test,05,6,120.0,11010,kill,1.0,16000.0,1.19438798529
599,1_19_1,19,1.0,1980.35295772,1_I,test,05,6,121.0,01100,ignore,1.0,16100.0,0.755348475563
600,1_19_1,19,1.0,1983.24375739,1_I,test,05,6,122.0,11011,ignore,0.0,16000.0,0.721821796713
601,1_19_1,19,1.0,1986.1657425,1_I,test,05,6,123.0,00010,ignore,1.0,16100.0,0.831527073778
602,1_19_1,19,1.0,1990.24408458,1_I,test,05,6,124.0,00110,ignore,1.0,16200.0,1.92523239025
603,1_19_1,19,1.0,1992.99419922,1_I,test,05,6,125.0,01101,ignore,1.0,16300.0,0.569098408338
604,1_19_1,19,1.0,1996.1505833,1_I,test,05,6,126.0,01000,ignore,1.0,16400.0,1.03938985525
605,1_19_1,19,1.0,1998.80697169,1_I,test,05,6,127.0,00011,ignore,1.0,16500.0,0.547683979636
606,1_19_1,19,1.0,2001.57275663,1_I,test,05,6,128.0,10011,ignore,0.0,16400.0,0.631405228743
607,1_19_1,19,1.0,2004.36975985,1_I,test,05,6,129.0,00000,ignore,1.0,16500.0,0.618004327798
608,1_19_1,19,1.0,2007.44805185,1_I,test,05,7,0.0,11111,ignore,1.0,16600.0,0.916922871027
609,1_19_1,19,1.0,2010.13565236,1_I,test,05,7,1.0,00001,ignore,1.0,16700.0,0.566391379545
610,1_19_1,19,1.0,2012.93266009,1_I,test,05,7,2.0,11001,ignore,1.0,16800.0,0.64853866014
611,1_19_1,19,1.0,2016.2453679,1_I,test,05,7,3.0,01100,ignore,1.0,16900.0,1.13945590938
612,1_19_1,19,1.0,2018.87046001,1_I,test,05,7,4.0,01000,ignore,1.0,17000.0,0.48667894696
613,1_19_1,19,1.0,2022.69878906,1_I,test,05,7,5.0,11010,ignore,1.0,17100.0,1.69187575255
614,1_19_1,19,1.0,2025.55828097,1_I,test,05,7,6.0,01001,ignore,1.0,17200.0,0.734248922668
615,1_19_1,19,1.0,2028.43344769,1_I,test,05,7,7.0,01111,ignore,0.0,17100.0,0.682748869916
616,1_19_1,19,1.0,2031.44923664,1_I,test,05,7,8.0,01011,ignore,0.0,17000.0,0.860963240815
617,1_19_1,19,1.0,2035.0275075,1_I,test,05,7,9.0,10100,ignore,1.0,17100.0,1.46149298755
618,1_19_1,19,1.0,2037.82455711,1_I,test,05,7,10.0,10010,ignore,0.0,17000.0,0.642561767181
619,1_19_1,19,1.0,2041.10594278,1_I,test,05,7,11.0,11100,ignore,1.0,17100.0,1.18067713489
620,1_19_1,19,1.0,2044.12173091,1_I,test,05,7,12.0,00111,kill,1.0,17200.0,0.845894770722
621,1_19_1,19,1.0,2048.1531762,1_I,test,05,7,13.0,11110,ignore,1.0,17300.0,1.87044728375
622,1_19_1,19,1.0,2050.85640965,1_I,test,05,7,14.0,10000,kill,0.0,17200.0,0.607036632742
623,1_19_1,19,1.0,2054.74720809,1_I,test,05,7,15.0,01101,kill,0.0,17100.0,1.75670486366
624,1_19_1,19,1.0,2057.57552114,1_I,test,05,7,16.0,11011,ignore,1.0,17200.0,0.673360069724
625,1_19_1,19,1.0,2063.12263325,1_I,test,05,7,17.0,10001,kill,0.0,17100.0,3.3667859801
626,1_19_1,19,1.0,2065.96652012,1_I,test,05,7,18.0,00010,ignore,0.0,17000.0,0.699103117107
627,1_19_1,19,1.0,2068.87291538,1_I,test,05,7,19.0,10111,ignore,0.0,16900.0,0.784881937992
628,1_19_1,19,1.0,2071.4199224,1_I,test,05,7,20.0,00101,ignore,1.0,17000.0,0.399621738501
629,1_19_1,19,1.0,2074.38882564,1_I,test,05,7,21.0,10101,ignore,1.0,17100.0,0.791160159302
630,1_19_1,19,1.0,2078.15463974,1_I,test,05,7,22.0,10110,kill,1.0,17200.0,1.66376395235
631,1_19_1,19,1.0,2081.63917778,1_I,test,05,7,23.0,10011,kill,1.0,17300.0,1.32943399123
632,1_19_1,19,1.0,2084.63930504,1_I,test,05,7,24.0,11101,ignore,1.0,17400.0,0.910777250612
633,1_19_1,19,1.0,2088.49885196,1_I,test,05,7,25.0,11000,ignore,1.0,17500.0,1.66956021251
634,1_19_1,19,1.0,2091.73343566,1_I,test,05,7,26.0,00000,kill,0.0,17400.0,1.02959955761
635,1_19_1,19,1.0,2095.03044443,1_I,test,05,7,27.0,01110,kill,1.0,17500.0,1.17696061507
636,1_19_1,19,1.0,2097.95243897,1_I,test,05,7,28.0,00110,kill,1.0,17600.0,0.732553848075
637,1_19_1,19,1.0,2100.74948981,1_I,test,05,7,29.0,01010,kill,1.0,17700.0,0.70306225961
638,1_19_1,19,1.0,2103.62463232,1_I,test,05,7,30.0,00011,kill,1.0,17800.0,0.704471195431
639,1_19_1,19,1.0,2107.06229697,1_I,test,05,7,31.0,00100,ignore,1.0,17900.0,1.21842897908
