,unique_id,pair_id,sbj_id,wall_time,condition,block,rule_id,rule_num,trial,stimulus,choice,correct,points,reaction_time
0,1_5_1,5,1.0,41.1489706373,1_I,training,05,1_A,1.0,11111,ignore,1.0,100.0,12.0830190043
1,1_5_1,5,1.0,47.8395899463,1_I,training,05,1_A,2.0,11000,ignore,0.0,0.0,4.49675435039
2,1_5_1,5,1.0,51.8338326746,1_I,training,05,1_A,3.0,11100,kill,0.0,0.0,1.82933326655
3,1_5_1,5,1.0,55.3840269373,1_I,training,05,1_A,4.0,11001,kill,0.0,0.0,1.42124599118
4,1_5_1,5,1.0,58.4935440063,1_I,training,05,1_A,5.0,00110,kill,1.0,100.0,0.937929106408
5,1_5_1,5,1.0,62.0249474932,1_I,training,05,1_A,6.0,01101,ignore,1.0,200.0,1.3761295731
6,1_5_1,5,1.0,65.0563550854,1_I,training,05,1_A,7.0,10011,ignore,1.0,300.0,0.878135422328
7,1_5_1,5,1.0,69.2909684237,1_I,training,05,1_A,8.0,00101,ignore,1.0,400.0,2.06070464999
8,1_5_1,5,1.0,71.9316935673,1_I,training,05,1_A,9.0,10001,ignore,1.0,500.0,0.482313549622
9,1_5_1,5,1.0,74.9631184018,1_I,training,05,1_A,10.0,10010,kill,1.0,600.0,0.876343869721
10,1_5_1,5,1.0,77.8070299966,1_I,training,05,1_A,11.0,10000,kill,1.0,700.0,0.685874814646
11,1_5_1,5,1.0,80.8696875375,1_I,training,05,1_A,12.0,10111,ignore,1.0,800.0,0.909234295998
12,1_5_1,5,1.0,83.9635753216,1_I,training,05,1_A,13.0,01100,kill,1.0,900.0,0.933272875959
13,1_5_1,5,1.0,86.5730669377,1_I,training,05,1_A,14.0,11011,ignore,1.0,1000.0,0.456290878518
14,1_5_1,5,1.0,90.8233050451,1_I,training,05,1_A,15.0,01011,ignore,1.0,1100.0,2.10047843158
15,1_5_1,5,1.0,94.1984624833,1_I,training,05,1_A,16.0,01110,kill,1.0,1200.0,1.24894124331
16,1_5_1,5,1.0,97.1830052104,1_I,training,05,1_A,17.0,00010,kill,1.0,1300.0,0.839531651037
17,1_5_1,5,1.0,100.542509553,1_I,training,05,1_A,18.0,11110,kill,0.0,1200.0,1.24720634384
18,1_5_1,5,1.0,104.542750945,1_I,training,05,1_A,19.0,00111,ignore,1.0,1300.0,1.84595521283
19,1_5_1,5,1.0,111.246200546,1_I,training,05,1_A,20.0,01111,ignore,1.0,1400.0,4.56884258476
20,1_5_1,5,1.0,115.058874918,1_I,training,05,1_A,21.0,11101,ignore,1.0,1500.0,1.68968494291
21,1_5_1,5,1.0,117.809017783,1_I,training,05,1_A,22.0,00100,kill,1.0,1600.0,0.604186748422
22,1_5_1,5,1.0,121.059205395,1_I,training,05,1_A,23.0,00001,ignore,1.0,1700.0,1.10750300918
23,1_5_1,5,1.0,124.106250482,1_I,training,05,1_A,24.0,00011,ignore,1.0,1800.0,0.892106576854
24,1_5_1,5,1.0,126.746967415,1_I,training,05,1_A,25.0,01001,ignore,1.0,1900.0,0.492474165351
25,1_5_1,5,1.0,130.387803402,1_I,training,05,1_A,26.0,10100,kill,0.0,1800.0,1.49154595718
26,1_5_1,5,1.0,133.575452527,1_I,training,05,1_A,27.0,10101,ignore,1.0,1900.0,1.06480584398
27,1_5_1,5,1.0,137.06003836,1_I,training,05,1_A,28.0,11010,kill,1.0,2000.0,1.36110540931
28,1_5_1,5,1.0,142.513439929,1_I,training,05,1_A,29.0,01000,kill,1.0,2100.0,3.31082945109
29,1_5_1,5,1.0,145.74797034,1_I,training,05,1_A,30.0,01010,kill,1.0,2200.0,1.10103387857
30,1_5_1,5,1.0,148.435582517,1_I,training,05,1_A,31.0,10110,kill,0.0,2100.0,0.550893395231
31,1_5_1,5,1.0,152.138958223,1_I,training,05,1_A,32.0,00000,kill,1.0,2200.0,1.55052473935
32,1_5_1,5,1.0,154.935928184,1_I,training,05,1_A,33.0,11101,ignore,1.0,2300.0,0.657476817375
33,1_5_1,5,1.0,159.389322363,1_I,training,05,1_A,34.0,10000,kill,1.0,2400.0,2.34144554156
34,1_5_1,5,1.0,162.717561978,1_I,training,05,1_A,35.0,10111,ignore,1.0,2500.0,1.16967325102
35,1_5_1,5,1.0,165.233353011,1_I,training,05,1_A,36.0,10101,ignore,1.0,2600.0,0.338196607709
36,1_5_1,5,1.0,168.26474993,1_I,training,05,1_A,37.0,10100,kill,0.0,2500.0,0.866914818324
37,1_5_1,5,1.0,172.968087045,1_I,training,05,1_A,38.0,01100,kill,1.0,2600.0,2.55594127123
38,1_5_1,5,1.0,176.124521938,1_I,training,05,1_A,39.0,10011,ignore,1.0,2700.0,1.00263560214
39,1_5_1,5,1.0,179.265299219,1_I,training,05,1_A,40.0,01000,kill,1.0,2800.0,0.997786012096
40,1_5_1,5,1.0,182.343581939,1_I,training,05,1_A,41.0,11001,ignore,1.0,2900.0,0.952401517975
41,1_5_1,5,1.0,185.031214643,1_I,training,05,1_A,42.0,00010,kill,1.0,3000.0,0.535367153336
42,1_5_1,5,1.0,187.937617514,1_I,training,05,1_A,43.0,01110,kill,1.0,3100.0,0.759022626768
43,1_5_1,5,1.0,190.609633249,1_I,training,05,1_A,44.0,00001,ignore,1.0,3200.0,0.530490878846
44,1_5_1,5,1.0,193.625420588,1_I,training,05,1_A,45.0,01111,ignore,1.0,3300.0,0.878164159424
45,1_5_1,5,1.0,196.766178574,1_I,training,05,1_A,46.0,10110,kill,0.0,3200.0,0.990720792027
46,1_5_1,5,1.0,199.81320683,1_I,training,05,1_A,47.0,01001,ignore,1.0,3300.0,0.908241634632
47,1_5_1,5,1.0,202.907132383,1_I,training,05,1_A,48.0,01011,ignore,1.0,3400.0,0.956430869223
48,1_5_1,5,1.0,205.485378156,1_I,training,05,1_A,49.0,00111,ignore,1.0,3500.0,0.439112253661
49,1_5_1,5,1.0,207.954268198,1_I,training,05,1_A,50.0,11011,ignore,1.0,3600.0,0.32929878204
50,1_5_1,5,1.0,211.488894755,1_I,training,05,1_A,51.0,01010,kill,1.0,3700.0,1.39978061281
51,1_5_1,5,1.0,214.379608814,1_I,training,05,1_A,52.0,00101,ignore,1.0,3800.0,0.690700183425
52,1_5_1,5,1.0,217.145372753,1_I,training,05,1_A,53.0,00011,ignore,1.0,3900.0,0.600639769841
53,1_5_1,5,1.0,220.208018388,1_I,training,05,1_A,54.0,00000,kill,1.0,4000.0,0.932339741432
54,1_5_1,5,1.0,222.911273809,1_I,training,05,1_A,55.0,01101,ignore,1.0,4100.0,0.54636114482
55,1_5_1,5,1.0,225.520770351,1_I,training,05,1_A,56.0,11000,kill,1.0,4200.0,0.424569641476
56,1_5_1,5,1.0,228.411548864,1_I,training,05,1_A,57.0,00110,kill,1.0,4300.0,0.737063380895
57,1_5_1,5,1.0,231.505472774,1_I,training,05,1_A,58.0,11110,kill,0.0,4200.0,0.948368471958
58,1_5_1,5,1.0,234.911913414,1_I,training,05,1_A,59.0,00100,kill,1.0,4300.0,1.23934346412
59,1_5_1,5,1.0,237.349527234,1_I,training,05,1_A,60.0,11111,ignore,1.0,4400.0,0.309539566053
60,1_5_1,5,1.0,239.958991344,1_I,training,05,1_A,61.0,10001,ignore,1.0,4500.0,0.456352047477
61,1_5_1,5,1.0,243.177916281,1_I,training,05,1_A,62.0,11010,kill,1.0,4600.0,1.10760153637
62,1_5_1,5,1.0,245.849949259,1_I,training,05,1_A,63.0,11100,kill,0.0,4500.0,0.558450019624
63,1_5_1,5,1.0,249.303253121,1_I,training,05,1_A,64.0,10010,kill,1.0,4600.0,1.33103901841
64,1_5_1,5,1.0,254.053504366,1_I,training,05,1_A,65.0,01110,kill,1.0,4700.0,2.61230744094
65,1_5_1,5,1.0,256.647383529,1_I,training,05,1_A,66.0,01011,ignore,1.0,4800.0,0.449843505991
66,1_5_1,5,1.0,263.022720779,1_I,training,05,1_A,67.0,11100,kill,0.0,4700.0,4.25334951369
67,1_5_1,5,1.0,266.288497855,1_I,training,05,1_A,68.0,10110,kill,0.0,4600.0,1.1251722173
68,1_5_1,5,1.0,270.194945473,1_I,training,05,1_A,69.0,10100,kill,0.0,4500.0,1.73195556752
69,1_5_1,5,1.0,273.11698584,1_I,training,05,1_A,70.0,11001,ignore,1.0,4600.0,0.782539833719
70,1_5_1,5,1.0,276.257759426,1_I,training,05,1_A,71.0,00101,ignore,1.0,4700.0,0.970899996551
71,1_5_1,5,1.0,279.679773929,1_I,training,05,1_A,72.0,00010,kill,1.0,4800.0,1.29404698761
72,1_5_1,5,1.0,282.523712209,1_I,training,05,1_A,73.0,01111,ignore,1.0,4900.0,0.696712804757
73,1_5_1,5,1.0,285.242582135,1_I,training,05,1_A,74.0,10101,ignore,1.0,5000.0,0.554409994597
74,1_5_1,5,1.0,290.461584251,1_I,training,05,1_A,75.0,00100,ignore,0.0,4900.0,3.04964825796
75,1_5_1,5,1.0,293.367976859,1_I,training,05,1_A,76.0,01100,kill,1.0,5000.0,0.764790161732
76,1_5_1,5,1.0,296.289987668,1_I,training,05,1_A,77.0,11111,ignore,1.0,5100.0,0.790559946401
77,1_5_1,5,1.0,299.243294815,1_I,training,05,1_A,78.0,00111,ignore,1.0,5200.0,0.778370491766
78,1_5_1,5,1.0,302.134035969,1_I,training,05,1_A,79.0,10111,ignore,1.0,5300.0,0.728466063133
79,1_5_1,5,1.0,305.227972606,1_I,training,05,1_A,80.0,00000,kill,1.0,5400.0,0.959078376732
80,1_5_1,5,1.0,308.384402983,1_I,training,05,1_A,81.0,10010,kill,1.0,5500.0,1.01532097693
81,1_5_1,5,1.0,311.743940578,1_I,training,05,1_A,82.0,11011,ignore,1.0,5600.0,1.22583661894
82,1_5_1,5,1.0,318.04112073,1_I,training,05,1_A,83.0,00110,ignore,0.0,5500.0,4.13757473697
83,1_5_1,5,1.0,320.806920796,1_I,training,05,1_A,84.0,01101,ignore,1.0,5600.0,0.602035161067
84,1_5_1,5,1.0,323.510170879,1_I,training,05,1_A,85.0,10001,ignore,1.0,5700.0,0.558726716795
85,1_5_1,5,1.0,326.713427941,1_I,training,05,1_A,86.0,01010,kill,1.0,5800.0,1.06244078106
86,1_5_1,5,1.0,329.213615554,1_I,training,05,1_A,87.0,01000,kill,1.0,5900.0,0.365026380653
87,1_5_1,5,1.0,332.201197023,1_I,training,05,1_A,88.0,01001,ignore,1.0,6000.0,0.828463353635
88,1_5_1,5,1.0,335.010731663,1_I,training,05,1_A,89.0,11110,kill,0.0,5900.0,0.675506060243
89,1_5_1,5,1.0,337.74527439,1_I,training,05,1_A,90.0,10000,kill,1.0,6000.0,0.586824206158
90,1_5_1,5,1.0,340.62038708,1_I,training,05,1_A,91.0,11010,kill,1.0,6100.0,0.723696936954
91,1_5_1,5,1.0,343.136152251,1_I,training,05,1_A,92.0,11000,kill,1.0,6200.0,0.392785593355
92,1_5_1,5,1.0,345.714394739,1_I,training,05,1_A,93.0,00001,ignore,1.0,6300.0,0.445875323703
93,1_5_1,5,1.0,348.480159499,1_I,training,05,1_A,94.0,00011,ignore,1.0,6400.0,0.606442610379
94,1_5_1,5,1.0,351.199082384,1_I,training,05,1_A,95.0,11101,ignore,1.0,6500.0,0.604852627966
95,1_5_1,5,1.0,353.777304346,1_I,training,05,1_A,96.0,10011,ignore,1.0,6600.0,0.429532127251
96,1_5_1,5,1.0,356.464928018,1_I,training,05,1_A,97.0,11001,ignore,1.0,6700.0,0.521554052834
97,1_5_1,5,1.0,359.105700783,1_I,training,05,1_A,98.0,01011,ignore,1.0,6800.0,0.486748914969
98,1_5_1,5,1.0,363.105943817,1_I,training,05,1_A,99.0,00110,kill,1.0,6900.0,1.856512811
99,1_5_1,5,1.0,366.074826469,1_I,training,05,1_A,100.0,10111,ignore,1.0,7000.0,0.828805325066
100,1_5_1,5,1.0,370.23126834,1_I,training,05,1_A,101.0,11110,kill,0.0,6900.0,2.01938932852
101,1_5_1,5,1.0,373.747083185,1_I,training,05,1_A,102.0,00010,kill,1.0,7000.0,1.35235332176
102,1_5_1,5,1.0,376.403492624,1_I,training,05,1_A,103.0,10000,kill,1.0,7100.0,0.52260500945
103,1_5_1,5,1.0,380.434904322,1_I,training,05,1_A,104.0,11100,kill,0.0,7000.0,1.9064168291
104,1_5_1,5,1.0,383.419466344,1_I,training,05,1_A,105.0,11011,ignore,1.0,7100.0,0.840213541248
105,1_5_1,5,1.0,386.700874347,1_I,training,05,1_A,106.0,11000,kill,1.0,7200.0,1.11416755204
106,1_5_1,5,1.0,390.99797034,1_I,training,05,1_A,107.0,10110,kill,0.0,7100.0,2.15670337899
107,1_5_1,5,1.0,393.998089804,1_I,training,05,1_A,108.0,10101,ignore,1.0,7200.0,0.853068464897
108,1_5_1,5,1.0,398.2170599,1_I,training,05,1_A,109.0,00100,kill,1.0,7300.0,2.02884875913
109,1_5_1,5,1.0,401.029760136,1_I,training,05,1_A,110.0,01001,ignore,1.0,7400.0,0.651805756943
110,1_5_1,5,1.0,403.545471116,1_I,training,05,1_A,111.0,01111,ignore,1.0,7500.0,0.373291169173
111,1_5_1,5,1.0,406.076835602,1_I,training,05,1_A,112.0,11111,ignore,1.0,7600.0,0.373449223195
112,1_5_1,5,1.0,408.842646342,1_I,training,05,1_A,113.0,00111,ignore,1.0,7700.0,0.626042951284
113,1_5_1,5,1.0,411.498999949,1_I,training,05,1_A,114.0,00011,ignore,1.0,7800.0,0.474246225998
114,1_5_1,5,1.0,417.124292041,1_I,training,05,1_A,115.0,01110,kill,1.0,7900.0,3.46918726569
115,1_5_1,5,1.0,420.155707433,1_I,training,05,1_A,116.0,11101,ignore,1.0,8000.0,0.885155894635
116,1_5_1,5,1.0,423.155860151,1_I,training,05,1_A,117.0,00000,kill,1.0,8100.0,0.84020286747
117,1_5_1,5,1.0,426.187275132,1_I,training,05,1_A,118.0,10001,ignore,1.0,8200.0,0.890388098573
118,1_5_1,5,1.0,430.640606911,1_I,training,05,1_A,119.0,01100,ignore,0.0,8100.0,2.2882938212
119,1_5_1,5,1.0,433.859520353,1_I,training,05,1_A,120.0,01101,ignore,1.0,8200.0,1.05416490823
120,1_5_1,5,1.0,437.500335813,1_I,training,05,1_A,121.0,10100,kill,0.0,8100.0,1.49711479566
121,1_5_1,5,1.0,440.938024349,1_I,training,05,1_A,122.0,00101,ignore,1.0,8200.0,1.25494442246
122,1_5_1,5,1.0,443.531868617,1_I,training,05,1_A,123.0,10011,ignore,1.0,8300.0,0.455436155206
123,1_5_1,5,1.0,446.032023387,1_I,training,05,1_A,124.0,10010,ignore,0.0,8200.0,0.303049087885
124,1_5_1,5,1.0,449.360295844,1_I,training,05,1_A,125.0,01010,kill,1.0,8300.0,1.19760734947
125,1_5_1,5,1.0,452.641745311,1_I,training,05,1_A,126.0,00001,ignore,1.0,8400.0,1.11818581898
126,1_5_1,5,1.0,455.954406546,1_I,training,05,1_A,127.0,01000,kill,1.0,8500.0,1.15680026405
127,1_5_1,5,1.0,459.220224675,1_I,training,05,1_A,128.0,11010,kill,1.0,8600.0,1.12001719299
128,1_5_1,5,1.0,461.87657664,1_I,training,05,1_A,129.0,00010,kill,1.0,8700.0,0.507279106162
129,1_5_1,5,1.0,464.798558712,1_I,training,05,1_A,130.0,00011,ignore,1.0,8800.0,0.753148764551
130,1_5_1,5,1.0,467.361201884,1_I,training,05,1_A,131.0,10011,ignore,1.0,8900.0,0.391494066201
131,1_5_1,5,1.0,470.00199107,1_I,training,05,1_A,132.0,10111,ignore,1.0,9000.0,0.465479769906
132,1_5_1,5,1.0,472.439585595,1_I,training,05,1_A,133.0,00111,ignore,1.0,9100.0,0.268913113804
133,1_5_1,5,1.0,476.346044708,1_I,training,05,1_A,134.0,00100,kill,1.0,9200.0,1.73299872407
134,1_5_1,5,1.0,479.424342208,1_I,training,05,1_A,135.0,01010,kill,1.0,9300.0,0.939790038573
135,1_5_1,5,1.0,482.096364922,1_I,training,05,1_A,136.0,00110,kill,1.0,9400.0,0.544713688217
136,1_5_1,5,1.0,484.705852843,1_I,training,05,1_A,137.0,10010,kill,1.0,9500.0,0.456462069498
137,1_5_1,5,1.0,488.221694782,1_I,training,05,1_A,138.0,00001,ignore,1.0,9600.0,1.36235383082
138,1_5_1,5,1.0,490.768664743,1_I,training,05,1_A,139.0,10101,ignore,1.0,9700.0,0.414014506486
139,1_5_1,5,1.0,493.862544727,1_I,training,05,1_A,140.0,10001,ignore,1.0,9800.0,0.945505436237
140,1_5_1,5,1.0,496.362674865,1_I,training,05,1_A,141.0,01101,ignore,1.0,9900.0,0.365064559936
141,1_5_1,5,1.0,498.878461794,1_I,training,05,1_A,142.0,11101,ignore,1.0,10000.0,0.36963622122
142,1_5_1,5,1.0,501.566094908,1_I,training,05,1_A,143.0,11001,ignore,1.0,10100.0,0.539424831149
143,1_5_1,5,1.0,504.816247625,1_I,training,05,1_A,144.0,11100,kill,0.0,10000.0,1.14899403746
144,1_5_1,5,1.0,508.003948477,1_I,training,05,1_A,145.0,11110,kill,0.0,9900.0,1.08799585857
145,1_5_1,5,1.0,510.691536843,1_I,training,05,1_A,146.0,11000,kill,1.0,10000.0,0.56799442993
146,1_5_1,5,1.0,514.269861027,1_I,training,05,1_A,147.0,11010,kill,1.0,10100.0,1.46356793203
147,1_5_1,5,1.0,516.785626198,1_I,training,05,1_A,148.0,01001,ignore,1.0,10200.0,0.367611487613
148,1_5_1,5,1.0,519.36387156,1_I,training,05,1_A,149.0,11111,ignore,1.0,10300.0,0.459608370869
149,1_5_1,5,1.0,521.817145865,1_I,training,05,1_A,150.0,01011,ignore,1.0,10400.0,0.274734428189
150,1_5_1,5,1.0,524.895433101,1_I,training,05,1_A,151.0,01000,kill,1.0,10500.0,0.942488041263
151,1_5_1,5,1.0,528.145557491,1_I,training,05,1_A,152.0,11011,ignore,1.0,10600.0,1.10589824769
152,1_5_1,5,1.0,531.223870181,1_I,training,05,1_A,153.0,10000,kill,1.0,10700.0,0.9422183231
153,1_5_1,5,1.0,533.911480305,1_I,training,05,1_A,154.0,00000,kill,1.0,10800.0,0.532913415954
154,1_5_1,5,1.0,537.6304114,1_I,training,05,1_A,155.0,01110,ignore,0.0,10700.0,1.56973343471
155,1_5_1,5,1.0,541.068097883,1_I,training,05,1_A,156.0,10110,ignore,1.0,10800.0,1.29466894046
156,1_5_1,5,1.0,544.833942697,1_I,training,05,1_A,157.0,10100,kill,0.0,10700.0,1.61078191172
157,1_5_1,5,1.0,547.677795586,1_I,training,05,1_A,158.0,01111,ignore,1.0,10800.0,0.691060218172
158,1_5_1,5,1.0,550.318597088,1_I,training,05,1_A,159.0,00101,ignore,1.0,10900.0,0.484078828315
159,1_5_1,5,1.0,554.006281518,1_I,training,05,1_A,160.0,01100,kill,1.0,11000.0,1.54448830729
160,1_5_1,5,1.0,557.350154113,1_I,training,05,1_A,161.0,01100,kill,1.0,11100.0,1.1917121397
161,1_5_1,5,1.0,560.584723525,1_I,training,05,1_A,162.0,11010,kill,1.0,11200.0,1.12074629415
162,1_5_1,5,1.0,564.256822186,1_I,training,05,1_A,163.0,00101,ignore,1.0,11300.0,1.52288293821
163,1_5_1,5,1.0,567.553821705,1_I,training,05,1_A,164.0,00000,kill,1.0,11400.0,1.14019432845
164,1_5_1,5,1.0,570.772761832,1_I,training,05,1_A,165.0,00110,ignore,0.0,11300.0,1.05411974994
165,1_5_1,5,1.0,573.600987489,1_I,training,05,1_A,166.0,10101,ignore,1.0,11400.0,0.673830687605
166,1_5_1,5,1.0,576.913645851,1_I,training,05,1_A,167.0,01000,kill,1.0,11500.0,1.19608140973
167,1_5_1,5,1.0,579.460665896,1_I,training,05,1_A,168.0,10111,ignore,1.0,11600.0,0.413167583243
168,1_5_1,5,1.0,582.148304347,1_I,training,05,1_A,169.0,11011,ignore,1.0,11700.0,0.569465769194
169,1_5_1,5,1.0,585.960987341,1_I,training,05,1_A,170.0,10100,kill,0.0,11600.0,1.67723808601
170,1_5_1,5,1.0,588.773646113,1_I,training,05,1_A,171.0,10010,ignore,0.0,11500.0,0.605433938345
171,1_5_1,5,1.0,591.758201156,1_I,training,05,1_A,172.0,01010,kill,1.0,11600.0,0.864997643559
172,1_5_1,5,1.0,594.492675736,1_I,training,05,1_A,173.0,11111,ignore,1.0,11700.0,0.569614381028
173,1_5_1,5,1.0,597.133488733,1_I,training,05,1_A,174.0,11001,ignore,1.0,11800.0,0.496604506962
174,1_5_1,5,1.0,600.055542236,1_I,training,05,1_A,175.0,00010,kill,1.0,11900.0,0.789277040375
175,1_5_1,5,1.0,604.430721432,1_I,training,05,1_A,176.0,11110,ignore,1.0,12000.0,2.24801303515
176,1_5_1,5,1.0,607.243351468,1_I,training,05,1_A,177.0,11101,ignore,1.0,12100.0,0.69761268636
177,1_5_1,5,1.0,610.118505622,1_I,training,05,1_A,178.0,10000,kill,1.0,12200.0,0.73175235521
178,1_5_1,5,1.0,612.931124573,1_I,training,05,1_A,179.0,01111,ignore,1.0,12300.0,0.677821859569
179,1_5_1,5,1.0,616.712550228,1_I,training,05,1_A,180.0,01110,kill,1.0,12400.0,1.65877368142
180,1_5_1,5,1.0,619.46269884,1_I,training,05,1_A,181.0,11000,kill,1.0,12500.0,0.630506232665
181,1_5_1,5,1.0,622.212849094,1_I,training,05,1_A,182.0,01011,ignore,1.0,12600.0,0.641278537988
182,1_5_1,5,1.0,625.447368832,1_I,training,05,1_A,183.0,11100,kill,0.0,12500.0,1.09547776652
183,1_5_1,5,1.0,629.103814808,1_I,training,05,1_A,184.0,00100,kill,1.0,12600.0,1.48344045428
184,1_5_1,5,1.0,632.02587447,1_I,training,05,1_A,185.0,01101,ignore,1.0,12700.0,0.76618555296
185,1_5_1,5,1.0,639.307447916,1_I,training,05,1_A,186.0,10001,ignore,1.0,12800.0,5.14119314776
186,1_5_1,5,1.0,644.104596457,1_I,training,05,1_A,187.0,10110,kill,0.0,12700.0,2.65499967979
187,1_5_1,5,1.0,649.292379415,1_I,training,05,1_A,188.0,00111,ignore,1.0,12800.0,3.02336859512
188,1_5_1,5,1.0,651.870589061,1_I,training,05,1_A,189.0,00011,ignore,1.0,12900.0,0.422658624659
189,1_5_1,5,1.0,654.855134251,1_I,training,05,1_A,190.0,00001,ignore,1.0,13000.0,0.851139795293
190,1_5_1,5,1.0,657.433388235,1_I,training,05,1_A,191.0,01001,ignore,1.0,13100.0,0.408379983218
191,1_5_1,5,1.0,660.07415361,1_I,training,05,1_A,192.0,10011,ignore,1.0,13200.0,0.501094472789
192,1_5_1,5,1.0,662.933703932,1_I,training,05,1_A,193.0,01000,ignore,0.0,13100.0,0.779383269099
193,1_5_1,5,1.0,666.668260618,1_I,training,05,1_A,194.0,11010,kill,1.0,13200.0,1.60435752887
194,1_5_1,5,1.0,671.918489283,1_I,training,05,1_A,195.0,00100,ignore,0.0,13100.0,3.08679998489
195,1_5_1,5,1.0,675.918711379,1_I,training,05,1_A,196.0,11001,ignore,1.0,13200.0,1.83829020853
196,1_5_1,5,1.0,679.184505697,1_I,training,05,1_A,197.0,10010,kill,1.0,13300.0,1.12948319208
197,1_5_1,5,1.0,682.887835013,1_I,training,05,1_A,198.0,01110,kill,1.0,13400.0,1.57112061534
198,1_5_1,5,1.0,685.872342435,1_I,training,05,1_A,199.0,10001,ignore,1.0,13500.0,0.829018800629
199,1_5_1,5,1.0,688.888157689,1_I,training,05,1_A,200.0,11111,ignore,1.0,13600.0,0.909315580925
200,1_5_1,5,1.0,692.372667164,1_I,training,05,1_A,201.0,11100,kill,0.0,13500.0,1.34557957794
201,1_5_1,5,1.0,696.325995248,1_I,training,05,1_A,202.0,00011,ignore,1.0,13600.0,1.80769136032
202,1_5_1,5,1.0,701.04500927,1_I,training,05,1_A,203.0,01101,ignore,1.0,13700.0,2.5855174894
203,1_5_1,5,1.0,703.545120523,1_I,training,05,1_A,204.0,00111,ignore,1.0,13800.0,0.358806852237
204,1_5_1,5,1.0,706.107772317,1_I,training,05,1_A,205.0,01111,ignore,1.0,13900.0,0.418765979878
205,1_5_1,5,1.0,709.326656611,1_I,training,05,1_A,206.0,11000,kill,1.0,14000.0,1.06746813056
206,1_5_1,5,1.0,714.608167657,1_I,training,05,1_A,207.0,00010,kill,1.0,14100.0,3.13925093067
207,1_5_1,5,1.0,718.311488762,1_I,training,05,1_A,208.0,11101,ignore,1.0,14200.0,1.56643728991
208,1_5_1,5,1.0,721.655403231,1_I,training,05,1_A,209.0,10000,kill,1.0,14300.0,1.1971097872
209,1_5_1,5,1.0,724.749339047,1_I,training,05,1_A,210.0,01010,kill,1.0,14400.0,0.958406749769
210,1_5_1,5,1.0,727.218192962,1_I,training,05,1_A,211.0,00000,kill,1.0,14500.0,0.346437996023
211,1_5_1,5,1.0,731.17154732,1_I,training,05,1_A,212.0,11110,ignore,1.0,14600.0,1.82567544489
212,1_5_1,5,1.0,733.577891896,1_I,training,05,1_A,213.0,10011,ignore,1.0,14700.0,0.268881092469
213,1_5_1,5,1.0,736.656188985,1_I,training,05,1_A,214.0,01100,kill,1.0,14800.0,0.90440605351
214,1_5_1,5,1.0,739.45320862,1_I,training,05,1_A,215.0,10101,ignore,1.0,14900.0,0.641820026964
215,1_5_1,5,1.0,742.218977074,1_I,training,05,1_A,216.0,11011,ignore,1.0,15000.0,0.653049252097
216,1_5_1,5,1.0,744.922211558,1_I,training,05,1_A,217.0,00001,ignore,1.0,15100.0,0.555320139449
217,1_5_1,5,1.0,748.53177789,1_I,training,05,1_A,218.0,10110,kill,0.0,15000.0,1.49758977879
218,1_5_1,5,1.0,751.110018326,1_I,training,05,1_A,219.0,00101,ignore,1.0,15100.0,0.440025682752
219,1_5_1,5,1.0,753.610185822,1_I,training,05,1_A,220.0,10111,ignore,1.0,15200.0,0.338097259466
220,1_5_1,5,1.0,756.000910555,1_I,training,05,1_A,221.0,00110,ignore,0.0,15100.0,0.235267722987
221,1_5_1,5,1.0,758.891663205,1_I,training,05,1_A,222.0,10100,kill,0.0,15000.0,0.72234136713
222,1_5_1,5,1.0,762.016839117,1_I,training,05,1_A,223.0,01001,ignore,1.0,15100.0,0.995823268508
223,1_5_1,5,1.0,764.65757986,1_I,training,05,1_A,224.0,01011,ignore,1.0,15200.0,0.519940670215
224,1_5_1,5,1.0,767.251522245,1_I,training,05,1_A,225.0,10001,ignore,1.0,15300.0,0.435479063794
225,1_5_1,5,1.0,770.970421729,1_I,training,05,1_A,226.0,00110,kill,1.0,15400.0,1.61271386557
226,1_5_1,5,1.0,774.376841432,1_I,training,05,1_A,227.0,01111,ignore,1.0,15500.0,1.27499880946
227,1_5_1,5,1.0,777.830167874,1_I,training,05,1_A,228.0,11001,ignore,1.0,15600.0,1.31100967373
228,1_5_1,5,1.0,780.986557197,1_I,training,05,1_A,229.0,11010,kill,1.0,15700.0,1.04863178585
229,1_5_1,5,1.0,783.955445597,1_I,training,05,1_A,230.0,00000,kill,1.0,15800.0,0.799654415906
230,1_5_1,5,1.0,786.611836974,1_I,training,05,1_A,231.0,00010,kill,1.0,15900.0,0.521828697355
231,1_5_1,5,1.0,790.049551373,1_I,training,05,1_A,232.0,00001,ignore,1.0,16000.0,1.25549001673
232,1_5_1,5,1.0,793.09654145,1_I,training,05,1_A,233.0,10000,kill,1.0,16100.0,0.898111808647
233,1_5_1,5,1.0,795.893575453,1_I,training,05,1_A,234.0,10010,kill,1.0,16200.0,0.652642827467
234,1_5_1,5,1.0,799.190621772,1_I,training,05,1_A,235.0,11110,ignore,1.0,16300.0,1.17490914973
235,1_5_1,5,1.0,802.47203347,1_I,training,05,1_A,236.0,01110,kill,1.0,16400.0,1.17354577983
236,1_5_1,5,1.0,806.28472919,1_I,training,05,1_A,237.0,10100,kill,0.0,16300.0,1.64514655097
237,1_5_1,5,1.0,808.909873491,1_I,training,05,1_A,238.0,10011,ignore,1.0,16400.0,0.470819532686
238,1_5_1,5,1.0,812.675662472,1_I,training,05,1_A,239.0,00100,kill,1.0,16500.0,1.59854688826
239,1_5_1,5,1.0,815.910222031,1_I,training,05,1_A,240.0,11011,ignore,1.0,16600.0,1.10096737272
240,1_5_1,5,1.0,819.176022507,1_I,training,05,1_A,241.0,11100,kill,0.0,16500.0,1.15282633435
241,1_5_1,5,1.0,822.707448573,1_I,training,05,1_A,242.0,01011,ignore,1.0,16600.0,1.36805937576
242,1_5_1,5,1.0,826.238882028,1_I,training,05,1_A,243.0,01000,kill,1.0,16700.0,1.41538813963
243,1_5_1,5,1.0,829.598450414,1_I,training,05,1_A,244.0,10101,ignore,1.0,16800.0,1.16550103536
244,1_5_1,5,1.0,834.223666147,1_I,training,05,1_A,245.0,00111,ignore,1.0,16900.0,2.4730006782
245,1_5_1,5,1.0,837.442563989,1_I,training,05,1_A,246.0,01001,ignore,1.0,17000.0,1.06907740788
246,1_5_1,5,1.0,840.473975687,1_I,training,05,1_A,247.0,00101,ignore,1.0,17100.0,0.880849025156
247,1_5_1,5,1.0,963.917748687,1_I,test,05,2,0.0,01100,kill,0.0,0.0,2.58260601114
248,1_5_1,5,1.0,968.496143892,1_I,test,05,2,1.0,11000,ignore,1.0,100.0,2.41449934233
249,1_5_1,5,1.0,971.230619293,1_I,test,05,2,2.0,01010,ignore,1.0,200.0,0.56593069598
250,1_5_1,5,1.0,974.980808547,1_I,test,05,2,3.0,11101,kill,0.0,100.0,1.58731232624
251,1_5_1,5,1.0,978.534122016,1_I,test,05,2,4.0,10110,ignore,0.0,0.0,1.37326694791
252,1_5_1,5,1.0,982.362619854,1_I,test,05,2,5.0,00011,ignore,1.0,100.0,1.71261714472
253,1_5_1,5,1.0,985.721996522,1_I,test,05,2,6.0,01101,kill,0.0,0.0,1.2330278717
254,1_5_1,5,1.0,989.472169355,1_I,test,05,2,7.0,11111,kill,1.0,100.0,1.5871321036
255,1_5_1,5,1.0,992.597362099,1_I,test,05,2,8.0,10111,kill,1.0,200.0,0.965542170456
256,1_5_1,5,1.0,995.66004304,1_I,test,05,2,9.0,11000,ignore,1.0,300.0,0.955053130783
257,1_5_1,5,1.0,999.003959972,1_I,test,05,2,10.0,10101,kill,1.0,400.0,1.0934349696
258,1_5_1,5,1.0,1002.01970954,1_I,test,05,2,11.0,11011,kill,0.0,300.0,0.902724933453
259,1_5_1,5,1.0,1005.09801402,1_I,test,05,2,12.0,01011,ignore,1.0,400.0,0.95696578972
260,1_5_1,5,1.0,1007.94186814,1_I,test,05,2,13.0,10001,ignore,1.0,500.0,0.693701978262
261,1_5_1,5,1.0,1014.92660998,1_I,test,05,2,14.0,00001,ignore,1.0,600.0,4.80600326125
262,1_5_1,5,1.0,1018.33305431,1_I,test,05,2,15.0,01111,kill,1.0,700.0,1.24913049761
263,1_5_1,5,1.0,1022.27075557,1_I,test,05,2,16.0,10000,ignore,1.0,800.0,1.82870228205
264,1_5_1,5,1.0,1025.28649529,1_I,test,05,2,17.0,01000,ignore,1.0,900.0,0.88007681836
265,1_5_1,5,1.0,1028.78673545,1_I,test,05,2,18.0,01101,kill,0.0,800.0,1.3314462641
266,1_5_1,5,1.0,1031.67748317,1_I,test,05,2,19.0,10111,kill,1.0,900.0,0.755342225959
267,1_5_1,5,1.0,1035.49018464,1_I,test,05,2,20.0,10011,kill,0.0,800.0,1.66350298619
268,1_5_1,5,1.0,1040.95919743,1_I,test,05,2,21.0,11101,kill,0.0,700.0,3.31180856497
269,1_5_1,5,1.0,1043.91246393,1_I,test,05,2,22.0,11100,ignore,1.0,800.0,0.797402659248
270,1_5_1,5,1.0,1052.41288596,1_I,test,05,2,23.0,01100,ignore,1.0,900.0,6.33534424577
271,1_5_1,5,1.0,1069.52317277,1_I,test,05,2,24.0,00101,ignore,0.0,800.0,14.9268115454
272,1_5_1,5,1.0,1072.35138734,1_I,test,05,2,25.0,01001,ignore,1.0,900.0,0.65624194335
273,1_5_1,5,1.0,1075.80468915,1_I,test,05,2,26.0,10110,kill,1.0,1000.0,1.31128267613
274,1_5_1,5,1.0,1078.50795935,1_I,test,05,2,27.0,10100,kill,1.0,1100.0,0.517644986855
275,1_5_1,5,1.0,1081.9456405,1_I,test,05,2,28.0,11001,ignore,1.0,1200.0,1.26954574042
276,1_5_1,5,1.0,1085.24271391,1_I,test,05,2,29.0,00011,kill,0.0,1100.0,1.16879225379
277,1_5_1,5,1.0,1088.38347929,1_I,test,05,2,30.0,11010,kill,0.0,1000.0,0.974308216018
278,1_5_1,5,1.0,1092.71182646,1_I,test,05,2,31.0,00111,ignore,0.0,900.0,2.15447953837
279,1_5_1,5,1.0,1095.75883091,1_I,test,05,2,32.0,00110,kill,1.0,1000.0,0.904704098238
280,1_5_1,5,1.0,1098.93088647,1_I,test,05,2,33.0,10010,ignore,1.0,1100.0,1.0001810437
281,1_5_1,5,1.0,1102.24353087,1_I,test,05,2,34.0,00000,ignore,1.0,1200.0,1.19275775943
282,1_5_1,5,1.0,1105.14994236,1_I,test,05,2,35.0,00010,ignore,1.0,1300.0,0.778766653147
283,1_5_1,5,1.0,1108.07200695,1_I,test,05,2,36.0,01110,kill,1.0,1400.0,0.812473212922
284,1_5_1,5,1.0,1110.91588406,1_I,test,05,2,37.0,01010,ignore,1.0,1500.0,0.757533634717
285,1_5_1,5,1.0,1114.13478519,1_I,test,05,2,38.0,11111,kill,1.0,1600.0,1.08165850807
286,1_5_1,5,1.0,1117.18183356,1_I,test,05,2,39.0,11110,kill,1.0,1700.0,0.907190678015
287,1_5_1,5,1.0,1120.10383123,1_I,test,05,2,40.0,00100,kill,1.0,1800.0,0.760414733755
288,1_5_1,5,1.0,1123.11963663,1_I,test,05,2,41.0,01110,kill,1.0,1900.0,0.855054198161
289,1_5_1,5,1.0,1126.01040406,1_I,test,05,3,0.0,11110,kill,1.0,2000.0,0.770937436881
290,1_5_1,5,1.0,1129.49496813,1_I,test,05,3,1.0,00000,ignore,1.0,2100.0,1.29415947281
291,1_5_1,5,1.0,1132.52633549,1_I,test,05,3,2.0,00010,ignore,1.0,2200.0,0.871773440027
292,1_5_1,5,1.0,1135.69839557,1_I,test,05,3,3.0,10111,kill,0.0,2100.0,1.02900311838
293,1_5_1,5,1.0,1138.69855773,1_I,test,05,3,4.0,10110,kill,1.0,2200.0,0.843147598646
294,1_5_1,5,1.0,1141.32366549,1_I,test,05,3,5.0,00100,kill,0.0,2100.0,0.479067078948
295,1_5_1,5,1.0,1144.66757667,1_I,test,05,3,6.0,00101,ignore,1.0,2200.0,1.1542139255
296,1_5_1,5,1.0,1148.30841677,1_I,test,05,3,7.0,11100,kill,1.0,2300.0,1.46572280362
297,1_5_1,5,1.0,1150.9491883,1_I,test,05,3,8.0,01100,kill,0.0,2200.0,0.496837687961
298,1_5_1,5,1.0,1153.91806849,1_I,test,05,3,9.0,10011,ignore,0.0,2100.0,0.798227413875
299,1_5_1,5,1.0,1156.90258741,1_I,test,05,3,10.0,01000,ignore,1.0,2200.0,0.875750653974
300,1_5_1,5,1.0,1159.93399664,1_I,test,05,3,11.0,01111,kill,0.0,2100.0,0.909312296685
301,1_5_1,5,1.0,1163.12167163,1_I,test,05,3,12.0,10000,ignore,0.0,2000.0,1.02606290304
302,1_5_1,5,1.0,1166.7468344,1_I,test,05,3,13.0,11111,ignore,1.0,2100.0,1.51826652917
303,1_5_1,5,1.0,1170.32514586,1_I,test,05,3,14.0,00001,kill,0.0,2000.0,1.45666897658
304,1_5_1,5,1.0,1173.27840087,1_I,test,05,3,15.0,01010,kill,0.0,1900.0,0.840164277656
305,1_5_1,5,1.0,1176.45044575,1_I,test,05,3,16.0,11010,ignore,0.0,1800.0,1.04347429836
306,1_5_1,5,1.0,1179.27873053,1_I,test,05,3,17.0,10010,kill,1.0,1900.0,0.672047756126
307,1_5_1,5,1.0,1182.82576289,1_I,test,05,3,18.0,10101,ignore,1.0,2000.0,1.4187072741
308,1_5_1,5,1.0,1185.60719634,1_I,test,05,3,19.0,10001,ignore,0.0,1900.0,0.638975465089
309,1_5_1,5,1.0,1189.02922439,1_I,test,05,3,20.0,01011,kill,0.0,1800.0,1.24904428633
310,1_5_1,5,1.0,1192.02936931,1_I,test,05,3,21.0,00011,ignore,1.0,1900.0,0.849134767123
311,1_5_1,5,1.0,1195.60771156,1_I,test,05,3,22.0,01001,ignore,1.0,2000.0,1.42383068761
312,1_5_1,5,1.0,1198.43596718,1_I,test,05,3,23.0,11000,kill,1.0,2100.0,0.729188595807
313,1_5_1,5,1.0,1202.04551504,1_I,test,05,3,24.0,00111,ignore,1.0,2200.0,1.41531752848
314,1_5_1,5,1.0,1205.06127939,1_I,test,05,3,25.0,01101,ignore,1.0,2300.0,0.838474947001
315,1_5_1,5,1.0,1207.7176954,1_I,test,05,3,26.0,11101,ignore,1.0,2400.0,0.528761316258
316,1_5_1,5,1.0,1210.81161315,1_I,test,05,3,27.0,11001,ignore,0.0,2300.0,0.943551313778
317,1_5_1,5,1.0,1214.15548862,1_I,test,05,3,28.0,10100,kill,1.0,2400.0,1.1973552841
318,1_5_1,5,1.0,1216.87437292,1_I,test,05,3,29.0,11011,kill,1.0,2500.0,0.545219461089
319,1_5_1,5,1.0,1220.73398071,1_I,test,05,3,30.0,00110,ignore,1.0,2600.0,1.70278536346
320,1_5_1,5,1.0,1223.40596648,1_I,test,05,3,31.0,00101,ignore,1.0,2700.0,0.526469327667
321,1_5_1,5,1.0,1226.15610975,1_I,test,05,3,32.0,00100,ignore,1.0,2800.0,0.563188766588
322,1_5_1,5,1.0,1228.76561163,1_I,test,05,3,33.0,01010,ignore,1.0,2900.0,0.483817320751
323,1_5_1,5,1.0,1231.57831351,1_I,test,05,3,34.0,11111,ignore,1.0,3000.0,0.684366117158
324,1_5_1,5,1.0,1234.8440795,1_I,test,05,3,35.0,10011,ignore,0.0,2900.0,1.10375815518
325,1_5_1,5,1.0,1237.87546369,1_I,test,05,3,36.0,01001,ignore,1.0,3000.0,0.915742016424
326,1_5_1,5,1.0,1241.5787577,1_I,test,05,3,37.0,11110,kill,1.0,3100.0,1.5838412957
327,1_5_1,5,1.0,1245.70400217,1_I,test,05,3,38.0,01000,kill,0.0,3000.0,1.96160724109
328,1_5_1,5,1.0,1248.7041475,1_I,test,05,3,39.0,10110,kill,1.0,3100.0,0.834565059962
329,1_5_1,5,1.0,1254.37630651,1_I,test,05,3,40.0,11100,ignore,0.0,3000.0,3.42210153555
330,1_5_1,5,1.0,1257.50143521,1_I,test,05,3,41.0,10010,kill,1.0,3100.0,1.00594898919
331,1_5_1,5,1.0,1260.22037534,1_I,test,05,3,42.0,00111,kill,0.0,3000.0,0.498034382703
332,1_5_1,5,1.0,1263.68928098,1_I,test,05,3,43.0,10100,kill,1.0,3100.0,1.29548137918
333,1_5_1,5,1.0,1267.0175986,1_I,test,05,3,44.0,10000,kill,1.0,3200.0,1.19019071578
334,1_5_1,5,1.0,1270.3146326,1_I,test,05,3,45.0,00001,ignore,1.0,3300.0,1.11860907534
335,1_5_1,5,1.0,1273.72105846,1_I,test,05,3,46.0,11010,kill,1.0,3400.0,1.27877732692
336,1_5_1,5,1.0,1277.54935391,1_I,test,05,3,47.0,11001,kill,1.0,3500.0,1.64250807512
337,1_5_1,5,1.0,1281.4402018,1_I,test,05,3,48.0,00011,ignore,1.0,3600.0,1.70513852101
338,1_5_1,5,1.0,1285.45600187,1_I,test,05,3,49.0,10101,kill,0.0,3500.0,1.8455886096
339,1_5_1,5,1.0,1289.00310279,1_I,test,05,3,50.0,11011,ignore,0.0,3400.0,1.38140118791
340,1_5_1,5,1.0,1293.2845465,1_I,test,05,3,51.0,01100,ignore,1.0,3500.0,2.15511832294
341,1_5_1,5,1.0,1296.23783312,1_I,test,05,3,52.0,11000,kill,1.0,3600.0,0.79590053024
342,1_5_1,5,1.0,1300.20678639,1_I,test,05,3,53.0,01011,ignore,1.0,3700.0,1.79720806806
343,1_5_1,5,1.0,1303.95695676,1_I,test,05,3,54.0,00110,kill,0.0,3600.0,1.62497105764
344,1_5_1,5,1.0,1322.84855756,1_I,test,05,3,55.0,11101,kill,0.0,3500.0,16.7470347423
345,1_5_1,5,1.0,1326.25496084,1_I,test,05,3,56.0,01111,ignore,1.0,3600.0,1.24377308205
346,1_5_1,5,1.0,1331.19270111,1_I,test,05,3,57.0,00010,ignore,1.0,3700.0,2.76700948653
347,1_5_1,5,1.0,1340.31819189,1_I,test,05,3,58.0,10001,kill,1.0,3800.0,6.93410912542
348,1_5_1,5,1.0,1358.10032736,1_I,test,05,3,59.0,01110,ignore,1.0,3900.0,15.6717895328
349,1_5_1,5,1.0,1366.44451072,1_I,test,05,3,60.0,10111,kill,0.0,3800.0,6.18552955898
350,1_5_1,5,1.0,1369.91343935,1_I,test,05,3,61.0,01101,ignore,1.0,3900.0,1.29241102585
351,1_5_1,5,1.0,1387.67997222,1_I,test,05,3,62.0,00000,ignore,1.0,4000.0,15.5640007948
352,1_5_1,5,1.0,1391.71139951,1_I,test,05,3,63.0,01000,ignore,1.0,4100.0,1.87233627656
353,1_5_1,5,1.0,1396.8835848,1_I,test,05,3,64.0,10000,kill,1.0,4200.0,3.05705093363
354,1_5_1,5,1.0,1400.24310556,1_I,test,05,3,65.0,00110,ignore,1.0,4300.0,1.18471260442
355,1_5_1,5,1.0,1403.21201161,1_I,test,05,3,66.0,00111,ignore,1.0,4400.0,0.787114779241
356,1_5_1,5,1.0,1407.89974079,1_I,test,05,3,67.0,10001,kill,1.0,4500.0,2.51538994596
357,1_5_1,5,1.0,1413.21253217,1_I,test,05,3,68.0,01101,ignore,1.0,4600.0,3.12452891691
358,1_5_1,5,1.0,1416.50957315,1_I,test,05,3,69.0,01100,kill,0.0,4500.0,1.16498951507
359,1_5_1,5,1.0,1419.83786531,1_I,test,05,3,70.0,00000,ignore,1.0,4600.0,1.11488885313
360,1_5_1,5,1.0,1423.52556945,1_I,test,05,3,71.0,11010,kill,1.0,4700.0,1.51794960006
361,1_5_1,5,1.0,1428.11951429,1_I,test,05,3,72.0,01001,ignore,1.0,4800.0,2.45717967581
362,1_5_1,5,1.0,1432.65101959,1_I,test,05,3,73.0,01110,ignore,1.0,4900.0,2.36440853311
363,1_5_1,5,1.0,1435.93242472,1_I,test,05,3,74.0,10110,kill,1.0,5000.0,1.15740374305
364,1_5_1,5,1.0,1440.15140795,1_I,test,05,3,75.0,11111,kill,0.0,4900.0,2.02314239313
365,1_5_1,5,1.0,1443.19839557,1_I,test,05,3,76.0,00001,ignore,1.0,5000.0,0.894862464263
366,1_5_1,5,1.0,1445.7610646,1_I,test,05,3,77.0,00011,ignore,1.0,5100.0,0.451961840422
367,1_5_1,5,1.0,1452.24576333,1_I,test,05,3,78.0,11000,kill,1.0,5200.0,4.35366003852
368,1_5_1,5,1.0,1455.85530832,1_I,test,05,3,79.0,01111,ignore,1.0,5300.0,1.44861273727
369,1_5_1,5,1.0,1459.8086479,1_I,test,05,3,80.0,10100,kill,1.0,5400.0,1.78164652059
370,1_5_1,5,1.0,1469.13722538,1_I,test,05,3,81.0,10111,kill,0.0,5300.0,7.15752443885
371,1_5_1,5,1.0,1472.63744583,1_I,test,05,3,82.0,11100,kill,1.0,5400.0,1.36736886442
372,1_5_1,5,1.0,1475.559416,1_I,test,05,3,83.0,01010,ignore,1.0,5500.0,0.720399150039
373,1_5_1,5,1.0,1478.23147196,1_I,test,05,3,84.0,00010,ignore,1.0,5600.0,0.503764559444
374,1_5_1,5,1.0,1481.34099314,1_I,test,05,3,85.0,11110,kill,1.0,5700.0,0.976256591058
375,1_5_1,5,1.0,1485.07557158,1_I,test,05,3,86.0,11001,kill,1.0,5800.0,1.5291377722
376,1_5_1,5,1.0,1488.96636734,1_I,test,05,3,87.0,11011,kill,1.0,5900.0,1.75247015858
377,1_5_1,5,1.0,1492.62284862,1_I,test,05,3,88.0,00100,ignore,1.0,6000.0,1.45217531599
378,1_5_1,5,1.0,1495.63862734,1_I,test,05,3,89.0,01011,ignore,1.0,6100.0,0.856474631713
379,1_5_1,5,1.0,1498.7637273,1_I,test,05,3,90.0,11101,kill,0.0,6000.0,0.973916980996
380,1_5_1,5,1.0,1502.93581159,1_I,test,05,3,91.0,10010,kill,1.0,6100.0,2.00803201805
381,1_5_1,5,1.0,1506.59228877,1_I,test,05,3,92.0,10101,kill,0.0,6000.0,1.51152562774
382,1_5_1,5,1.0,1510.84249157,1_I,test,05,3,93.0,00101,ignore,1.0,6100.0,2.06902116528
383,1_5_1,5,1.0,1514.37390861,1_I,test,05,3,94.0,10011,kill,1.0,6200.0,1.37063134577
384,1_5_1,5,1.0,1520.96799591,1_I,test,05,3,95.0,10101,kill,0.0,6100.0,4.47632186532
385,1_5_1,5,1.0,1524.04625933,1_I,test,05,3,96.0,10010,kill,1.0,6200.0,0.952120715504
386,1_5_1,5,1.0,1529.01529799,1_I,test,05,3,97.0,01000,ignore,1.0,6300.0,2.808516936
387,1_5_1,5,1.0,1532.89047103,1_I,test,05,3,98.0,11110,kill,1.0,6400.0,1.72292924599
388,1_5_1,5,1.0,1537.2031729,1_I,test,05,3,99.0,10111,kill,0.0,6300.0,2.13578482649
389,1_5_1,5,1.0,1544.78173478,1_I,test,05,3,100.0,01011,ignore,1.0,6400.0,5.48337805373
390,1_5_1,5,1.0,1549.34444734,1_I,test,05,4,0.0,00101,ignore,1.0,6500.0,2.4198239155
391,1_5_1,5,1.0,1553.86029667,1_I,test,05,4,1.0,00011,ignore,0.0,6400.0,2.33893679317
392,1_5_1,5,1.0,1557.03232923,1_I,test,05,4,2.0,10000,kill,0.0,6300.0,1.0335423478
393,1_5_1,5,1.0,1560.3450036,1_I,test,05,4,3.0,11010,ignore,1.0,6400.0,1.17432866041
394,1_5_1,5,1.0,1562.86076795,1_I,test,05,4,4.0,01110,ignore,0.0,6300.0,0.389517775125
395,1_5_1,5,1.0,1566.17345875,1_I,test,05,4,5.0,00010,kill,1.0,6400.0,1.14272360334
396,1_5_1,5,1.0,1569.70483596,1_I,test,05,4,6.0,11001,ignore,1.0,6500.0,1.38384466204
397,1_5_1,5,1.0,1572.67376788,1_I,test,05,4,7.0,00100,kill,0.0,6400.0,0.822628491762
398,1_5_1,5,1.0,1575.8614326,1_I,test,05,4,8.0,10001,ignore,1.0,6500.0,1.01909456803
399,1_5_1,5,1.0,1579.09596014,1_I,test,05,4,9.0,00111,kill,1.0,6600.0,1.10809540387
400,1_5_1,5,1.0,1582.20550595,1_I,test,05,4,10.0,10011,ignore,0.0,6500.0,0.923413589197
401,1_5_1,5,1.0,1585.9087823,1_I,test,05,4,11.0,11111,ignore,1.0,6600.0,1.54064533663
402,1_5_1,5,1.0,1588.92456964,1_I,test,05,4,12.0,01101,kill,0.0,6500.0,0.893210902361
403,1_5_1,5,1.0,1594.45612174,1_I,test,05,4,13.0,01010,kill,1.0,6600.0,3.36078724861
404,1_5_1,5,1.0,1597.36253036,1_I,test,05,4,14.0,01111,kill,1.0,6700.0,0.775286590943
405,1_5_1,5,1.0,1600.33138961,1_I,test,05,4,15.0,01100,kill,0.0,6600.0,0.807367041672
406,1_5_1,5,1.0,1606.15983901,1_I,test,05,4,16.0,11000,ignore,1.0,6700.0,3.66860176791
407,1_5_1,5,1.0,1610.31627965,1_I,test,05,4,17.0,00000,kill,0.0,6600.0,2.01156914391
408,1_5_1,5,1.0,1614.73839801,1_I,test,05,4,18.0,11011,ignore,1.0,6700.0,2.26662769369
409,1_5_1,5,1.0,1618.42612801,1_I,test,05,4,19.0,00110,ignore,0.0,6600.0,1.50660706867
410,1_5_1,5,1.0,1622.50443701,1_I,test,05,4,20.0,11100,ignore,1.0,6700.0,1.9413143362
411,1_5_1,5,1.0,1625.64523605,1_I,test,05,4,21.0,01001,kill,0.0,6600.0,0.963659069674
412,1_5_1,5,1.0,1628.59848613,1_I,test,05,4,22.0,11101,ignore,1.0,6700.0,0.841998525377
413,1_5_1,5,1.0,1631.98926464,1_I,test,05,4,23.0,10100,ignore,1.0,6800.0,1.20628759428
414,1_5_1,5,1.0,1635.64570364,1_I,test,05,4,24.0,00001,kill,0.0,6700.0,1.46707714186
415,1_5_1,5,1.0,1638.86465608,1_I,test,05,4,25.0,10110,ignore,0.0,6600.0,1.10910571803
416,1_5_1,5,1.0,1642.45856111,1_I,test,05,4,26.0,10110,ignore,0.0,6500.0,1.42159699426
417,1_5_1,5,1.0,1646.86502925,1_I,test,05,4,27.0,00010,kill,1.0,6600.0,2.26669748378
418,1_5_1,5,1.0,1650.41208009,1_I,test,05,4,28.0,11101,ignore,1.0,6700.0,1.3526899563
419,1_5_1,5,1.0,1653.38100544,1_I,test,05,4,29.0,00011,ignore,0.0,6600.0,0.779015023753
420,1_5_1,5,1.0,1656.53742514,1_I,test,05,4,30.0,11000,ignore,1.0,6700.0,1.02820997456
421,1_5_1,5,1.0,1661.22515144,1_I,test,05,4,31.0,01001,kill,0.0,6600.0,2.50311345898
422,1_5_1,5,1.0,1666.41289663,1_I,test,05,4,32.0,10101,kill,0.0,6500.0,2.97474584092
423,1_5_1,5,1.0,1670.88186427,1_I,test,05,4,33.0,01100,kill,0.0,6400.0,2.3115511627
424,1_5_1,5,1.0,1674.21017039,1_I,test,05,4,34.0,10001,ignore,1.0,6500.0,1.15344253977
425,1_5_1,5,1.0,1676.89778503,1_I,test,05,4,35.0,11001,ignore,1.0,6600.0,0.50579668259
426,1_5_1,5,1.0,1679.4604672,1_I,test,05,4,36.0,01101,ignore,1.0,6700.0,0.443193331681
427,1_5_1,5,1.0,1682.31997072,1_I,test,05,4,37.0,11011,kill,0.0,6600.0,0.659602951874
428,1_5_1,5,1.0,1685.71073445,1_I,test,05,4,38.0,11100,ignore,1.0,6700.0,1.23062093473
429,1_5_1,5,1.0,1688.64843654,1_I,test,05,4,39.0,10011,kill,1.0,6800.0,0.771182523248
430,1_5_1,5,1.0,1691.61729374,1_I,test,05,4,40.0,00001,ignore,1.0,6900.0,0.842856532927
431,1_5_1,5,1.0,1695.80502743,1_I,test,05,4,41.0,00100,ignore,1.0,7000.0,2.0207100033
432,1_5_1,5,1.0,1698.39892876,1_I,test,05,4,42.0,00110,kill,1.0,7100.0,0.438870451533
433,1_5_1,5,1.0,1700.82090714,1_I,test,05,4,43.0,11010,kill,0.0,7000.0,0.295957183371
434,1_5_1,5,1.0,1703.8835536,1_I,test,05,4,44.0,00101,ignore,1.0,7100.0,0.866202138368
435,1_5_1,5,1.0,1706.78996919,1_I,test,05,4,45.0,01111,kill,1.0,7200.0,0.791872410583
436,1_5_1,5,1.0,1709.30573477,1_I,test,05,4,46.0,00111,kill,1.0,7300.0,0.31621970905
437,1_5_1,5,1.0,1712.35273224,1_I,test,05,4,47.0,01000,ignore,1.0,7400.0,0.910137872371
438,1_5_1,5,1.0,1715.33729016,1_I,test,05,4,48.0,11110,kill,0.0,7300.0,0.866389340015
439,1_5_1,5,1.0,1718.46242953,1_I,test,05,4,49.0,10100,ignore,1.0,7400.0,0.95357932834
440,1_5_1,5,1.0,1721.40010288,1_I,test,05,4,50.0,01010,kill,1.0,7500.0,0.814733180178
441,1_5_1,5,1.0,1724.36897855,1_I,test,05,4,51.0,01110,kill,1.0,7600.0,0.804717070983
442,1_5_1,5,1.0,1727.134731,1_I,test,05,4,52.0,11111,kill,0.0,7500.0,0.620277879498
443,1_5_1,5,1.0,1730.54119545,1_I,test,05,4,53.0,00000,ignore,1.0,7600.0,1.25096269268
444,1_5_1,5,1.0,1733.11945436,1_I,test,05,4,54.0,10000,ignore,1.0,7700.0,0.409018357256
445,1_5_1,5,1.0,1736.36960338,1_I,test,05,4,55.0,10010,kill,1.0,7800.0,1.06265425662
446,1_5_1,5,1.0,1740.04164046,1_I,test,05,4,56.0,01011,kill,1.0,7900.0,1.52314937214
447,1_5_1,5,1.0,1742.74493406,1_I,test,05,4,57.0,10111,kill,1.0,8000.0,0.556480297027
448,1_5_1,5,1.0,1745.8700681,1_I,test,05,4,58.0,11111,kill,0.0,7900.0,1.04346731935
449,1_5_1,5,1.0,1748.46393412,1_I,test,05,4,59.0,00001,ignore,1.0,8000.0,0.479098279222
450,1_5_1,5,1.0,1751.38600939,1_I,test,05,4,60.0,00111,ignore,0.0,7900.0,0.728209481927
451,1_5_1,5,1.0,1754.35486207,1_I,test,05,4,61.0,10110,kill,1.0,8000.0,0.799640868418
452,1_5_1,5,1.0,1756.93314725,1_I,test,05,4,62.0,10111,kill,1.0,8100.0,0.396928661394
453,1_5_1,5,1.0,1759.66765673,1_I,test,05,4,63.0,10011,kill,1.0,8200.0,0.582115427879
454,1_5_1,5,1.0,1763.16782915,1_I,test,05,4,64.0,01100,ignore,1.0,8300.0,1.28095806191
455,1_5_1,5,1.0,1766.27739836,1_I,test,05,4,65.0,00110,kill,1.0,8400.0,0.936667547938
456,1_5_1,5,1.0,1771.24635737,1_I,test,05,4,66.0,01001,ignore,1.0,8500.0,2.84482132916
457,1_5_1,5,1.0,1775.23092924,1_I,test,05,4,67.0,00010,kill,1.0,8600.0,1.81357055942
458,1_5_1,5,1.0,1780.15304022,1_I,test,05,4,68.0,10001,ignore,1.0,8700.0,2.80309835148
459,1_5_1,5,1.0,1785.46581969,1_I,test,05,4,69.0,10101,ignore,1.0,8800.0,3.1144660073
460,1_5_1,5,1.0,1788.63787196,1_I,test,05,4,70.0,00011,kill,1.0,8900.0,0.985361323812
461,1_5_1,5,1.0,1791.6380411,1_I,test,05,5,0.0,11001,ignore,1.0,9000.0,0.87898809299
462,1_5_1,5,1.0,1794.34129611,1_I,test,05,5,1.0,11110,kill,1.0,9100.0,0.552513756858
463,1_5_1,5,1.0,1799.99785662,1_I,test,05,5,2.0,11011,kill,0.0,9000.0,3.57600920572
464,1_5_1,5,1.0,1802.65421926,1_I,test,05,5,3.0,11101,ignore,1.0,9100.0,0.508410116114
465,1_5_1,5,1.0,1805.96689199,1_I,test,05,5,4.0,01011,kill,0.0,9000.0,1.14634529837
466,1_5_1,5,1.0,1810.04520017,1_I,test,05,5,5.0,11100,ignore,1.0,9100.0,1.96685750835
467,1_5_1,5,1.0,1812.70162562,1_I,test,05,5,6.0,01000,ignore,1.0,9200.0,0.515581663435
468,1_5_1,5,1.0,1815.79551135,1_I,test,05,5,7.0,01110,kill,1.0,9300.0,0.957244950071
469,1_5_1,5,1.0,1818.60817587,1_I,test,05,5,8.0,00100,ignore,0.0,9200.0,0.652845218722
470,1_5_1,5,1.0,1821.68641507,1_I,test,05,5,9.0,01101,ignore,1.0,9300.0,0.901796314755
471,1_5_1,5,1.0,1824.56160125,1_I,test,05,5,10.0,11000,ignore,1.0,9400.0,0.666521202229
472,1_5_1,5,1.0,1827.24921548,1_I,test,05,5,11.0,10100,ignore,0.0,9300.0,0.501454507536
473,1_5_1,5,1.0,1830.79628273,1_I,test,05,5,12.0,00101,ignore,0.0,9200.0,1.26453891742
474,1_5_1,5,1.0,1834.35896409,1_I,test,05,5,13.0,01111,kill,1.0,9300.0,1.42478722234
475,1_5_1,5,1.0,1837.5153608,1_I,test,05,5,14.0,10010,ignore,1.0,9400.0,0.962606881467
476,1_5_1,5,1.0,1840.3124104,1_I,test,05,5,15.0,10000,ignore,1.0,9500.0,0.680643021237
477,1_5_1,5,1.0,1843.07816285,1_I,test,05,5,16.0,11010,ignore,1.0,9600.0,0.583525187653
478,1_5_1,5,1.0,1846.59397441,1_I,test,05,5,17.0,00000,ignore,1.0,9700.0,1.33614395807
479,1_5_1,5,1.0,1849.26597577,1_I,test,05,5,18.0,01010,ignore,1.0,9800.0,0.561813901857
480,1_5_1,5,1.0,1852.60989394,1_I,test,05,5,19.0,00101,kill,1.0,9900.0,1.16863584189
481,1_5_1,5,1.0,1855.54753978,1_I,test,05,5,20.0,11110,kill,1.0,10000.0,0.838080017209
482,1_5_1,5,1.0,1858.53209071,1_I,test,05,5,21.0,01000,ignore,1.0,10100.0,0.8151806578
483,1_5_1,5,1.0,1862.29788257,1_I,test,05,5,22.0,10111,kill,1.0,10200.0,1.60720865923
484,1_5_1,5,1.0,1865.54804309,1_I,test,05,6,0.0,01100,kill,0.0,10100.0,1.16010544051
485,1_5_1,5,1.0,1868.37630076,1_I,test,05,6,1.0,10101,kill,0.0,10000.0,0.642563496664
486,1_5_1,5,1.0,1871.18895256,1_I,test,05,6,2.0,10011,ignore,0.0,9900.0,0.709577581125
487,1_5_1,5,1.0,1873.8609843,1_I,test,05,6,3.0,11001,ignore,0.0,9800.0,0.524275045199
488,1_5_1,5,1.0,1877.25176035,1_I,test,05,6,4.0,10010,ignore,0.0,9700.0,1.22479879928
489,1_5_1,5,1.0,1880.83008289,1_I,test,05,6,5.0,00000,ignore,1.0,9800.0,1.4760624104
490,1_5_1,5,1.0,1883.95523048,1_I,test,05,6,6.0,00111,kill,0.0,9700.0,0.979301902067
491,1_5_1,5,1.0,1887.81482227,1_I,test,05,6,7.0,11111,ignore,1.0,9800.0,1.69625095859
492,1_5_1,5,1.0,1890.76805634,1_I,test,05,6,8.0,10000,ignore,0.0,9700.0,0.790741400629
493,1_5_1,5,1.0,1893.98701289,1_I,test,05,6,9.0,10100,kill,1.0,9800.0,1.03136038123
494,1_5_1,5,1.0,1896.72150471,1_I,test,05,6,10.0,00011,kill,0.0,9700.0,0.638350228008
495,1_5_1,5,1.0,1899.67475027,1_I,test,05,6,11.0,00001,ignore,1.0,9800.0,0.756924408303
496,1_5_1,5,1.0,1902.2686824,1_I,test,05,6,12.0,00100,ignore,1.0,9900.0,0.407966169049
497,1_5_1,5,1.0,1905.01877353,1_I,test,05,6,13.0,11010,ignore,0.0,9800.0,0.614750504541
498,1_5_1,5,1.0,1907.6282984,1_I,test,05,6,14.0,00010,ignore,1.0,9900.0,0.444924536388
499,1_5_1,5,1.0,1910.36284811,1_I,test,05,6,15.0,01011,ignore,1.0,10000.0,0.62370826758
500,1_5_1,5,1.0,1912.95668909,1_I,test,05,6,16.0,01110,ignore,1.0,10100.0,0.418574262401
501,1_5_1,5,1.0,1915.39433165,1_I,test,05,6,17.0,10001,kill,1.0,10200.0,0.243949609915
502,1_5_1,5,1.0,1917.8632065,1_I,test,05,6,18.0,11100,ignore,0.0,10100.0,0.339949981033
503,1_5_1,5,1.0,1920.31646069,1_I,test,05,6,19.0,01001,kill,0.0,10000.0,0.274288182157
504,1_5_1,5,1.0,1923.45725768,1_I,test,05,6,20.0,11000,kill,1.0,10100.0,1.01629926975
505,1_5_1,5,1.0,1926.06673287,1_I,test,05,6,21.0,11011,ignore,0.0,10000.0,0.471233757384
506,1_5_1,5,1.0,1929.12942449,1_I,test,05,6,22.0,01111,ignore,1.0,10100.0,0.90933980219
507,1_5_1,5,1.0,1931.53577768,1_I,test,05,6,23.0,01101,ignore,1.0,10200.0,0.263105757436
508,1_5_1,5,1.0,1933.95774826,1_I,test,05,6,24.0,01010,ignore,1.0,10300.0,0.243820292987
509,1_5_1,5,1.0,1936.33288025,1_I,test,05,6,25.0,10110,kill,1.0,10400.0,0.248360753996
510,1_5_1,5,1.0,1938.86427757,1_I,test,05,6,26.0,11101,ignore,1.0,10500.0,0.362677328403
511,1_5_1,5,1.0,1941.25503556,1_I,test,05,6,27.0,00110,kill,0.0,10400.0,0.227171251739
512,1_5_1,5,1.0,1943.83330596,1_I,test,05,6,28.0,11011,ignore,0.0,10300.0,0.47245877869
513,1_5_1,5,1.0,1946.39589618,1_I,test,05,6,29.0,11010,ignore,0.0,10200.0,0.45099627403
514,1_5_1,5,1.0,1948.80227483,1_I,test,05,6,30.0,11001,ignore,0.0,10100.0,0.237348288665
515,1_5_1,5,1.0,1951.73995721,1_I,test,05,6,31.0,10100,kill,1.0,10200.0,0.685661339083
516,1_5_1,5,1.0,1954.22444328,1_I,test,05,6,32.0,11110,kill,1.0,10300.0,0.328500301329
517,1_5_1,5,1.0,1956.61516555,1_I,test,05,6,33.0,01010,kill,0.0,10200.0,0.279125866834
518,1_5_1,5,1.0,1959.06842138,1_I,test,05,6,34.0,00101,ignore,1.0,10300.0,0.227000881819
519,1_5_1,5,1.0,1961.59983842,1_I,test,05,6,35.0,10001,ignore,0.0,10200.0,0.349060871736
520,1_5_1,5,1.0,1963.99054878,1_I,test,05,6,36.0,11111,kill,0.0,10100.0,0.245829836987
521,1_5_1,5,1.0,1966.47507385,1_I,test,05,6,37.0,00100,ignore,1.0,10200.0,0.29630243904
522,1_5_1,5,1.0,1969.52206886,1_I,test,05,6,38.0,01101,kill,0.0,10100.0,0.926777060901
523,1_5_1,5,1.0,1972.14722342,1_I,test,05,6,39.0,10010,kill,1.0,10200.0,0.445334655787
524,1_5_1,5,1.0,1975.08487953,1_I,test,05,6,40.0,10101,ignore,1.0,10300.0,0.756016316102
525,1_5_1,5,1.0,1978.14751654,1_I,test,05,6,41.0,00111,kill,0.0,10200.0,0.913256257708
526,1_5_1,5,1.0,1980.56950477,1_I,test,05,6,42.0,01011,ignore,1.0,10300.0,0.277831055439
527,1_5_1,5,1.0,1983.00717565,1_I,test,05,6,43.0,10011,ignore,0.0,10200.0,0.312189536741
528,1_5_1,5,1.0,1985.58540624,1_I,test,05,6,44.0,10110,kill,1.0,10300.0,0.425962158994
529,1_5_1,5,1.0,1988.02303648,1_I,test,05,6,45.0,11100,ignore,0.0,10200.0,0.249323857208
530,1_5_1,5,1.0,1991.05445269,1_I,test,05,6,46.0,11000,kill,1.0,10300.0,0.926263898491
531,1_5_1,5,1.0,1993.67953829,1_I,test,05,6,47.0,01111,kill,0.0,10200.0,0.477416748636
532,1_5_1,5,1.0,1996.69534697,1_I,test,05,6,48.0,00001,ignore,1.0,10300.0,0.843883678807
533,1_5_1,5,1.0,1999.92989134,1_I,test,05,6,49.0,01110,kill,0.0,10200.0,1.08291719283
534,1_5_1,5,1.0,2002.91440451,1_I,test,05,6,50.0,00110,ignore,1.0,10300.0,0.795539674434
535,1_5_1,5,1.0,2005.3676353,1_I,test,05,6,51.0,01001,ignore,1.0,10400.0,0.337382116331
536,1_5_1,5,1.0,2008.94599027,1_I,test,05,6,52.0,00011,kill,0.0,10300.0,1.38513003125
537,1_5_1,5,1.0,2011.38358644,1_I,test,05,6,53.0,11101,ignore,1.0,10400.0,0.248641145937
538,1_5_1,5,1.0,2013.77431528,1_I,test,05,6,54.0,01000,ignore,1.0,10500.0,0.253868012986
539,1_5_1,5,1.0,2016.19630597,1_I,test,05,6,55.0,01100,ignore,1.0,10600.0,0.239251915943
540,1_5_1,5,1.0,2018.64962461,1_I,test,05,6,56.0,00000,ignore,1.0,10700.0,0.314156796158
541,1_5_1,5,1.0,2021.18098253,1_I,test,05,6,57.0,10000,ignore,0.0,10600.0,0.329582047691
542,1_5_1,5,1.0,2023.9311217,1_I,test,05,6,58.0,00010,kill,0.0,10500.0,0.554205550693
543,1_5_1,5,1.0,2026.32187353,1_I,test,05,6,59.0,10111,ignore,1.0,10600.0,0.252709086997
544,1_5_1,5,1.0,2028.85328112,1_I,test,05,6,60.0,00100,ignore,1.0,10700.0,0.331473359071
545,1_5_1,5,1.0,2031.22837369,1_I,test,05,6,61.0,00101,ignore,1.0,10800.0,0.245433265076
546,1_5_1,5,1.0,2033.94727769,1_I,test,05,6,62.0,00110,ignore,1.0,10900.0,0.565281648163
547,1_5_1,5,1.0,2036.66611437,1_I,test,05,6,63.0,10010,ignore,0.0,10800.0,0.48335875882
548,1_5_1,5,1.0,2041.52574762,1_I,test,05,6,64.0,10101,kill,0.0,10700.0,2.68099854016
549,1_5_1,5,1.0,2044.29149349,1_I,test,05,6,65.0,10111,ignore,1.0,10800.0,0.643455167668
550,1_5_1,5,1.0,2055.96398544,1_I,test,05,6,66.0,00011,kill,0.0,10700.0,9.58259328472
551,1_5_1,5,1.0,2059.01409308,1_I,test,05,6,67.0,01111,ignore,1.0,10800.0,0.906933275749
552,1_5_1,5,1.0,2061.95490657,1_I,test,05,6,68.0,00000,kill,0.0,10700.0,0.773736840463
553,1_5_1,5,1.0,2064.31989929,1_I,test,05,6,69.0,11110,ignore,0.0,10600.0,0.299682742471
554,1_5_1,5,1.0,2066.91378872,1_I,test,05,6,70.0,11001,kill,1.0,10700.0,0.472555253223
555,1_5_1,5,1.0,2070.6795818,1_I,test,05,6,71.0,11000,kill,1.0,10800.0,1.61444219656
556,1_5_1,5,1.0,2073.44536668,1_I,test,05,6,72.0,01011,kill,0.0,10700.0,0.61882583514
557,1_5_1,5,1.0,2076.21114868,1_I,test,05,6,73.0,11111,ignore,1.0,10800.0,0.627749524197
558,1_5_1,5,1.0,2079.99257351,1_I,test,05,6,74.0,01101,ignore,1.0,10900.0,1.69082293187
559,1_5_1,5,1.0,2082.50828244,1_I,test,05,6,75.0,01110,ignore,1.0,11000.0,0.359032643698
560,1_5_1,5,1.0,2085.19592951,1_I,test,05,6,76.0,01001,ignore,1.0,11100.0,0.525855585424
561,1_5_1,5,1.0,2087.57107587,1_I,test,05,6,77.0,01010,ignore,1.0,11200.0,0.257572635061
562,1_5_1,5,1.0,2089.9462095,1_I,test,05,6,78.0,00001,ignore,1.0,11300.0,0.231822555828
563,1_5_1,5,1.0,2092.3525356,1_I,test,05,6,79.0,10110,ignore,0.0,11200.0,0.313395263142
564,1_5_1,5,1.0,2095.10271951,1_I,test,05,6,80.0,10100,kill,1.0,11300.0,0.602453491064
565,1_5_1,5,1.0,2098.36849166,1_I,test,05,6,81.0,00111,kill,0.0,11200.0,1.08823478699
566,1_5_1,5,1.0,2101.43116768,1_I,test,05,6,82.0,11010,ignore,0.0,11100.0,0.953040713074
567,1_5_1,5,1.0,2103.83751841,1_I,test,05,6,83.0,11100,kill,1.0,11200.0,0.26135936312
568,1_5_1,5,1.0,2106.27513511,1_I,test,05,6,84.0,01100,kill,0.0,11100.0,0.343504349154
569,1_5_1,5,1.0,2108.83778361,1_I,test,05,6,85.0,11011,ignore,0.0,11000.0,0.418357502598
570,1_5_1,5,1.0,2111.33792771,1_I,test,05,6,86.0,01000,ignore,1.0,11100.0,0.375845896918
571,1_5_1,5,1.0,2114.63495679,1_I,test,05,6,87.0,10000,ignore,0.0,11000.0,1.20039074239
572,1_5_1,5,1.0,2117.72891108,1_I,test,05,6,88.0,00010,kill,0.0,10900.0,0.98456982211
573,1_5_1,5,1.0,2121.38533201,1_I,test,05,6,89.0,10011,kill,1.0,11000.0,1.47389522291
574,1_5_1,5,1.0,2124.44795999,1_I,test,05,6,90.0,10001,kill,1.0,11100.0,0.905116680816
575,1_5_1,5,1.0,2129.18256143,1_I,test,05,6,91.0,11101,kill,0.0,11000.0,2.57837139493
576,1_5_1,5,1.0,2132.38583491,1_I,test,05,6,92.0,11001,kill,1.0,11100.0,1.13238974398
577,1_5_1,5,1.0,2140.10499016,1_I,test,05,6,93.0,00101,ignore,1.0,11200.0,5.61056268874
578,1_5_1,5,1.0,2143.02702272,1_I,test,05,6,94.0,10111,ignore,1.0,11300.0,0.751367475192
579,1_5_1,5,1.0,2146.0584221,1_I,test,05,6,95.0,10010,kill,1.0,11400.0,0.916593455497
580,1_5_1,5,1.0,2150.0117506,1_I,test,05,6,96.0,01010,kill,0.0,11300.0,1.80787199348
581,1_5_1,5,1.0,2152.71504132,1_I,test,05,6,97.0,00111,ignore,1.0,11400.0,0.59307206114
582,1_5_1,5,1.0,2155.41826144,1_I,test,05,6,98.0,11111,ignore,1.0,11500.0,0.545564716759
583,1_5_1,5,1.0,2157.91845644,1_I,test,05,6,99.0,01011,ignore,1.0,11600.0,0.331963942335
584,1_5_1,5,1.0,2160.88729927,1_I,test,05,6,100.0,01100,kill,0.0,11500.0,0.864978759182
585,1_5_1,5,1.0,2163.5124485,1_I,test,05,6,101.0,11101,ignore,1.0,11600.0,0.47578037634
586,1_5_1,5,1.0,2165.99696085,1_I,test,05,6,102.0,11000,ignore,0.0,11500.0,0.39603206403
587,1_5_1,5,1.0,2168.43458247,1_I,test,05,6,103.0,01101,ignore,1.0,11600.0,0.297097635512
588,1_5_1,5,1.0,2170.90347292,1_I,test,05,6,104.0,10001,ignore,0.0,11500.0,0.301789582064
589,1_5_1,5,1.0,2174.55987538,1_I,test,05,6,105.0,10100,kill,1.0,11600.0,1.52358494439
590,1_5_1,5,1.0,2178.06006176,1_I,test,05,6,106.0,01001,ignore,1.0,11700.0,1.33844538885
591,1_5_1,5,1.0,2181.68523069,1_I,test,05,6,107.0,11100,kill,1.0,11800.0,1.53026631898
592,1_5_1,5,1.0,2184.71661899,1_I,test,05,6,108.0,01110,ignore,1.0,11900.0,0.888380196693
593,1_5_1,5,1.0,2187.966791,1_I,test,05,6,109.0,10011,kill,1.0,12000.0,1.08134732638
594,1_5_1,5,1.0,2190.98263294,1_I,test,05,6,110.0,00011,kill,0.0,11900.0,0.901777840908
595,1_5_1,5,1.0,2193.35768734,1_I,test,05,6,111.0,00110,ignore,1.0,12000.0,0.257502844972
596,1_5_1,5,1.0,2196.4047587,1_I,test,05,6,112.0,10101,ignore,1.0,12100.0,0.882035456649
597,1_5_1,5,1.0,2199.46742281,1_I,test,05,6,113.0,10000,kill,1.0,12200.0,0.919914232087
598,1_5_1,5,1.0,2202.48315596,1_I,test,05,6,114.0,01111,ignore,1.0,12300.0,0.856305493384
