,unique_id,pair_id,sbj_id,wall_time,condition,block,rule_id,rule_num,trial,stimulus,choice,correct,points,reaction_time
0,2_8_1,8,1.0,37.8088493055,2_ND,training,03,1_B,1.0,01100,ignore,0.0,0.0,7.81024607134
1,2_8_1,8,1.0,41.9652870811,2_ND,training,03,1_B,2.0,10110,kill,0.0,0.0,2.35309406889
2,2_8_1,8,1.0,48.2157456404,2_ND,training,03,1_B,3.0,00100,kill,1.0,100.0,4.44726816012
3,2_8_1,8,1.0,55.2942541447,2_ND,training,03,1_B,4.0,01001,ignore,1.0,200.0,5.28054531278
4,2_8_1,8,1.0,61.7164443441,2_ND,training,03,1_B,5.0,01101,kill,1.0,300.0,4.62406953104
5,2_8_1,8,1.0,65.3036119948,2_ND,training,03,1_B,6.0,00010,ignore,1.0,400.0,1.75296488008
6,2_8_1,8,1.0,69.3556444896,2_ND,training,03,1_B,7.0,11111,kill,0.0,300.0,2.23898230774
7,2_8_1,8,1.0,74.6058881619,2_ND,training,03,1_B,8.0,10111,kill,0.0,200.0,3.40859298051
8,2_8_1,8,1.0,77.8248269598,2_ND,training,03,1_B,9.0,11110,ignore,1.0,300.0,1.44473024779
9,2_8_1,8,1.0,81.1062735153,2_ND,training,03,1_B,10.0,00011,ignore,1.0,400.0,1.46511084163
10,2_8_1,8,1.0,92.0599406591,2_ND,training,03,1_B,11.0,10001,ignore,0.0,300.0,9.12995438942
11,2_8_1,8,1.0,98.0290055829,2_ND,training,03,1_B,12.0,00101,ignore,0.0,200.0,4.14719859445
12,2_8_1,8,1.0,102.299149079,2_ND,training,03,1_B,13.0,00110,ignore,1.0,300.0,2.46470608422
13,2_8_1,8,1.0,105.471195673,2_ND,training,03,1_B,14.0,10100,kill,1.0,400.0,1.35394656112
14,2_8_1,8,1.0,110.705835017,2_ND,training,03,1_B,15.0,01111,kill,0.0,300.0,3.43331044412
15,2_8_1,8,1.0,113.877890592,2_ND,training,03,1_B,16.0,10101,ignore,0.0,200.0,1.36389230374
16,2_8_1,8,1.0,117.206195033,2_ND,training,03,1_B,17.0,00001,ignore,0.0,100.0,1.52161940167
17,2_8_1,8,1.0,120.628222624,2_ND,training,03,1_B,18.0,10011,kill,0.0,0.0,1.65162799395
18,2_8_1,8,1.0,125.081607368,2_ND,training,03,1_B,19.0,01011,ignore,1.0,100.0,2.67959538371
19,2_8_1,8,1.0,130.491218657,2_ND,training,03,1_B,20.0,01110,ignore,1.0,200.0,3.63394118573
20,2_8_1,8,1.0,135.460226812,2_ND,training,03,1_B,21.0,00111,ignore,1.0,300.0,3.19720922654
21,2_8_1,8,1.0,139.194827829,2_ND,training,03,1_B,22.0,01000,kill,0.0,200.0,1.95450552404
22,2_8_1,8,1.0,148.61920699,2_ND,training,03,1_B,23.0,10000,ignore,0.0,100.0,7.65006252572
23,2_8_1,8,1.0,151.369382508,2_ND,training,03,1_B,24.0,00000,ignore,0.0,0.0,0.952908624572
24,2_8_1,8,1.0,157.432180523,2_ND,training,03,1_B,25.0,11000,kill,0.0,0.0,4.28130864292
25,2_8_1,8,1.0,161.151144177,2_ND,training,03,1_B,26.0,01010,ignore,1.0,100.0,1.95510143471
26,2_8_1,8,1.0,166.668115604,2_ND,training,03,1_B,27.0,11010,kill,0.0,0.0,3.76329324995
27,2_8_1,8,1.0,170.840174706,2_ND,training,03,1_B,28.0,11011,ignore,1.0,100.0,2.3933497909
28,2_8_1,8,1.0,174.027824666,2_ND,training,03,1_B,29.0,11101,kill,1.0,200.0,1.40725683205
29,2_8_1,8,1.0,177.918661401,2_ND,training,03,1_B,30.0,10010,kill,0.0,100.0,2.10933132601
30,2_8_1,8,1.0,181.075089876,2_ND,training,03,1_B,31.0,11001,ignore,1.0,200.0,1.39053893994
31,2_8_1,8,1.0,184.23147409,2_ND,training,03,1_B,32.0,11100,ignore,0.0,100.0,1.3653772695
32,2_8_1,8,1.0,187.122291581,2_ND,training,03,1_B,33.0,00111,ignore,1.0,200.0,1.10893875623
33,2_8_1,8,1.0,190.74744998,2_ND,training,03,1_B,34.0,10111,ignore,1.0,300.0,1.83100993388
34,2_8_1,8,1.0,194.763296136,2_ND,training,03,1_B,35.0,00001,ignore,0.0,200.0,2.22677993032
35,2_8_1,8,1.0,202.904341584,2_ND,training,03,1_B,36.0,11100,kill,1.0,300.0,6.35142019496
36,2_8_1,8,1.0,206.329477019,2_ND,training,03,1_B,37.0,00000,ignore,0.0,200.0,1.63465865191
37,2_8_1,8,1.0,210.282823116,2_ND,training,03,1_B,38.0,11101,kill,1.0,300.0,2.17500882801
38,2_8_1,8,1.0,214.283052435,2_ND,training,03,1_B,39.0,10001,ignore,0.0,200.0,2.21457145909
39,2_8_1,8,1.0,219.361428159,2_ND,training,03,1_B,40.0,01111,ignore,1.0,300.0,3.29917858622
40,2_8_1,8,1.0,225.424249266,2_ND,training,03,1_B,41.0,01101,ignore,0.0,200.0,4.2678506195
41,2_8_1,8,1.0,229.018177841,2_ND,training,03,1_B,42.0,01000,ignore,1.0,300.0,1.77058722217
42,2_8_1,8,1.0,234.580988846,2_ND,training,03,1_B,43.0,01100,ignore,0.0,200.0,3.77775931816
43,2_8_1,8,1.0,240.393788545,2_ND,training,03,1_B,44.0,00011,ignore,1.0,300.0,4.03895389133
44,2_8_1,8,1.0,247.409774218,2_ND,training,03,1_B,45.0,00101,kill,1.0,400.0,5.22546430838
45,2_8_1,8,1.0,252.425659824,2_ND,training,03,1_B,46.0,11010,kill,0.0,300.0,3.26059834178
46,2_8_1,8,1.0,259.533575461,2_ND,training,03,1_B,47.0,00100,ignore,0.0,200.0,5.31035656177
47,2_8_1,8,1.0,262.70558485,2_ND,training,03,1_B,48.0,11001,kill,0.0,100.0,1.38126479954
48,2_8_1,8,1.0,266.08074782,2_ND,training,03,1_B,49.0,01001,ignore,1.0,200.0,1.60401607868
49,2_8_1,8,1.0,270.409102936,2_ND,training,03,1_B,50.0,11111,kill,0.0,100.0,2.56244794201
50,2_8_1,8,1.0,274.609355862,2_ND,training,03,1_B,51.0,10000,ignore,0.0,0.0,2.42532658823
51,2_8_1,8,1.0,281.578467612,2_ND,training,03,1_B,52.0,10110,kill,0.0,0.0,5.19814606996
52,2_8_1,8,1.0,284.984879328,2_ND,training,03,1_B,53.0,01110,ignore,1.0,100.0,1.64211908143
53,2_8_1,8,1.0,289.516344085,2_ND,training,03,1_B,54.0,11011,ignore,1.0,200.0,2.76740079996
54,2_8_1,8,1.0,295.876091634,2_ND,training,03,1_B,55.0,00010,ignore,1.0,300.0,4.58161137708
55,2_8_1,8,1.0,299.641920872,2_ND,training,03,1_B,56.0,00110,ignore,1.0,400.0,1.97778067858
56,2_8_1,8,1.0,303.517109339,2_ND,training,03,1_B,57.0,01011,ignore,1.0,500.0,2.09714177767
57,2_8_1,8,1.0,307.298558621,2_ND,training,03,1_B,58.0,11000,kill,0.0,400.0,2.00267871146
58,2_8_1,8,1.0,310.658105716,2_ND,training,03,1_B,59.0,10101,ignore,0.0,300.0,1.56809850936
59,2_8_1,8,1.0,313.95515692,2_ND,training,03,1_B,60.0,01010,ignore,1.0,400.0,1.51964564804
60,2_8_1,8,1.0,317.533463206,2_ND,training,03,1_B,61.0,11110,kill,0.0,300.0,1.80939710711
61,2_8_1,8,1.0,321.939984291,2_ND,training,03,1_B,62.0,10010,kill,0.0,200.0,2.63910136158
62,2_8_1,8,1.0,325.174507211,2_ND,training,03,1_B,63.0,10011,ignore,1.0,300.0,1.45932139951
63,2_8_1,8,1.0,328.830936167,2_ND,training,03,1_B,64.0,10100,ignore,0.0,200.0,1.88751240011
64,2_8_1,8,1.0,334.003067112,2_ND,training,03,1_B,65.0,00110,ignore,1.0,300.0,3.41054075525
65,2_8_1,8,1.0,337.08135239,2_ND,training,03,1_B,66.0,00000,ignore,0.0,200.0,1.29463324393
66,2_8_1,8,1.0,346.628725524,2_ND,training,03,1_B,67.0,10010,kill,0.0,100.0,7.80207234509
67,2_8_1,8,1.0,349.675772319,2_ND,training,03,1_B,68.0,01110,ignore,1.0,200.0,1.26852959845
68,2_8_1,8,1.0,353.238429054,2_ND,training,03,1_B,69.0,11000,ignore,1.0,300.0,1.79188317072
69,2_8_1,8,1.0,356.582361557,2_ND,training,03,1_B,70.0,10111,ignore,1.0,400.0,1.54155033633
70,2_8_1,8,1.0,364.47342216,2_ND,training,03,1_B,71.0,10100,ignore,0.0,300.0,6.09350729991
71,2_8_1,8,1.0,367.692345883,2_ND,training,03,1_B,72.0,11110,ignore,1.0,400.0,1.4531547825
72,2_8_1,8,1.0,371.755049285,2_ND,training,03,1_B,73.0,00011,ignore,1.0,500.0,2.28029450431
73,2_8_1,8,1.0,375.211481255,2_ND,training,03,1_B,74.0,11100,kill,1.0,600.0,1.70754834077
74,2_8_1,8,1.0,379.305467079,2_ND,training,03,1_B,75.0,10000,ignore,0.0,500.0,2.32584093804
75,2_8_1,8,1.0,382.08685863,2_ND,training,03,1_B,76.0,00100,ignore,0.0,400.0,0.990689617459
76,2_8_1,8,1.0,385.227634988,2_ND,training,03,1_B,77.0,01101,kill,1.0,500.0,1.37353399722
77,2_8_1,8,1.0,392.712416014,2_ND,training,03,1_B,78.0,00001,ignore,0.0,400.0,5.69321633642
78,2_8_1,8,1.0,396.775105623,2_ND,training,03,1_B,79.0,01011,ignore,1.0,500.0,2.29204080801
79,2_8_1,8,1.0,400.369063064,2_ND,training,03,1_B,80.0,10011,kill,0.0,400.0,1.80598264803
80,2_8_1,8,1.0,403.572343651,2_ND,training,03,1_B,81.0,00111,ignore,1.0,500.0,1.40326763028
81,2_8_1,8,1.0,410.260183642,2_ND,training,03,1_B,82.0,00101,kill,1.0,600.0,4.91318915802
82,2_8_1,8,1.0,414.41665766,2_ND,training,03,1_B,83.0,11001,kill,0.0,500.0,2.39215219648
83,2_8_1,8,1.0,421.995185247,2_ND,training,03,1_B,84.0,10110,kill,0.0,400.0,5.79002135079
84,2_8_1,8,1.0,425.99537191,2_ND,training,03,1_B,85.0,01001,ignore,1.0,500.0,2.24180759141
85,2_8_1,8,1.0,431.605054272,2_ND,training,03,1_B,86.0,10001,ignore,0.0,400.0,3.82188878023
86,2_8_1,8,1.0,436.230298946,2_ND,training,03,1_B,87.0,01100,ignore,0.0,300.0,2.83328292575
87,2_8_1,8,1.0,440.027394892,2_ND,training,03,1_B,88.0,11011,kill,0.0,200.0,2.02879037511
88,2_8_1,8,1.0,443.574426452,2_ND,training,03,1_B,89.0,11010,kill,0.0,100.0,1.78619026741
89,2_8_1,8,1.0,446.262099665,2_ND,training,03,1_B,90.0,11101,ignore,0.0,0.0,0.929535648319
90,2_8_1,8,1.0,454.5906485,2_ND,training,03,1_B,91.0,01000,kill,0.0,0.0,6.55588073704
91,2_8_1,8,1.0,458.200181724,2_ND,training,03,1_B,92.0,10101,kill,1.0,100.0,1.80674180871
92,2_8_1,8,1.0,461.137858064,2_ND,training,03,1_B,93.0,11111,kill,0.0,0.0,1.18931164621
93,2_8_1,8,1.0,464.481786719,2_ND,training,03,1_B,94.0,01111,kill,0.0,0.0,1.58071141727
94,2_8_1,8,1.0,467.653800278,2_ND,training,03,1_B,95.0,00010,ignore,1.0,100.0,1.41273581048
95,2_8_1,8,1.0,471.247737512,2_ND,training,03,1_B,96.0,01010,ignore,1.0,200.0,1.82666921538
96,2_8_1,8,1.0,475.466748473,2_ND,training,03,1_B,97.0,11010,kill,0.0,100.0,2.45632709274
97,2_8_1,8,1.0,478.638769088,2_ND,training,03,1_B,98.0,01100,ignore,0.0,0.0,1.40431384158
98,2_8_1,8,1.0,485.217233172,2_ND,training,03,1_B,99.0,10110,ignore,1.0,100.0,4.78642087009
99,2_8_1,8,1.0,493.905212037,2_ND,training,03,1_B,100.0,10001,ignore,0.0,0.0,6.90223312551
100,2_8_1,8,1.0,497.045963699,2_ND,training,03,1_B,101.0,00101,ignore,0.0,0.0,1.33887399825
101,2_8_1,8,1.0,499.671138135,2_ND,training,03,1_B,102.0,01001,ignore,1.0,100.0,0.851929028258
102,2_8_1,8,1.0,502.983772179,2_ND,training,03,1_B,103.0,01011,ignore,1.0,200.0,1.56167851806
103,2_8_1,8,1.0,506.858980531,2_ND,training,03,1_B,104.0,00100,kill,1.0,300.0,2.09706672756
104,2_8_1,8,1.0,513.046770007,2_ND,training,03,1_B,105.0,11000,kill,0.0,200.0,4.43618832701
105,2_8_1,8,1.0,518.15646183,2_ND,training,03,1_B,106.0,01101,ignore,0.0,100.0,3.33502719925
106,2_8_1,8,1.0,522.078532879,2_ND,training,03,1_B,107.0,01110,ignore,1.0,200.0,2.15075898428
107,2_8_1,8,1.0,526.078772463,2_ND,training,03,1_B,108.0,11011,ignore,1.0,300.0,2.23924530384
108,2_8_1,8,1.0,531.000861793,2_ND,training,03,1_B,109.0,00000,ignore,0.0,200.0,3.14698723539
109,2_8_1,8,1.0,535.063606247,2_ND,training,03,1_B,110.0,10101,ignore,0.0,100.0,2.27414648947
110,2_8_1,8,1.0,539.532555228,2_ND,training,03,1_B,111.0,00010,ignore,1.0,200.0,2.68497461607
111,2_8_1,8,1.0,542.657721806,2_ND,training,03,1_B,112.0,00011,ignore,1.0,300.0,1.35857593387
112,2_8_1,8,1.0,545.517252063,2_ND,training,03,1_B,113.0,10010,ignore,1.0,400.0,1.09517957021
113,2_8_1,8,1.0,548.939330329,2_ND,training,03,1_B,114.0,11101,kill,1.0,500.0,1.63442387979
114,2_8_1,8,1.0,551.798828513,2_ND,training,03,1_B,115.0,11100,kill,1.0,600.0,1.09472574158
115,2_8_1,8,1.0,556.70534206,2_ND,training,03,1_B,116.0,11110,kill,0.0,500.0,3.1631672684
116,2_8_1,8,1.0,559.783653959,2_ND,training,03,1_B,117.0,10000,ignore,0.0,400.0,1.28166914001
117,2_8_1,8,1.0,563.986981052,2_ND,training,03,1_B,118.0,01000,ignore,1.0,500.0,2.43729258989
118,2_8_1,8,1.0,568.09659109,2_ND,training,03,1_B,119.0,10100,kill,1.0,600.0,2.32826338867
119,2_8_1,8,1.0,572.149900078,2_ND,training,03,1_B,120.0,00111,kill,0.0,500.0,2.26472577686
120,2_8_1,8,1.0,575.243830096,2_ND,training,03,1_B,121.0,10011,kill,0.0,400.0,1.32402113334
121,2_8_1,8,1.0,583.541140768,2_ND,training,03,1_B,122.0,01010,ignore,1.0,500.0,6.52559481218
122,2_8_1,8,1.0,590.11960838,2_ND,training,03,1_B,123.0,11001,ignore,1.0,600.0,4.80335396997
123,2_8_1,8,1.0,594.744803021,2_ND,training,03,1_B,124.0,00110,kill,0.0,500.0,2.84644074874
124,2_8_1,8,1.0,597.604364709,2_ND,training,03,1_B,125.0,00001,ignore,0.0,400.0,1.06556236103
125,2_8_1,8,1.0,601.292092766,2_ND,training,03,1_B,126.0,01111,kill,0.0,300.0,1.91773770758
126,2_8_1,8,1.0,604.964152349,2_ND,training,03,1_B,127.0,11111,kill,0.0,200.0,1.9113655046
127,2_8_1,8,1.0,608.401813134,2_ND,training,03,1_B,128.0,10111,ignore,1.0,300.0,1.65702294192
128,2_8_1,8,1.0,612.589534936,2_ND,training,03,1_B,129.0,11001,kill,0.0,200.0,2.4213758737
129,2_8_1,8,1.0,615.620928973,2_ND,training,03,1_B,130.0,01001,kill,0.0,100.0,1.25800783023
130,2_8_1,8,1.0,621.355584193,2_ND,training,03,1_B,131.0,10111,kill,0.0,0.0,3.96683106061
131,2_8_1,8,1.0,624.808918583,2_ND,training,03,1_B,132.0,00100,ignore,0.0,0.0,1.65143170905
132,2_8_1,8,1.0,632.121782267,2_ND,training,03,1_B,133.0,01101,kill,1.0,100.0,5.5270650245
133,2_8_1,8,1.0,640.106600978,2_ND,training,03,1_B,134.0,00110,kill,0.0,0.0,6.21330234256
134,2_8_1,8,1.0,643.091119809,2_ND,training,03,1_B,135.0,00111,ignore,1.0,100.0,1.19903576651
135,2_8_1,8,1.0,646.419379028,2_ND,training,03,1_B,136.0,00000,ignore,0.0,0.0,1.55812678785
136,2_8_1,8,1.0,653.997927462,2_ND,training,03,1_B,137.0,11011,kill,0.0,0.0,5.80588033613
137,2_8_1,8,1.0,658.216893522,2_ND,training,03,1_B,138.0,01111,kill,0.0,0.0,2.4483105227
138,2_8_1,8,1.0,662.232752508,2_ND,training,03,1_B,139.0,00011,ignore,1.0,100.0,2.23666794209
139,2_8_1,8,1.0,668.342447859,2_ND,training,03,1_B,140.0,00001,ignore,0.0,0.0,4.32021218012
140,2_8_1,8,1.0,674.514636855,2_ND,training,03,1_B,141.0,10001,ignore,0.0,0.0,4.40778539005
141,2_8_1,8,1.0,678.202318407,2_ND,training,03,1_B,142.0,10101,kill,1.0,100.0,1.89934979026
142,2_8_1,8,1.0,683.968263106,2_ND,training,03,1_B,143.0,01110,ignore,1.0,200.0,3.96418025239
143,2_8_1,8,1.0,689.096670951,2_ND,training,03,1_B,144.0,01011,ignore,1.0,300.0,3.38684608987
144,2_8_1,8,1.0,693.221866714,2_ND,training,03,1_B,145.0,11110,kill,0.0,200.0,2.37790454332
145,2_8_1,8,1.0,699.894100773,2_ND,training,03,1_B,146.0,11101,kill,1.0,300.0,4.89653829784
146,2_8_1,8,1.0,704.113099226,2_ND,training,03,1_B,147.0,00101,ignore,0.0,200.0,2.44022435491
147,2_8_1,8,1.0,708.816433856,2_ND,training,03,1_B,148.0,11100,kill,1.0,300.0,2.91615748591
148,2_8_1,8,1.0,714.957391425,2_ND,training,03,1_B,149.0,11111,kill,0.0,200.0,4.35603898372
149,2_8_1,8,1.0,719.770112867,2_ND,training,03,1_B,150.0,10100,kill,1.0,300.0,3.02522421219
150,2_8_1,8,1.0,723.910948239,2_ND,training,03,1_B,151.0,01010,ignore,1.0,400.0,2.3657878
151,2_8_1,8,1.0,727.900091311,2_ND,training,03,1_B,152.0,10011,ignore,1.0,500.0,2.24505238594
152,2_8_1,8,1.0,733.087850318,2_ND,training,03,1_B,153.0,11000,ignore,1.0,600.0,3.41832030808
153,2_8_1,8,1.0,737.810249279,2_ND,training,03,1_B,154.0,01000,ignore,1.0,700.0,2.97499388213
154,2_8_1,8,1.0,743.24804541,2_ND,training,03,1_B,155.0,00010,ignore,1.0,800.0,3.66141176946
155,2_8_1,8,1.0,746.638864024,2_ND,training,03,1_B,156.0,10110,kill,0.0,700.0,1.62368273434
156,2_8_1,8,1.0,751.326559046,2_ND,training,03,1_B,157.0,01100,ignore,0.0,600.0,2.91763186769
157,2_8_1,8,1.0,754.498625204,2_ND,training,03,1_B,158.0,11010,kill,0.0,500.0,1.41511271788
158,2_8_1,8,1.0,759.373871081,2_ND,training,03,1_B,159.0,10000,ignore,0.0,400.0,3.10899007254
159,2_8_1,8,1.0,762.561544454,2_ND,training,03,1_B,160.0,10010,kill,0.0,300.0,1.39775722061
160,2_8_1,8,1.0,765.614833878,2_ND,training,03,1_B,161.0,00010,ignore,1.0,400.0,1.29177300101
161,2_8_1,8,1.0,770.661989719,2_ND,training,03,1_B,162.0,11011,ignore,1.0,500.0,3.2877023346
162,2_8_1,8,1.0,773.740265697,2_ND,training,03,1_B,163.0,01010,ignore,1.0,600.0,1.3054888889
163,2_8_1,8,1.0,777.443612835,2_ND,training,03,1_B,164.0,11001,kill,0.0,500.0,1.94050322699
164,2_8_1,8,1.0,780.381239783,2_ND,training,03,1_B,165.0,10111,kill,0.0,400.0,1.1566388714
165,2_8_1,8,1.0,783.30324797,2_ND,training,03,1_B,166.0,00000,ignore,0.0,300.0,1.13203270004
166,2_8_1,8,1.0,786.615938141,2_ND,training,03,1_B,167.0,10100,kill,1.0,400.0,1.54179665463
167,2_8_1,8,1.0,790.178628873,2_ND,training,03,1_B,168.0,01110,ignore,1.0,500.0,1.80701827534
168,2_8_1,8,1.0,793.303802186,2_ND,training,03,1_B,169.0,10110,kill,0.0,400.0,1.35724395486
169,2_8_1,8,1.0,796.647720898,2_ND,training,03,1_B,170.0,00001,ignore,0.0,300.0,1.56552724142
170,2_8_1,8,1.0,800.22605605,2_ND,training,03,1_B,171.0,00011,ignore,1.0,400.0,1.7965712365
171,2_8_1,8,1.0,809.914058969,2_ND,training,03,1_B,172.0,10000,ignore,0.0,300.0,7.9235188108
172,2_8_1,8,1.0,816.976917923,2_ND,training,03,1_B,173.0,00100,kill,1.0,400.0,5.26301245351
173,2_8_1,8,1.0,826.118017253,2_ND,training,03,1_B,174.0,11110,kill,0.0,300.0,7.37654337816
174,2_8_1,8,1.0,829.165049615,2_ND,training,03,1_B,175.0,11100,ignore,0.0,200.0,1.28345045747
175,2_8_1,8,1.0,832.040183558,2_ND,training,03,1_B,176.0,00111,ignore,1.0,300.0,1.08639678349
176,2_8_1,8,1.0,841.993859683,2_ND,training,03,1_B,177.0,11010,ignore,1.0,400.0,8.19405968793
177,2_8_1,8,1.0,1523.79509942,2_ND,test,03,2,0.0,01100,kill,0.0,0.0,8.1914278026
178,2_8_1,8,1.0,1533.68621551,2_ND,test,03,2,1.0,10011,kill,1.0,100.0,8.10386132793
179,2_8_1,8,1.0,1539.06152697,2_ND,test,03,2,2.0,10010,kill,0.0,0.0,3.61289989438
180,2_8_1,8,1.0,1545.53062541,2_ND,test,03,2,3.0,10001,ignore,0.0,0.0,4.69716320223
181,2_8_1,8,1.0,1557.06247119,2_ND,test,03,2,4.0,11101,ignore,1.0,100.0,9.76971580706
182,2_8_1,8,1.0,1561.59395135,2_ND,test,03,2,5.0,01101,ignore,1.0,200.0,2.77185377289
183,2_8_1,8,1.0,1565.70355176,2_ND,test,03,2,6.0,11111,kill,1.0,300.0,2.3384711652
184,2_8_1,8,1.0,1578.42295577,2_ND,test,03,2,7.0,11000,kill,0.0,200.0,10.9549481272
185,2_8_1,8,1.0,1582.12627116,2_ND,test,03,2,8.0,01011,kill,1.0,300.0,1.93201647125
186,2_8_1,8,1.0,1586.75461727,2_ND,test,03,2,9.0,00101,ignore,1.0,400.0,2.85193897079
187,2_8_1,8,1.0,1590.28607048,2_ND,test,03,2,10.0,01000,ignore,1.0,500.0,1.75163001453
188,2_8_1,8,1.0,1593.36437885,2_ND,test,03,2,11.0,01111,kill,1.0,600.0,1.31115100242
189,2_8_1,8,1.0,1596.80203354,2_ND,test,03,2,12.0,01001,ignore,0.0,500.0,1.67412314054
190,2_8_1,8,1.0,1601.22416408,2_ND,test,03,2,13.0,00110,kill,0.0,400.0,2.65397475302
191,2_8_1,8,1.0,1609.78711845,2_ND,test,03,2,14.0,10101,ignore,1.0,500.0,6.76883252505
192,2_8_1,8,1.0,1613.75605156,2_ND,test,03,2,15.0,00010,kill,0.0,400.0,2.19582753486
193,2_8_1,8,1.0,1620.33451532,2_ND,test,03,2,16.0,10100,ignore,1.0,500.0,4.78562578799
194,2_8_1,8,1.0,1624.00659896,2_ND,test,03,2,17.0,00110,ignore,1.0,600.0,1.9016747399
195,2_8_1,8,1.0,1630.83506488,2_ND,test,03,2,18.0,00000,kill,0.0,500.0,5.0391498555
196,2_8_1,8,1.0,1635.97912901,2_ND,test,03,2,19.0,11001,ignore,0.0,400.0,3.38551892177
197,2_8_1,8,1.0,1644.35455209,2_ND,test,03,2,20.0,01001,ignore,0.0,300.0,6.61621140011
198,2_8_1,8,1.0,1649.04229073,2_ND,test,03,2,21.0,00011,kill,1.0,400.0,2.88940693418
199,2_8_1,8,1.0,1652.22996796,2_ND,test,03,2,22.0,01011,kill,1.0,500.0,1.43512704155
200,2_8_1,8,1.0,1655.01137907,2_ND,test,03,2,23.0,11111,kill,1.0,600.0,1.00085441659
201,2_8_1,8,1.0,1659.10529594,2_ND,test,03,2,24.0,11100,ignore,1.0,700.0,2.31890938726
202,2_8_1,8,1.0,1664.46497966,2_ND,test,03,2,25.0,10000,kill,0.0,600.0,3.58421920789
203,2_8_1,8,1.0,1667.90265777,2_ND,test,03,2,26.0,01110,kill,0.0,500.0,1.67766268313
204,2_8_1,8,1.0,1671.49655235,2_ND,test,03,2,27.0,10111,ignore,0.0,400.0,1.8247580035
205,2_8_1,8,1.0,1675.12184545,2_ND,test,03,2,28.0,11110,ignore,1.0,500.0,1.87947049264
206,2_8_1,8,1.0,1678.63764173,2_ND,test,03,2,29.0,10011,kill,1.0,600.0,1.746687933
207,2_8_1,8,1.0,1683.62225229,2_ND,test,03,2,30.0,00100,ignore,1.0,700.0,3.19393428369
208,2_8_1,8,1.0,1687.24745816,2_ND,test,03,2,31.0,11011,kill,1.0,800.0,1.87235324096
209,2_8_1,8,1.0,1690.62266186,2_ND,test,03,2,32.0,10010,ignore,1.0,900.0,1.59535484748
210,2_8_1,8,1.0,1693.91973648,2_ND,test,03,2,33.0,01100,ignore,1.0,1000.0,1.52187117232
211,2_8_1,8,1.0,1697.95118728,2_ND,test,03,2,34.0,10001,ignore,0.0,900.0,2.25111284232
212,2_8_1,8,1.0,1702.60769033,2_ND,test,03,2,35.0,01010,ignore,1.0,1000.0,2.90399680299
213,2_8_1,8,1.0,1710.70184582,2_ND,test,03,2,36.0,10101,ignore,1.0,1100.0,6.29605149848
214,2_8_1,8,1.0,1714.8426581,2_ND,test,03,2,37.0,00111,kill,1.0,1200.0,2.35078964578
215,2_8_1,8,1.0,1718.84290249,2_ND,test,03,2,38.0,10110,ignore,1.0,1300.0,2.23860128413
216,2_8_1,8,1.0,1722.63998208,2_ND,test,03,2,39.0,01101,ignore,1.0,1400.0,2.02671398886
217,2_8_1,8,1.0,1726.6870478,2_ND,test,03,2,40.0,01000,ignore,1.0,1500.0,2.28075955839
218,2_8_1,8,1.0,1731.0466677,2_ND,test,03,2,41.0,11101,ignore,1.0,1600.0,2.58665256323
219,2_8_1,8,1.0,1734.43744045,2_ND,test,03,2,42.0,11010,ignore,1.0,1700.0,1.6169920495
220,2_8_1,8,1.0,1738.46890055,2_ND,test,03,2,43.0,11000,ignore,1.0,1800.0,2.27941346739
221,2_8_1,8,1.0,1742.06285927,2_ND,test,03,2,44.0,01111,ignore,0.0,1700.0,1.80168009604
222,2_8_1,8,1.0,1747.03186326,2_ND,test,03,2,45.0,00001,ignore,0.0,1600.0,3.20797089852
223,2_8_1,8,1.0,1757.98557915,2_ND,test,03,2,46.0,00101,ignore,1.0,1700.0,9.18049582462
224,2_8_1,8,1.0,1762.50145049,2_ND,test,03,2,47.0,01000,ignore,1.0,1800.0,2.74194181564
225,2_8_1,8,1.0,1765.51718696,2_ND,test,03,2,48.0,11101,ignore,1.0,1900.0,1.26229210078
226,2_8_1,8,1.0,1770.68937307,2_ND,test,03,2,49.0,10011,kill,1.0,2000.0,3.41107380344
227,2_8_1,8,1.0,1775.05135159,2_ND,test,03,2,50.0,10101,ignore,1.0,2100.0,2.56691310256
228,2_8_1,8,1.0,1779.42659474,2_ND,test,03,2,51.0,11011,kill,1.0,2200.0,2.61397753693
229,2_8_1,8,1.0,1783.62993017,2_ND,test,03,2,52.0,01010,ignore,1.0,2300.0,2.44350346722
230,2_8_1,8,1.0,1787.38224622,2_ND,test,03,2,53.0,11010,ignore,1.0,2400.0,2.0008771882
231,2_8_1,8,1.0,1791.03873451,2_ND,test,03,2,54.0,10110,ignore,1.0,2500.0,1.87845090168
232,2_8_1,8,1.0,1796.39834223,2_ND,test,03,2,55.0,01110,ignore,1.0,2600.0,3.59360239545
233,2_8_1,8,1.0,1799.58600053,2_ND,test,03,3,0.0,11110,ignore,0.0,2500.0,1.43166190761
234,2_8_1,8,1.0,1805.00819874,2_ND,test,03,3,1.0,01101,ignore,1.0,2600.0,3.63629083135
235,2_8_1,8,1.0,1808.43023467,2_ND,test,03,3,2.0,10111,kill,0.0,2500.0,1.65564189169
236,2_8_1,8,1.0,1812.91486592,2_ND,test,03,3,3.0,11001,ignore,0.0,2400.0,2.70762659814
237,2_8_1,8,1.0,1817.77448405,2_ND,test,03,3,4.0,01011,kill,0.0,2300.0,3.07655976731
238,2_8_1,8,1.0,1820.93088944,2_ND,test,03,3,5.0,00111,ignore,1.0,2400.0,1.36652194398
239,2_8_1,8,1.0,1825.38427803,2_ND,test,03,3,6.0,00000,kill,0.0,2300.0,2.66114139664
240,2_8_1,8,1.0,1828.68130069,2_ND,test,03,3,7.0,01100,ignore,1.0,2400.0,1.53674071504
241,2_8_1,8,1.0,1831.52521218,2_ND,test,03,3,8.0,00100,ignore,1.0,2500.0,1.05728151198
242,2_8_1,8,1.0,1834.5253424,2_ND,test,03,3,9.0,00001,ignore,1.0,2600.0,1.21379529988
243,2_8_1,8,1.0,1838.0099095,2_ND,test,03,3,10.0,11111,kill,1.0,2700.0,1.71618359308
244,2_8_1,8,1.0,1841.30694563,2_ND,test,03,3,11.0,10000,ignore,0.0,2600.0,1.52504155819
245,2_8_1,8,1.0,1844.80714272,2_ND,test,03,3,12.0,00110,ignore,1.0,2700.0,1.74287032015
246,2_8_1,8,1.0,1848.77612072,2_ND,test,03,3,13.0,01111,kill,0.0,2600.0,2.20793337347
247,2_8_1,8,1.0,1852.40127495,2_ND,test,03,3,14.0,01001,ignore,1.0,2700.0,1.86208677139
248,2_8_1,8,1.0,1858.87036185,2_ND,test,03,3,15.0,00011,kill,0.0,2600.0,4.70661951553
249,2_8_1,8,1.0,1862.29245262,2_ND,test,03,3,16.0,11100,ignore,0.0,2500.0,1.65892453199
250,2_8_1,8,1.0,1865.90202273,2_ND,test,03,3,17.0,10100,kill,1.0,2600.0,1.8140912667
251,2_8_1,8,1.0,1869.90220426,2_ND,test,03,3,18.0,00010,ignore,1.0,2700.0,2.21931885935
252,2_8_1,8,1.0,1873.58993168,2_ND,test,03,3,19.0,11000,ignore,0.0,2600.0,1.92870207898
253,2_8_1,8,1.0,1877.02582942,2_ND,test,03,3,20.0,10001,kill,0.0,2500.0,1.67402467737
254,2_8_1,8,1.0,1881.354156,2_ND,test,03,3,21.0,10010,ignore,0.0,2400.0,2.55729674651
255,2_8_1,8,1.0,1889.32335402,2_ND,test,03,3,22.0,00101,ignore,1.0,2500.0,6.17230959002
256,2_8_1,8,1.0,1892.46413936,2_ND,test,03,3,23.0,00101,ignore,1.0,2600.0,1.37599172781
257,2_8_1,8,1.0,1896.63624016,2_ND,test,03,3,24.0,10010,kill,1.0,2700.0,2.3999888387
258,2_8_1,8,1.0,1899.98630047,2_ND,test,03,3,25.0,10101,ignore,1.0,2800.0,1.58970684595
259,2_8_1,8,1.0,1905.92410542,2_ND,test,03,3,26.0,00100,ignore,1.0,2900.0,4.13945143504
260,2_8_1,8,1.0,1910.87753555,2_ND,test,03,3,27.0,00001,ignore,1.0,3000.0,3.17798773989
261,2_8_1,8,1.0,1915.25275689,2_ND,test,03,3,28.0,01101,ignore,1.0,3100.0,2.62531812104
262,2_8_1,8,1.0,1918.34666766,2_ND,test,03,3,29.0,10111,kill,0.0,3000.0,1.25957843009
263,2_8_1,8,1.0,1922.2374688,2_ND,test,03,3,30.0,10100,ignore,0.0,2900.0,2.12771122515
264,2_8_1,8,1.0,1926.31581598,2_ND,test,03,3,31.0,00011,kill,0.0,2800.0,2.31295092204
265,2_8_1,8,1.0,1929.32235784,2_ND,test,03,3,32.0,11000,ignore,0.0,2700.0,1.25962429404
266,2_8_1,8,1.0,1933.22883258,2_ND,test,03,3,33.0,11001,ignore,0.0,2600.0,2.16069767091
267,2_8_1,8,1.0,1936.86963348,2_ND,test,03,3,34.0,01100,kill,0.0,2500.0,1.88133936856
268,2_8_1,8,1.0,1939.744778,2_ND,test,03,3,35.0,10000,ignore,0.0,2400.0,1.09164547998
269,2_8_1,8,1.0,1946.44824221,2_ND,test,03,3,36.0,10110,kill,1.0,2500.0,4.93526447304
270,2_8_1,8,1.0,1949.97975155,2_ND,test,03,3,37.0,00000,kill,0.0,2400.0,1.74034331254
271,2_8_1,8,1.0,1953.74557084,2_ND,test,03,3,38.0,00110,kill,0.0,2300.0,2.0056130423
272,2_8_1,8,1.0,1957.62078849,2_ND,test,03,3,39.0,00111,ignore,1.0,2400.0,2.08279309552
273,2_8_1,8,1.0,1961.74156657,2_ND,test,03,3,40.0,10001,ignore,1.0,2500.0,2.33314806007
274,2_8_1,8,1.0,1965.5229796,2_ND,test,03,3,41.0,11011,ignore,0.0,2400.0,2.03856100082
275,2_8_1,8,1.0,1971.03888077,2_ND,test,03,3,42.0,01000,kill,0.0,2300.0,3.74716100525
276,2_8_1,8,1.0,1977.80487293,2_ND,test,03,3,43.0,11010,ignore,0.0,2200.0,5.02718545747
277,2_8_1,8,1.0,1983.33651473,2_ND,test,03,3,44.0,11101,ignore,0.0,2100.0,3.74960045441
278,2_8_1,8,1.0,1989.96184761,2_ND,test,03,3,45.0,00010,ignore,1.0,2200.0,4.85226899882
279,2_8_1,8,1.0,1994.44646602,2_ND,test,03,3,46.0,01111,kill,0.0,2100.0,2.73493970494
280,2_8_1,8,1.0,1998.07167798,2_ND,test,03,3,47.0,11111,ignore,0.0,2000.0,1.86304542424
281,2_8_1,8,1.0,2005.33767705,2_ND,test,03,3,48.0,11110,ignore,0.0,1900.0,5.53210845574
282,2_8_1,8,1.0,2011.50986572,2_ND,test,03,3,49.0,01011,kill,0.0,1800.0,4.41948422617
283,2_8_1,8,1.0,2016.57259895,2_ND,test,03,3,50.0,01001,ignore,1.0,1900.0,3.28709968867
284,2_8_1,8,1.0,2020.80722194,2_ND,test,03,3,51.0,01110,kill,0.0,1800.0,2.48947486415
285,2_8_1,8,1.0,2027.71383106,2_ND,test,03,3,52.0,11100,kill,1.0,1900.0,5.14782689854
286,2_8_1,8,1.0,2032.20088476,2_ND,test,03,3,53.0,10011,ignore,1.0,2000.0,2.72210517471
287,2_8_1,8,1.0,2040.46902275,2_ND,test,03,3,54.0,01010,ignore,1.0,2100.0,6.5237455006
288,2_8_1,8,1.0,2045.93802914,2_ND,test,03,3,55.0,11011,kill,1.0,2200.0,3.71344298132
289,2_8_1,8,1.0,2052.28210725,2_ND,test,03,3,56.0,01101,kill,0.0,2100.0,4.58720998667
290,2_8_1,8,1.0,2055.6417047,2_ND,test,03,3,57.0,11101,ignore,0.0,2000.0,1.58365184192
291,2_8_1,8,1.0,2060.12866924,2_ND,test,03,3,58.0,01011,ignore,1.0,2100.0,2.71036560627
292,2_8_1,8,1.0,2063.75387799,2_ND,test,03,3,59.0,11111,kill,1.0,2200.0,1.87183302185
293,2_8_1,8,1.0,2067.95720155,2_ND,test,03,3,60.0,00100,kill,0.0,2100.0,2.42699436835
294,2_8_1,8,1.0,2071.89491189,2_ND,test,03,3,61.0,10111,kill,0.0,2000.0,2.18494013792
295,2_8_1,8,1.0,2077.36391732,2_ND,test,03,3,62.0,00010,ignore,1.0,2100.0,3.68682777637
296,2_8_1,8,1.0,2081.12976452,2_ND,test,03,3,63.0,10001,ignore,1.0,2200.0,1.96752832099
297,2_8_1,8,1.0,2084.03616581,2_ND,test,03,3,64.0,11000,ignore,0.0,2100.0,1.15929416979
298,2_8_1,8,1.0,2087.28635592,2_ND,test,03,3,65.0,01010,ignore,1.0,2200.0,1.46404699035
299,2_8_1,8,1.0,2091.33341138,2_ND,test,03,3,66.0,10100,kill,1.0,2300.0,2.28396811076
300,2_8_1,8,1.0,2096.13052817,2_ND,test,03,3,67.0,11110,kill,1.0,2400.0,3.03881469584
301,2_8_1,8,1.0,2100.20887663,2_ND,test,03,3,68.0,01001,ignore,1.0,2500.0,2.30673619599
302,2_8_1,8,1.0,2103.91223179,2_ND,test,03,3,69.0,11010,ignore,0.0,2400.0,1.94053209242
303,2_8_1,8,1.0,2107.33424527,2_ND,test,03,3,70.0,00000,ignore,1.0,2500.0,1.63692971942
304,2_8_1,8,1.0,2110.7250472,2_ND,test,03,3,71.0,00011,ignore,1.0,2600.0,1.63413875353
305,2_8_1,8,1.0,2114.00647772,2_ND,test,03,3,72.0,00111,kill,0.0,2500.0,1.50332641953
306,2_8_1,8,1.0,2117.25667072,2_ND,test,03,3,73.0,00101,ignore,1.0,2600.0,1.44845581201
307,2_8_1,8,1.0,2121.0380937,2_ND,test,03,3,74.0,01000,ignore,1.0,2700.0,2.04607114301
308,2_8_1,8,1.0,2124.22574879,2_ND,test,03,3,75.0,10000,ignore,0.0,2600.0,1.41873853602
309,2_8_1,8,1.0,2128.06974336,2_ND,test,03,3,76.0,10010,ignore,0.0,2500.0,2.07288167068
310,2_8_1,8,1.0,2132.33561381,2_ND,test,03,3,77.0,01111,kill,0.0,2400.0,2.50808985614
311,2_8_1,8,1.0,2137.35160141,2_ND,test,03,3,78.0,01110,kill,0.0,2300.0,3.26183795143
312,2_8_1,8,1.0,2141.77367165,2_ND,test,03,3,79.0,00110,ignore,1.0,2400.0,2.67374660711
313,2_8_1,8,1.0,2145.52386481,2_ND,test,03,3,80.0,10011,ignore,1.0,2500.0,1.98009023332
314,2_8_1,8,1.0,2149.03968675,2_ND,test,03,3,81.0,00001,ignore,1.0,2600.0,1.73919960025
315,2_8_1,8,1.0,2154.18058948,2_ND,test,03,3,82.0,11100,kill,1.0,2700.0,3.38882722022
316,2_8_1,8,1.0,2157.93078905,2_ND,test,03,3,83.0,01100,kill,0.0,2600.0,1.97016309286
317,2_8_1,8,1.0,2160.91532456,2_ND,test,03,3,84.0,10110,ignore,0.0,2500.0,1.24210875402
318,2_8_1,8,1.0,2166.96250862,2_ND,test,03,3,85.0,10101,kill,0.0,2400.0,4.24648507321
319,2_8_1,8,1.0,2170.30643215,2_ND,test,03,3,86.0,11001,ignore,0.0,2300.0,1.56857222306
320,2_8_1,8,1.0,2173.72845813,2_ND,test,03,3,87.0,10110,ignore,0.0,2200.0,1.67333158644
321,2_8_1,8,1.0,2178.63500279,2_ND,test,03,3,88.0,10101,kill,0.0,2100.0,3.12435898711
322,2_8_1,8,1.0,2181.6351901,2_ND,test,03,3,89.0,00010,ignore,1.0,2200.0,1.25350354099
323,2_8_1,8,1.0,2185.46344755,2_ND,test,03,3,90.0,00100,kill,0.0,2100.0,2.05838192614
324,2_8_1,8,1.0,2190.10432382,2_ND,test,03,3,91.0,00000,ignore,1.0,2200.0,2.8618689978
325,2_8_1,8,1.0,2193.04199759,2_ND,test,03,3,92.0,01011,ignore,1.0,2300.0,1.18559538307
326,2_8_1,8,1.0,2196.12026523,2_ND,test,03,3,93.0,00111,ignore,1.0,2400.0,1.30517361431
327,2_8_1,8,1.0,2199.8392369,2_ND,test,03,3,94.0,11010,ignore,0.0,2300.0,1.94786038243
328,2_8_1,8,1.0,2203.18312579,2_ND,test,03,3,95.0,00101,ignore,1.0,2400.0,1.57915589158
329,2_8_1,8,1.0,2206.49582686,2_ND,test,03,3,96.0,11100,kill,1.0,2500.0,1.53111227784
330,2_8_1,8,1.0,2212.18361906,2_ND,test,03,3,97.0,11101,kill,1.0,2600.0,3.93341708583
331,2_8_1,8,1.0,2215.35567143,2_ND,test,03,3,98.0,10011,ignore,1.0,2700.0,1.42939982046
332,2_8_1,8,1.0,2219.35585713,2_ND,test,03,3,99.0,11001,ignore,0.0,2600.0,2.22665580899
333,2_8_1,8,1.0,2222.5591807,2_ND,test,03,4,0.0,00001,ignore,1.0,2700.0,1.4316962254
334,2_8_1,8,1.0,2226.0749773,2_ND,test,03,4,1.0,01000,ignore,1.0,2800.0,1.74934258994
335,2_8_1,8,1.0,2229.57517375,2_ND,test,03,4,2.0,11000,kill,0.0,2700.0,1.75813948864
336,2_8_1,8,1.0,2233.88788765,2_ND,test,03,4,3.0,01111,ignore,0.0,2600.0,2.518074086
337,2_8_1,8,1.0,2239.10690374,2_ND,test,03,4,4.0,00110,kill,1.0,2700.0,3.43044218303
338,2_8_1,8,1.0,2243.65401388,2_ND,test,03,4,5.0,10100,kill,0.0,2600.0,2.79395699116
339,2_8_1,8,1.0,2250.02935261,2_ND,test,03,4,6.0,01100,kill,0.0,2500.0,4.60803735314
340,2_8_1,8,1.0,2253.13888214,2_ND,test,03,4,7.0,01010,ignore,0.0,2400.0,1.37346407874
341,2_8_1,8,1.0,2257.01406773,2_ND,test,03,4,8.0,10000,ignore,1.0,2500.0,2.08454618901
342,2_8_1,8,1.0,2260.45176058,2_ND,test,03,4,9.0,10001,ignore,1.0,2600.0,1.66239575973
343,2_8_1,8,1.0,2266.98337608,2_ND,test,03,4,10.0,01110,kill,1.0,2700.0,4.79657700959
344,2_8_1,8,1.0,2271.34296359,2_ND,test,03,4,11.0,01001,ignore,1.0,2800.0,2.58430997361
345,2_8_1,8,1.0,2275.57755995,2_ND,test,03,4,12.0,01101,ignore,1.0,2900.0,2.49517193691
346,2_8_1,8,1.0,2279.58015271,2_ND,test,03,4,13.0,11011,ignore,0.0,2800.0,2.23436351898
347,2_8_1,8,1.0,2282.92408842,2_ND,test,03,4,14.0,11110,kill,0.0,2700.0,1.58295458154
348,2_8_1,8,1.0,2287.53372107,2_ND,test,03,4,15.0,10111,kill,0.0,2600.0,2.86287864622
349,2_8_1,8,1.0,2291.79955207,2_ND,test,03,4,16.0,00011,ignore,0.0,2500.0,2.49877081398
350,2_8_1,8,1.0,2295.34659582,2_ND,test,03,4,17.0,11111,kill,0.0,2400.0,1.78843086586
351,2_8_1,8,1.0,2298.68131801,2_ND,test,03,4,18.0,10010,ignore,0.0,2300.0,1.58803650001
352,2_8_1,8,1.0,2301.96272191,2_ND,test,03,4,19.0,00110,ignore,0.0,2200.0,1.48259013951
353,2_8_1,8,1.0,2306.00982772,2_ND,test,03,4,20.0,10100,ignore,1.0,2300.0,2.28583345868
354,2_8_1,8,1.0,2309.93189043,2_ND,test,03,4,21.0,11000,ignore,1.0,2400.0,2.14368086129
355,2_8_1,8,1.0,2314.07273895,2_ND,test,03,4,22.0,10110,kill,0.0,2300.0,2.35191219009
356,2_8_1,8,1.0,2320.90118082,2_ND,test,03,4,23.0,00011,ignore,0.0,2200.0,5.07178029434
357,2_8_1,8,1.0,2325.37014969,2_ND,test,03,4,24.0,10101,ignore,1.0,2300.0,2.69614938435
358,2_8_1,8,1.0,2328.76290549,2_ND,test,03,4,25.0,01010,ignore,0.0,2200.0,1.65197085105
359,2_8_1,8,1.0,2331.91935032,2_ND,test,03,4,26.0,00010,kill,1.0,2300.0,1.3507030495
360,2_8_1,8,1.0,2335.61330305,2_ND,test,03,4,27.0,01011,kill,1.0,2400.0,1.92690055572
361,2_8_1,8,1.0,2341.69173009,2_ND,test,03,4,28.0,11111,ignore,1.0,2500.0,4.32118013404
362,2_8_1,8,1.0,2345.70756726,2_ND,test,03,4,29.0,10001,ignore,1.0,2600.0,2.23223774077
363,2_8_1,8,1.0,2349.00457421,2_ND,test,03,4,30.0,00101,ignore,1.0,2700.0,1.54106186919
364,2_8_1,8,1.0,2351.97352175,2_ND,test,03,4,31.0,00100,ignore,1.0,2800.0,1.20562381872
365,2_8_1,8,1.0,2355.08304358,2_ND,test,03,4,32.0,11101,ignore,1.0,2900.0,1.33288570542
366,2_8_1,8,1.0,2358.0988567,2_ND,test,03,4,33.0,00001,ignore,1.0,3000.0,1.27120317828
367,2_8_1,8,1.0,2361.63027816,2_ND,test,03,4,34.0,10011,kill,1.0,3100.0,1.78790776021
368,2_8_1,8,1.0,2365.58360886,2_ND,test,03,4,35.0,00000,ignore,1.0,3200.0,2.17026623865
369,2_8_1,8,1.0,2369.03691086,2_ND,test,03,5,0.0,11110,kill,0.0,3100.0,1.72303624503
370,2_8_1,8,1.0,2373.08398941,2_ND,test,03,5,1.0,01001,ignore,0.0,3000.0,2.26878233128
371,2_8_1,8,1.0,2376.7560801,2_ND,test,03,5,2.0,11100,ignore,1.0,3100.0,1.92902922047
372,2_8_1,8,1.0,2380.56875696,2_ND,test,03,5,3.0,10000,ignore,1.0,3200.0,2.05832804401
373,2_8_1,8,1.0,2383.97527099,2_ND,test,03,5,4.0,10111,kill,1.0,3300.0,1.61389992101
374,2_8_1,8,1.0,2386.97537875,2_ND,test,03,5,5.0,01000,ignore,1.0,3400.0,1.26021282799
375,2_8_1,8,1.0,2390.39746985,2_ND,test,03,5,6.0,01100,ignore,1.0,3500.0,1.64065207637
376,2_8_1,8,1.0,2393.50700965,2_ND,test,03,5,7.0,11011,kill,1.0,3600.0,1.36657037375
377,2_8_1,8,1.0,2397.53844987,2_ND,test,03,5,8.0,01101,ignore,1.0,3700.0,2.23770292795
378,2_8_1,8,1.0,2401.56990516,2_ND,test,03,5,9.0,01111,kill,1.0,3800.0,2.25779743335
379,2_8_1,8,1.0,2405.08570241,2_ND,test,03,5,10.0,11010,kill,0.0,3700.0,1.77432625692
380,2_8_1,8,1.0,2410.66412159,2_ND,test,03,5,11.0,01110,kill,0.0,3600.0,3.80619240345
381,2_8_1,8,1.0,2417.195731,2_ND,test,03,5,12.0,11001,ignore,0.0,3500.0,4.79578128603
382,2_8_1,8,1.0,2422.77414633,2_ND,test,03,5,13.0,00111,ignore,0.0,3400.0,3.76672855628
383,2_8_1,8,1.0,2426.68061401,2_ND,test,03,5,14.0,10010,ignore,1.0,3500.0,2.11623625645
384,2_8_1,8,1.0,2432.36843251,2_ND,test,03,5,15.0,10100,kill,0.0,3400.0,3.92553457966
385,2_8_1,8,1.0,2435.77482178,2_ND,test,03,5,16.0,11100,ignore,1.0,3500.0,1.64468746282
386,2_8_1,8,1.0,2439.82192406,2_ND,test,03,5,17.0,10011,ignore,0.0,3400.0,2.28287924278
387,2_8_1,8,1.0,2446.10354156,2_ND,test,03,5,18.0,11110,kill,0.0,3300.0,4.53406681448
388,2_8_1,8,1.0,2451.21316218,2_ND,test,03,5,19.0,00111,ignore,0.0,3200.0,3.32425590547
389,2_8_1,8,1.0,2454.94770547,2_ND,test,03,5,20.0,11111,kill,1.0,3300.0,1.98158161362
390,2_8_1,8,1.0,2458.60418061,2_ND,test,03,5,21.0,01001,kill,1.0,3400.0,1.90063205659
391,2_8_1,8,1.0,2462.98947599,2_ND,test,03,5,22.0,11000,ignore,1.0,3500.0,2.59849283993
392,2_8_1,8,1.0,2467.380293,2_ND,test,03,5,23.0,00110,ignore,1.0,3600.0,2.62021599677
393,2_8_1,8,1.0,2470.69298734,2_ND,test,03,5,24.0,00011,kill,1.0,3700.0,1.53631639328
394,2_8_1,8,1.0,2473.83377781,2_ND,test,03,5,25.0,01110,ignore,1.0,3800.0,1.41107316199
395,2_8_1,8,1.0,2476.92767383,2_ND,test,03,5,26.0,00100,ignore,1.0,3900.0,1.28784377519
396,2_8_1,8,1.0,2479.72469537,2_ND,test,03,5,27.0,00010,ignore,1.0,4000.0,1.00247120113
397,2_8_1,8,1.0,2482.74057039,2_ND,test,03,5,28.0,11001,kill,1.0,4100.0,1.26615140814
398,2_8_1,8,1.0,2485.95955922,2_ND,test,03,5,29.0,01011,kill,1.0,4200.0,1.42998322277
399,2_8_1,8,1.0,2488.55340248,2_ND,test,03,6,0.0,01111,kill,0.0,4100.0,0.851745893172
400,2_8_1,8,1.0,2492.27235812,2_ND,test,03,6,1.0,00000,ignore,1.0,4200.0,1.92748235441
401,2_8_1,8,1.0,2495.53815769,2_ND,test,03,6,2.0,10111,kill,0.0,4100.0,1.47252123774
402,2_8_1,8,1.0,2499.10710708,2_ND,test,03,6,3.0,01100,ignore,1.0,4200.0,1.82901757808
403,2_8_1,8,1.0,2502.2947718,2_ND,test,03,6,4.0,11101,ignore,0.0,4100.0,1.40199883448
404,2_8_1,8,1.0,2506.09181643,2_ND,test,03,6,5.0,00101,kill,0.0,4000.0,2.03284083572
405,2_8_1,8,1.0,2510.31083669,2_ND,test,03,6,6.0,11011,kill,1.0,4100.0,2.47841459539
406,2_8_1,8,1.0,2513.93599701,2_ND,test,03,6,7.0,10001,ignore,1.0,4200.0,1.83287913052
407,2_8_1,8,1.0,2517.04551821,2_ND,test,03,6,8.0,10110,ignore,0.0,4100.0,1.37439867707
408,2_8_1,8,1.0,2520.59258569,2_ND,test,03,6,9.0,00001,ignore,1.0,4200.0,1.79109161661
409,2_8_1,8,1.0,2523.4208749,2_ND,test,03,6,10.0,10000,ignore,0.0,4100.0,1.05349821692
410,2_8_1,8,1.0,2526.76476891,2_ND,test,03,6,11.0,01101,ignore,1.0,4200.0,1.57860263759
411,2_8_1,8,1.0,2530.59312066,2_ND,test,03,6,12.0,01010,kill,0.0,4100.0,2.05767408177
412,2_8_1,8,1.0,2533.37450837,2_ND,test,03,6,13.0,11010,kill,1.0,4200.0,1.05519486247
413,2_8_1,8,1.0,2537.53097501,2_ND,test,03,6,14.0,01000,kill,0.0,4100.0,2.4049674831
414,2_8_1,8,1.0,2541.7499664,2_ND,test,03,6,15.0,10010,kill,1.0,4200.0,2.43424504244
415,2_8_1,8,1.0,2544.71885332,2_ND,test,03,6,16.0,10101,ignore,1.0,4300.0,1.20671204525
416,2_8_1,8,1.0,2547.75026917,2_ND,test,03,6,17.0,11101,ignore,0.0,4200.0,1.26093221853
417,2_8_1,8,1.0,2552.29739887,2_ND,test,03,6,18.0,01100,ignore,1.0,4300.0,2.79430081044
418,2_8_1,8,1.0,2556.25070295,2_ND,test,03,6,19.0,10100,ignore,0.0,4200.0,2.15911680779
419,2_8_1,8,1.0,2560.67278026,2_ND,test,03,6,20.0,00111,kill,0.0,4100.0,2.61397657474
420,2_8_1,8,1.0,2564.3448748,2_ND,test,03,6,21.0,11111,kill,1.0,4200.0,1.92368013645
421,2_8_1,8,1.0,2573.93915425,2_ND,test,03,6,22.0,00001,ignore,1.0,4300.0,7.80388381089
422,2_8_1,8,1.0,2578.25186976,2_ND,test,03,6,23.0,00101,ignore,1.0,4400.0,2.55004767606
423,2_8_1,8,1.0,2581.83014012,2_ND,test,03,6,24.0,10101,ignore,1.0,4500.0,1.78038671331
424,2_8_1,8,1.0,2585.37720953,2_ND,test,03,6,25.0,00011,ignore,1.0,4600.0,1.74597303264
425,2_8_1,8,1.0,2588.45553361,2_ND,test,03,6,26.0,00010,ignore,1.0,4700.0,1.32310962736
426,2_8_1,8,1.0,2592.09632392,2_ND,test,03,6,27.0,01110,kill,0.0,4600.0,1.87728377632
427,2_8_1,8,1.0,2595.51840957,2_ND,test,03,6,28.0,01011,kill,0.0,4500.0,1.67350285463
428,2_8_1,8,1.0,2598.72167412,2_ND,test,03,6,29.0,10011,ignore,1.0,4600.0,1.4453874173
429,2_8_1,8,1.0,2603.16253512,2_ND,test,03,6,30.0,11011,ignore,0.0,4500.0,2.66595550812
430,2_8_1,8,1.0,2606.45958696,2_ND,test,03,6,31.0,01111,kill,0.0,4400.0,1.55845841952
431,2_8_1,8,1.0,2610.20978076,2_ND,test,03,6,32.0,11000,ignore,0.0,4300.0,2.00771797325
432,2_8_1,8,1.0,2613.6787105,2_ND,test,03,6,33.0,11010,ignore,0.0,4200.0,1.70980497557
433,2_8_1,8,1.0,2616.86637393,2_ND,test,03,6,34.0,10001,kill,0.0,4100.0,1.42433008961
434,2_8_1,8,1.0,2621.80416284,2_ND,test,03,6,35.0,10000,kill,1.0,4200.0,3.15771683467
435,2_8_1,8,1.0,2626.7575702,2_ND,test,03,6,36.0,01010,ignore,1.0,4300.0,3.2135230027
436,2_8_1,8,1.0,2630.75774788,2_ND,test,03,6,37.0,01101,ignore,1.0,4400.0,2.20930159462
437,2_8_1,8,1.0,2634.72671178,2_ND,test,03,6,38.0,00000,ignore,1.0,4500.0,2.18291474725
438,2_8_1,8,1.0,2637.89872726,2_ND,test,03,6,39.0,10110,ignore,0.0,4400.0,1.41416721484
439,2_8_1,8,1.0,2641.67185496,2_ND,test,03,6,40.0,01000,ignore,1.0,4500.0,2.00362645959
440,2_8_1,8,1.0,2646.31270428,2_ND,test,03,6,41.0,01001,ignore,1.0,4600.0,2.891193704
441,2_8_1,8,1.0,2649.96918327,2_ND,test,03,6,42.0,11110,kill,1.0,4700.0,1.88470924659
442,2_8_1,8,1.0,2653.06306358,2_ND,test,03,6,43.0,11001,ignore,0.0,4600.0,1.30283615632
443,2_8_1,8,1.0,2656.4538761,2_ND,test,03,6,44.0,10111,ignore,1.0,4700.0,1.61771015713
444,2_8_1,8,1.0,2659.45402652,2_ND,test,03,6,45.0,10010,ignore,0.0,4600.0,1.19827917164
445,2_8_1,8,1.0,2663.50110346,2_ND,test,03,6,46.0,00110,kill,0.0,4500.0,2.30988188589
446,2_8_1,8,1.0,2667.53257351,2_ND,test,03,6,47.0,11100,ignore,0.0,4400.0,2.27180133403
447,2_8_1,8,1.0,2671.3296345,2_ND,test,03,6,48.0,00100,ignore,1.0,4500.0,2.00242309208
448,2_8_1,8,1.0,2675.17358993,2_ND,test,03,6,49.0,11001,ignore,0.0,4400.0,2.09709912098
449,2_8_1,8,1.0,2678.45500987,2_ND,test,03,6,50.0,10001,ignore,1.0,4500.0,1.5241156195
450,2_8_1,8,1.0,2681.72079629,2_ND,test,03,6,51.0,01010,ignore,1.0,4600.0,1.48534358035
451,2_8_1,8,1.0,2685.39289372,2_ND,test,03,6,52.0,00101,ignore,1.0,4700.0,1.88789695171
452,2_8_1,8,1.0,2688.58056196,2_ND,test,03,6,53.0,00000,ignore,1.0,4800.0,1.39335652617
453,2_8_1,8,1.0,2692.06537153,2_ND,test,03,6,54.0,10111,kill,0.0,4700.0,1.74552593927
454,2_8_1,8,1.0,2696.28432251,2_ND,test,03,6,55.0,10110,ignore,0.0,4600.0,2.45899008857
455,2_8_1,8,1.0,2700.06575993,2_ND,test,03,6,56.0,01111,kill,0.0,4500.0,1.99776934409
456,2_8_1,8,1.0,2703.55034627,2_ND,test,03,6,57.0,00001,ignore,1.0,4600.0,1.73251308486
457,2_8_1,8,1.0,2707.42549401,2_ND,test,03,6,58.0,00100,ignore,1.0,4700.0,2.07624256836
458,2_8_1,8,1.0,2711.39446977,2_ND,test,03,6,59.0,11101,kill,1.0,4800.0,2.2163819627
459,2_8_1,8,1.0,2715.01965319,2_ND,test,03,6,60.0,00110,ignore,1.0,4900.0,1.82854739238
460,2_8_1,8,1.0,2718.61359106,2_ND,test,03,6,61.0,11110,ignore,0.0,4800.0,1.8178059262
461,2_8_1,8,1.0,2721.83252344,2_ND,test,03,6,62.0,01100,ignore,1.0,4900.0,1.4718720864
462,2_8_1,8,1.0,2724.7076994,2_ND,test,03,6,63.0,01000,ignore,1.0,5000.0,1.08331171099
463,2_8_1,8,1.0,2727.72346281,2_ND,test,03,6,64.0,00010,ignore,1.0,5100.0,1.27140234971
464,2_8_1,8,1.0,2730.78613414,2_ND,test,03,6,65.0,11111,kill,1.0,5200.0,1.29083038452
465,2_8_1,8,1.0,2734.37074303,2_ND,test,03,6,66.0,11100,ignore,0.0,5100.0,1.81430647448
466,2_8_1,8,1.0,2737.88657492,2_ND,test,03,6,67.0,01001,ignore,1.0,5200.0,1.75688320119
467,2_8_1,8,1.0,2741.01174117,2_ND,test,03,6,68.0,11000,ignore,0.0,5100.0,1.34864494469
468,2_8_1,8,1.0,2745.10568594,2_ND,test,03,6,69.0,10101,ignore,1.0,5200.0,2.3339434629
469,2_8_1,8,1.0,2748.01210135,2_ND,test,03,6,70.0,01101,ignore,1.0,5300.0,1.13452923859
470,2_8_1,8,1.0,2751.2778929,2_ND,test,03,6,71.0,10010,ignore,0.0,5200.0,1.48745011493
471,2_8_1,8,1.0,2754.59052342,2_ND,test,03,6,72.0,10000,ignore,0.0,5100.0,1.56345919407
472,2_8_1,8,1.0,2757.73134211,2_ND,test,03,6,73.0,10100,kill,1.0,5200.0,1.39604004853
473,2_8_1,8,1.0,2761.12212416,2_ND,test,03,6,74.0,01011,ignore,1.0,5300.0,1.60274760361
