,unique_id,pair_id,sbj_id,wall_time,condition,block,rule_id,rule_num,trial,stimulus,choice,correct,points,reaction_time
0,1_36_1,36,1.0,45.4531549558,1_I,training,01,1_B,1.0,11111,kill,0.0,0.0,10.7087547755
1,1_36_1,36,1.0,50.7646039504,1_I,training,01,1_B,2.0,10010,ignore,1.0,100.0,3.14709661634
2,1_36_1,36,1.0,56.8653391256,1_I,training,01,1_B,3.0,11011,kill,0.0,0.0,3.95503189399
3,1_36_1,36,1.0,68.3193779502,1_I,training,01,1_B,4.0,01101,ignore,0.0,0.0,9.15767717812
4,1_36_1,36,1.0,74.5690304374,1_I,training,01,1_B,5.0,11010,ignore,0.0,0.0,4.11123322066
5,1_36_1,36,1.0,86.7240572409,1_I,training,01,1_B,6.0,01111,ignore,1.0,100.0,10.005288023
6,1_36_1,36,1.0,93.3079607304,1_I,training,01,1_B,7.0,10110,ignore,1.0,200.0,4.31894196845
7,1_36_1,36,1.0,96.9202945791,1_I,training,01,1_B,8.0,00010,kill,0.0,100.0,1.45749260432
8,1_36_1,36,1.0,100.63162255,1_I,training,01,1_B,9.0,10111,ignore,1.0,200.0,1.51750577409
9,1_36_1,36,1.0,111.490962616,1_I,training,01,1_B,10.0,10100,ignore,1.0,300.0,8.69528285853
10,1_36_1,36,1.0,136.305731969,1_I,training,01,1_B,11.0,00100,ignore,1.0,400.0,22.6366338764
11,1_36_1,36,1.0,141.119946697,1_I,training,01,1_B,12.0,11001,kill,1.0,500.0,2.65343887758
12,1_36_1,36,1.0,145.450341601,1_I,training,01,1_B,13.0,01001,kill,1.0,600.0,2.14252455579
13,1_36_1,36,1.0,148.972548752,1_I,training,01,1_B,14.0,00110,ignore,1.0,700.0,1.32685614492
14,1_36_1,36,1.0,152.541367357,1_I,training,01,1_B,15.0,10011,kill,0.0,600.0,1.25260172701
15,1_36_1,36,1.0,172.736764342,1_I,training,01,1_B,16.0,01000,kill,1.0,700.0,18.0885059293
16,1_36_1,36,1.0,181.863036469,1_I,training,01,1_B,17.0,11000,kill,1.0,800.0,6.98546276051
17,1_36_1,36,1.0,190.561052218,1_I,training,01,1_B,18.0,10000,ignore,1.0,900.0,6.55457325109
18,1_36_1,36,1.0,194.483613328,1_I,training,01,1_B,19.0,10101,ignore,1.0,1000.0,1.74539899716
19,1_36_1,36,1.0,201.634340251,1_I,training,01,1_B,20.0,00111,ignore,1.0,1100.0,4.97796280772
20,1_36_1,36,1.0,207.335392273,1_I,training,01,1_B,21.0,01110,kill,1.0,1200.0,3.49121344958
21,1_36_1,36,1.0,212.79523146,1_I,training,01,1_B,22.0,00011,ignore,1.0,1300.0,3.28826519511
22,1_36_1,36,1.0,220.750223122,1_I,training,01,1_B,23.0,00000,kill,0.0,1200.0,5.8009866652
23,1_36_1,36,1.0,228.730658546,1_I,training,01,1_B,24.0,11101,kill,1.0,1300.0,5.81930816025
24,1_36_1,36,1.0,232.47323023,1_I,training,01,1_B,25.0,10001,ignore,1.0,1400.0,1.58041317272
25,1_36_1,36,1.0,237.613239475,1_I,training,01,1_B,26.0,11100,kill,1.0,1500.0,3.00601014335
26,1_36_1,36,1.0,241.84640389,1_I,training,01,1_B,27.0,00101,ignore,1.0,1600.0,2.08851537143
27,1_36_1,36,1.0,245.467319435,1_I,training,01,1_B,28.0,11110,kill,1.0,1700.0,1.46468876571
28,1_36_1,36,1.0,248.729699961,1_I,training,01,1_B,29.0,00001,ignore,1.0,1800.0,1.1218388247
29,1_36_1,36,1.0,253.039951853,1_I,training,01,1_B,30.0,01010,kill,1.0,1900.0,2.17081533506
30,1_36_1,36,1.0,257.829929364,1_I,training,01,1_B,31.0,01011,kill,0.0,1800.0,2.56032435069
31,1_36_1,36,1.0,262.021368851,1_I,training,01,1_B,32.0,01100,kill,1.0,1900.0,2.03867510824
32,1_36_1,36,1.0,265.763149036,1_I,training,01,1_B,33.0,11101,kill,1.0,2000.0,1.63642614872
33,1_36_1,36,1.0,270.258237879,1_I,training,01,1_B,34.0,01100,kill,1.0,2100.0,2.36183854555
34,1_36_1,36,1.0,279.207789211,1_I,training,01,1_B,35.0,11011,kill,0.0,2000.0,6.84687846127
35,1_36_1,36,1.0,282.807255442,1_I,training,01,1_B,36.0,00010,ignore,1.0,2100.0,1.49144539842
36,1_36_1,36,1.0,286.267342589,1_I,training,01,1_B,37.0,00001,ignore,1.0,2200.0,1.30349869164
37,1_36_1,36,1.0,289.504959189,1_I,training,01,1_B,38.0,10011,ignore,1.0,2300.0,1.10356536154
38,1_36_1,36,1.0,295.074113606,1_I,training,01,1_B,39.0,11001,ignore,0.0,2200.0,3.4593108369
39,1_36_1,36,1.0,298.739754225,1_I,training,01,1_B,40.0,01000,ignore,0.0,2100.0,1.54526081313
40,1_36_1,36,1.0,302.758481733,1_I,training,01,1_B,41.0,01010,kill,1.0,2200.0,1.92605101561
41,1_36_1,36,1.0,306.620396637,1_I,training,01,1_B,42.0,11110,kill,1.0,2300.0,1.75188042771
42,1_36_1,36,1.0,309.954080698,1_I,training,01,1_B,43.0,10010,ignore,1.0,2400.0,1.20995762521
43,1_36_1,36,1.0,318.381353859,1_I,training,01,1_B,44.0,01111,kill,0.0,2300.0,6.30771030781
44,1_36_1,36,1.0,321.735431355,1_I,training,01,1_B,45.0,00011,ignore,1.0,2400.0,1.23601020082
45,1_36_1,36,1.0,330.068525487,1_I,training,01,1_B,46.0,01011,kill,0.0,2300.0,6.2118485214
46,1_36_1,36,1.0,333.214411864,1_I,training,01,1_B,47.0,00111,ignore,1.0,2400.0,0.998304926101
47,1_36_1,36,1.0,336.534426955,1_I,training,01,1_B,48.0,10001,ignore,1.0,2500.0,1.15957628489
48,1_36_1,36,1.0,342.021587253,1_I,training,01,1_B,49.0,01101,kill,1.0,2600.0,3.38940679393
49,1_36_1,36,1.0,345.160596449,1_I,training,01,1_B,50.0,10111,ignore,1.0,2700.0,1.03357962331
50,1_36_1,36,1.0,348.381444996,1_I,training,01,1_B,51.0,11111,ignore,1.0,2800.0,1.10072696461
51,1_36_1,36,1.0,351.622102795,1_I,training,01,1_B,52.0,00100,ignore,1.0,2900.0,1.09634744212
52,1_36_1,36,1.0,363.700094668,1_I,training,01,1_B,53.0,11010,ignore,0.0,2800.0,9.92007084087
53,1_36_1,36,1.0,366.792222694,1_I,training,01,1_B,54.0,00101,ignore,1.0,2900.0,0.938991708137
54,1_36_1,36,1.0,369.699260063,1_I,training,01,1_B,55.0,10000,ignore,1.0,3000.0,0.765595377773
55,1_36_1,36,1.0,372.585296825,1_I,training,01,1_B,56.0,10101,ignore,1.0,3100.0,0.748023919057
56,1_36_1,36,1.0,375.796199487,1_I,training,01,1_B,57.0,00110,ignore,1.0,3200.0,1.09818743272
57,1_36_1,36,1.0,379.795706853,1_I,training,01,1_B,58.0,11100,kill,1.0,3300.0,1.87813408039
58,1_36_1,36,1.0,388.705833452,1_I,training,01,1_B,59.0,11000,kill,1.0,3400.0,6.81875599885
59,1_36_1,36,1.0,394.102230322,1_I,training,01,1_B,60.0,10110,ignore,1.0,3500.0,3.26759711677
60,1_36_1,36,1.0,411.452819143,1_I,training,01,1_B,61.0,01001,kill,1.0,3600.0,15.2137706178
61,1_36_1,36,1.0,415.003992394,1_I,training,01,1_B,62.0,00000,ignore,1.0,3700.0,1.4160423206
62,1_36_1,36,1.0,418.969636871,1_I,training,01,1_B,63.0,01110,ignore,0.0,3600.0,1.86534610461
63,1_36_1,36,1.0,423.541182619,1_I,training,01,1_B,64.0,10100,ignore,1.0,3700.0,2.45719332874
64,1_36_1,36,1.0,426.392422129,1_I,training,01,1_B,65.0,10110,ignore,1.0,3800.0,0.697860159072
65,1_36_1,36,1.0,430.950458602,1_I,training,01,1_B,66.0,11001,kill,1.0,3900.0,2.38648711227
66,1_36_1,36,1.0,434.41210658,1_I,training,01,1_B,67.0,10100,ignore,1.0,4000.0,1.33262571832
67,1_36_1,36,1.0,437.98889314,1_I,training,01,1_B,68.0,01110,ignore,0.0,3900.0,1.45628031243
68,1_36_1,36,1.0,441.552232826,1_I,training,01,1_B,69.0,11000,kill,1.0,4000.0,1.45348009468
69,1_36_1,36,1.0,444.708879987,1_I,training,01,1_B,70.0,10011,ignore,1.0,4100.0,1.02939674418
70,1_36_1,36,1.0,448.578825657,1_I,training,01,1_B,71.0,11100,kill,1.0,4200.0,1.75253809503
71,1_36_1,36,1.0,452.755154806,1_I,training,01,1_B,72.0,11010,kill,1.0,4300.0,2.07870455137
72,1_36_1,36,1.0,456.565224834,1_I,training,01,1_B,73.0,00100,ignore,1.0,4400.0,1.66111823151
73,1_36_1,36,1.0,460.691715362,1_I,training,01,1_B,74.0,11110,kill,1.0,4500.0,2.03911642682
74,1_36_1,36,1.0,463.720713893,1_I,training,01,1_B,75.0,11111,kill,0.0,4400.0,0.90754355096
75,1_36_1,36,1.0,466.895785182,1_I,training,01,1_B,76.0,10010,ignore,1.0,4500.0,1.05851556028
76,1_36_1,36,1.0,470.870439947,1_I,training,01,1_B,77.0,01001,kill,1.0,4600.0,1.87765376155
77,1_36_1,36,1.0,474.313259427,1_I,training,01,1_B,78.0,01011,kill,0.0,4500.0,1.30198055571
78,1_36_1,36,1.0,482.810837307,1_I,training,01,1_B,79.0,01010,ignore,0.0,4400.0,6.3903789264
79,1_36_1,36,1.0,485.62194392,1_I,training,01,1_B,80.0,00111,ignore,1.0,4500.0,0.683421035995
80,1_36_1,36,1.0,491.704440938,1_I,training,01,1_B,81.0,00000,ignore,1.0,4600.0,3.96057772914
81,1_36_1,36,1.0,494.532773345,1_I,training,01,1_B,82.0,00011,ignore,1.0,4700.0,0.694337410433
82,1_36_1,36,1.0,497.230078879,1_I,training,01,1_B,83.0,00110,ignore,1.0,4800.0,0.592999989326
83,1_36_1,36,1.0,499.992893334,1_I,training,01,1_B,84.0,10001,ignore,1.0,4900.0,0.617917452488
84,1_36_1,36,1.0,502.781191371,1_I,training,01,1_B,85.0,00010,ignore,1.0,5000.0,0.706760836526
85,1_36_1,36,1.0,506.697904496,1_I,training,01,1_B,86.0,01000,kill,1.0,5100.0,1.82817065851
86,1_36_1,36,1.0,510.203842797,1_I,training,01,1_B,87.0,11101,kill,1.0,5200.0,1.38509049289
87,1_36_1,36,1.0,516.593793542,1_I,training,01,1_B,88.0,01100,kill,1.0,5300.0,4.28062648355
88,1_36_1,36,1.0,519.916402765,1_I,training,01,1_B,89.0,00101,ignore,1.0,5400.0,1.18283521123
89,1_36_1,36,1.0,523.641102484,1_I,training,01,1_B,90.0,01101,kill,1.0,5500.0,1.63633090601
90,1_36_1,36,1.0,527.592629282,1_I,training,01,1_B,91.0,01111,ignore,1.0,5600.0,1.83893349514
91,1_36_1,36,1.0,531.238251689,1_I,training,01,1_B,92.0,11011,kill,0.0,5500.0,1.54043052989
92,1_36_1,36,1.0,534.412303634,1_I,training,01,1_B,93.0,00001,ignore,1.0,5600.0,1.06248824861
93,1_36_1,36,1.0,537.214914351,1_I,training,01,1_B,94.0,10111,ignore,1.0,5700.0,0.677486840495
94,1_36_1,36,1.0,540.015566025,1_I,training,01,1_B,95.0,10101,ignore,1.0,5800.0,0.684638664763
95,1_36_1,36,1.0,542.740537924,1_I,training,01,1_B,96.0,10000,ignore,1.0,5900.0,0.591988035545
96,1_36_1,36,1.0,567.622990358,1_I,training,01,1_B,97.0,01101,kill,1.0,6000.0,22.7728210972
97,1_36_1,36,1.0,572.5880564,1_I,training,01,1_B,98.0,11111,ignore,1.0,6100.0,2.85791881544
98,1_36_1,36,1.0,577.70945678,1_I,training,01,1_B,99.0,11001,kill,1.0,6200.0,2.99995196812
99,1_36_1,36,1.0,580.979320427,1_I,training,01,1_B,100.0,10001,ignore,1.0,6300.0,1.15380219567
100,1_36_1,36,1.0,583.598567172,1_I,training,01,1_B,101.0,10100,ignore,1.0,6400.0,0.507911713294
101,1_36_1,36,1.0,589.375838813,1_I,training,01,1_B,102.0,11100,kill,1.0,6500.0,3.65674117219
102,1_36_1,36,1.0,593.392184843,1_I,training,01,1_B,103.0,01110,ignore,0.0,6400.0,1.92062341279
103,1_36_1,36,1.0,596.50567392,1_I,training,01,1_B,104.0,00110,ignore,1.0,6500.0,1.00936909095
104,1_36_1,36,1.0,599.39318366,1_I,training,01,1_B,105.0,00010,ignore,1.0,6600.0,0.756499699082
105,1_36_1,36,1.0,602.455263432,1_I,training,01,1_B,106.0,10101,ignore,1.0,6700.0,0.916280016848
106,1_36_1,36,1.0,606.378939538,1_I,training,01,1_B,107.0,11000,kill,1.0,6800.0,1.82433139208
107,1_36_1,36,1.0,609.263270142,1_I,training,01,1_B,108.0,11101,kill,1.0,6900.0,0.778884198824
108,1_36_1,36,1.0,613.992729122,1_I,training,01,1_B,109.0,11010,ignore,0.0,6800.0,2.59961319965
109,1_36_1,36,1.0,619.443332641,1_I,training,01,1_B,110.0,01010,kill,1.0,6900.0,3.31899205298
110,1_36_1,36,1.0,623.668856702,1_I,training,01,1_B,111.0,11110,kill,1.0,7000.0,1.98965426076
111,1_36_1,36,1.0,626.982609995,1_I,training,01,1_B,112.0,10000,ignore,1.0,7100.0,1.11816582248
112,1_36_1,36,1.0,630.366834682,1_I,training,01,1_B,113.0,01000,kill,1.0,7200.0,1.26640945662
113,1_36_1,36,1.0,633.449772608,1_I,training,01,1_B,114.0,00011,ignore,1.0,7300.0,0.949986904128
114,1_36_1,36,1.0,636.215866368,1_I,training,01,1_B,115.0,00100,ignore,1.0,7400.0,0.623400066178
115,1_36_1,36,1.0,638.861639028,1_I,training,01,1_B,116.0,00101,ignore,1.0,7500.0,0.512556026933
116,1_36_1,36,1.0,641.792124577,1_I,training,01,1_B,117.0,00000,ignore,1.0,7600.0,0.795308639745
117,1_36_1,36,1.0,644.517509469,1_I,training,01,1_B,118.0,00111,ignore,1.0,7700.0,0.613685720408
118,1_36_1,36,1.0,648.386227247,1_I,training,01,1_B,119.0,10111,ignore,1.0,7800.0,1.74392232464
119,1_36_1,36,1.0,651.995419318,1_I,training,01,1_B,120.0,01100,kill,1.0,7900.0,1.48309688236
120,1_36_1,36,1.0,655.496363535,1_I,training,01,1_B,121.0,10110,ignore,1.0,8000.0,1.31521477641
121,1_36_1,36,1.0,658.235586946,1_I,training,01,1_B,122.0,10011,ignore,1.0,8100.0,0.616983088672
122,1_36_1,36,1.0,661.104977992,1_I,training,01,1_B,123.0,00001,ignore,1.0,8200.0,0.756558815247
123,1_36_1,36,1.0,664.633583236,1_I,training,01,1_B,124.0,01001,kill,1.0,8300.0,1.42302870172
124,1_36_1,36,1.0,669.405496243,1_I,training,01,1_B,125.0,01011,ignore,1.0,8400.0,2.65668287709
125,1_36_1,36,1.0,672.258374995,1_I,training,01,1_B,126.0,10010,ignore,1.0,8500.0,0.771267655822
126,1_36_1,36,1.0,675.700542966,1_I,training,01,1_B,127.0,01111,ignore,1.0,8600.0,1.34161671214
127,1_36_1,36,1.0,678.730852316,1_I,training,01,1_B,128.0,11011,ignore,1.0,8700.0,0.903439082846
128,1_36_1,36,1.0,681.471609462,1_I,training,01,1_B,129.0,10010,ignore,1.0,8800.0,0.624861959651
129,1_36_1,36,1.0,684.953560969,1_I,training,01,1_B,130.0,11001,kill,1.0,8900.0,1.35146694298
130,1_36_1,36,1.0,688.083538119,1_I,training,01,1_B,131.0,10011,ignore,1.0,9000.0,1.02761504868
131,1_36_1,36,1.0,690.950198327,1_I,training,01,1_B,132.0,00101,ignore,1.0,9100.0,0.720115342205
132,1_36_1,36,1.0,694.260051185,1_I,training,01,1_B,133.0,11011,ignore,1.0,9200.0,1.19648283455
133,1_36_1,36,1.0,697.127279564,1_I,training,01,1_B,134.0,01111,ignore,1.0,9300.0,0.76433012765
134,1_36_1,36,1.0,700.325193092,1_I,training,01,1_B,135.0,01110,ignore,0.0,9200.0,1.05829141149
135,1_36_1,36,1.0,703.312508159,1_I,training,01,1_B,136.0,00110,ignore,1.0,9300.0,0.878803242522
136,1_36_1,36,1.0,706.938479779,1_I,training,01,1_B,137.0,00001,ignore,1.0,9400.0,1.4593789847
137,1_36_1,36,1.0,709.799654909,1_I,training,01,1_B,138.0,11010,ignore,0.0,9300.0,0.754087841694
138,1_36_1,36,1.0,713.690097878,1_I,training,01,1_B,139.0,01001,kill,1.0,9400.0,1.78206333476
139,1_36_1,36,1.0,716.998209683,1_I,training,01,1_B,140.0,00111,ignore,1.0,9500.0,1.20935496876
140,1_36_1,36,1.0,720.427472267,1_I,training,01,1_B,141.0,01000,kill,1.0,9600.0,1.31352668151
141,1_36_1,36,1.0,723.552480375,1_I,training,01,1_B,142.0,00011,ignore,1.0,9700.0,1.01861543375
142,1_36_1,36,1.0,727.407012327,1_I,training,01,1_B,143.0,01101,kill,1.0,9800.0,1.71425381032
143,1_36_1,36,1.0,730.412808995,1_I,training,01,1_B,144.0,01100,kill,1.0,9900.0,0.878749052704
144,1_36_1,36,1.0,735.968269809,1_I,training,01,1_B,145.0,01010,ignore,0.0,9800.0,3.45645766092
145,1_36_1,36,1.0,739.20625876,1_I,training,01,1_B,146.0,00100,ignore,1.0,9900.0,1.08500945448
146,1_36_1,36,1.0,742.846607512,1_I,training,01,1_B,147.0,11100,kill,1.0,10000.0,1.5308110163
147,1_36_1,36,1.0,746.310728106,1_I,training,01,1_B,148.0,10100,ignore,1.0,10100.0,1.31212061996
148,1_36_1,36,1.0,749.62240207,1_I,training,01,1_B,149.0,11101,kill,1.0,10200.0,1.22268073741
149,1_36_1,36,1.0,752.765874537,1_I,training,01,1_B,150.0,00010,ignore,1.0,10300.0,1.0377206285
150,1_36_1,36,1.0,756.118133801,1_I,training,01,1_B,151.0,01011,kill,0.0,10200.0,1.21867397518
151,1_36_1,36,1.0,759.639923855,1_I,training,01,1_B,152.0,11000,kill,1.0,10300.0,1.41313126005
152,1_36_1,36,1.0,763.079761663,1_I,training,01,1_B,153.0,10001,ignore,1.0,10400.0,1.33772982435
153,1_36_1,36,1.0,768.307765319,1_I,training,01,1_B,154.0,11110,ignore,0.0,10300.0,3.12861788871
154,1_36_1,36,1.0,771.460405307,1_I,training,01,1_B,155.0,10000,ignore,1.0,10400.0,1.01036872886
155,1_36_1,36,1.0,774.43005203,1_I,training,01,1_B,156.0,10110,ignore,1.0,10500.0,0.852329464235
156,1_36_1,36,1.0,777.27544643,1_I,training,01,1_B,157.0,10111,ignore,1.0,10600.0,0.732543284116
157,1_36_1,36,1.0,782.366050983,1_I,training,01,1_B,158.0,11111,kill,0.0,10500.0,2.88819162833
158,1_36_1,36,1.0,786.694198241,1_I,training,01,1_B,159.0,00000,ignore,1.0,10600.0,2.17891917589
159,1_36_1,36,1.0,789.798294827,1_I,training,01,1_B,160.0,10101,ignore,1.0,10700.0,0.942792384853
160,1_36_1,36,1.0,792.8246865,1_I,training,01,1_B,161.0,00101,ignore,1.0,10800.0,0.886467817407
161,1_36_1,36,1.0,796.051791097,1_I,training,01,1_B,162.0,10000,ignore,1.0,10900.0,1.11197340429
162,1_36_1,36,1.0,799.98725554,1_I,training,01,1_B,163.0,11001,kill,1.0,11000.0,1.81924370721
163,1_36_1,36,1.0,803.513888604,1_I,training,01,1_B,164.0,11101,kill,1.0,11100.0,1.42608385792
164,1_36_1,36,1.0,807.153709416,1_I,training,01,1_B,165.0,00010,ignore,1.0,11200.0,1.49948683885
165,1_36_1,36,1.0,809.91912293,1_I,training,01,1_B,166.0,10011,ignore,1.0,11300.0,0.63861426785
166,1_36_1,36,1.0,818.512478026,1_I,training,01,1_B,167.0,01111,kill,0.0,11200.0,6.49344426372
167,1_36_1,36,1.0,825.043835867,1_I,training,01,1_B,168.0,10111,ignore,1.0,11300.0,4.3898054175
168,1_36_1,36,1.0,828.190816714,1_I,training,01,1_B,169.0,01001,kill,1.0,11400.0,1.00258592165
169,1_36_1,36,1.0,834.834085149,1_I,training,01,1_B,170.0,01110,ignore,0.0,11300.0,4.5285453072
170,1_36_1,36,1.0,839.082664103,1_I,training,01,1_B,171.0,01010,ignore,0.0,11200.0,2.12399081729
171,1_36_1,36,1.0,841.907517688,1_I,training,01,1_B,172.0,11110,ignore,0.0,11100.0,0.739297716392
172,1_36_1,36,1.0,959.012143856,1_I,test,01,2,0.0,10101,ignore,0.0,0.0,3.01077351038
173,1_36_1,36,1.0,962.697190997,1_I,test,01,2,1.0,10110,kill,1.0,100.0,1.55520423403
174,1_36_1,36,1.0,965.518342843,1_I,test,01,2,2.0,10001,kill,1.0,200.0,0.713641711708
175,1_36_1,36,1.0,969.746205276,1_I,test,01,2,3.0,01101,ignore,1.0,300.0,2.09676577108
176,1_36_1,36,1.0,973.947639089,1_I,test,01,2,4.0,10010,kill,1.0,400.0,2.09909388057
177,1_36_1,36,1.0,976.863720821,1_I,test,01,2,5.0,00110,kill,0.0,300.0,0.760292986278
178,1_36_1,36,1.0,981.845474863,1_I,test,01,2,6.0,01000,ignore,1.0,400.0,2.87574972844
179,1_36_1,36,1.0,985.01691256,1_I,test,01,2,7.0,10100,ignore,0.0,300.0,0.969622502239
180,1_36_1,36,1.0,989.951867127,1_I,test,01,2,8.0,00111,kill,0.0,200.0,2.78556719907
181,1_36_1,36,1.0,993.796394489,1_I,test,01,2,9.0,11000,ignore,1.0,300.0,1.77006685874
182,1_36_1,36,1.0,996.983284905,1_I,test,01,2,10.0,00100,ignore,1.0,400.0,1.04106602865
183,1_36_1,36,1.0,1000.46490799,1_I,test,01,2,11.0,01100,ignore,1.0,500.0,1.37443808854
184,1_36_1,36,1.0,1007.74416125,1_I,test,01,2,12.0,11111,ignore,0.0,400.0,5.16875160619
185,1_36_1,36,1.0,1014.92158282,1_I,test,01,2,13.0,11010,kill,0.0,300.0,5.09371964652
186,1_36_1,36,1.0,1019.81143586,1_I,test,01,2,14.0,01011,ignore,1.0,400.0,2.75858067016
187,1_36_1,36,1.0,1023.98329968,1_I,test,01,2,15.0,00011,kill,0.0,300.0,2.04540983512
188,1_36_1,36,1.0,1027.21020476,1_I,test,01,2,16.0,00000,ignore,1.0,400.0,1.10098847153
189,1_36_1,36,1.0,1032.81953765,1_I,test,01,2,17.0,11011,kill,1.0,500.0,3.52301999851
190,1_36_1,36,1.0,1066.50758904,1_I,test,01,2,18.0,11100,,,400.0,
191,1_36_1,36,1.0,1070.87510273,1_I,test,01,2,19.0,00001,kill,0.0,300.0,2.23940116968
192,1_36_1,36,1.0,1074.23181747,1_I,test,01,2,20.0,01100,kill,0.0,200.0,1.25218298752
193,1_36_1,36,1.0,1078.10020395,1_I,test,01,2,21.0,00011,ignore,1.0,300.0,1.75193092276
194,1_36_1,36,1.0,1083.33483354,1_I,test,01,2,22.0,01001,kill,0.0,200.0,3.13707026859
195,1_36_1,36,1.0,1086.614531,1_I,test,01,2,23.0,11010,ignore,1.0,300.0,1.16860012102
196,1_36_1,36,1.0,1089.56356917,1_I,test,01,2,24.0,11011,ignore,0.0,200.0,0.839568583372
197,1_36_1,36,1.0,1092.48726088,1_I,test,01,2,25.0,00001,ignore,1.0,300.0,0.792717791749
198,1_36_1,36,1.0,1095.36366458,1_I,test,01,2,26.0,10100,ignore,0.0,200.0,0.757867991963
199,1_36_1,36,1.0,1098.46197599,1_I,test,01,2,27.0,00101,ignore,1.0,300.0,0.984667565998
200,1_36_1,36,1.0,1102.34048858,1_I,test,01,2,28.0,11000,ignore,1.0,400.0,1.79258765408
201,1_36_1,36,1.0,1105.91459808,1_I,test,01,2,29.0,10011,ignore,0.0,300.0,1.47426640535
202,1_36_1,36,1.0,1109.26786027,1_I,test,01,2,30.0,00110,kill,0.0,200.0,1.23648313013
203,1_36_1,36,1.0,1112.895084,1_I,test,01,2,31.0,01000,ignore,1.0,300.0,1.51160975778
204,1_36_1,36,1.0,1115.95279451,1_I,test,01,2,32.0,00000,ignore,1.0,400.0,0.938162850252
205,1_36_1,36,1.0,1119.39127881,1_I,test,01,2,33.0,00010,ignore,1.0,500.0,1.32538029346
206,1_36_1,36,1.0,1125.61318159,1_I,test,01,2,34.0,11110,ignore,1.0,600.0,4.09398361661
207,1_36_1,36,1.0,1128.82276563,1_I,test,01,2,35.0,10110,ignore,0.0,500.0,1.12442105159
208,1_36_1,36,1.0,1132.2138441,1_I,test,01,2,36.0,01111,ignore,1.0,600.0,1.28234167337
209,1_36_1,36,1.0,1136.07083266,1_I,test,01,2,37.0,01010,kill,0.0,500.0,1.73106496949
210,1_36_1,36,1.0,1139.97183813,1_I,test,01,2,38.0,00100,ignore,1.0,600.0,1.7527236541
211,1_36_1,36,1.0,1143.77764153,1_I,test,01,2,39.0,01110,ignore,1.0,700.0,1.35819879617
212,1_36_1,36,1.0,1147.3250568,1_I,test,01,2,40.0,11111,ignore,0.0,600.0,1.39147503861
213,1_36_1,36,1.0,1151.88819532,1_I,test,01,2,41.0,10001,ignore,0.0,500.0,2.41671846173
214,1_36_1,36,1.0,1155.49487414,1_I,test,01,2,42.0,10111,ignore,0.0,400.0,1.48515773753
215,1_36_1,36,1.0,1159.03678709,1_I,test,01,2,43.0,11100,kill,0.0,300.0,1.45962776522
216,1_36_1,36,1.0,1164.89443947,1_I,test,01,2,44.0,00111,ignore,1.0,400.0,3.73088885258
217,1_36_1,36,1.0,1168.50498136,1_I,test,01,2,45.0,11001,ignore,0.0,300.0,1.51013226421
218,1_36_1,36,1.0,1174.68185774,1_I,test,01,2,46.0,10010,ignore,0.0,200.0,4.02674678002
219,1_36_1,36,1.0,1180.67567271,1_I,test,01,2,47.0,01011,kill,0.0,100.0,3.8683684185
220,1_36_1,36,1.0,1184.35071034,1_I,test,01,2,48.0,10101,ignore,0.0,0.0,1.53488428421
221,1_36_1,36,1.0,1191.98826175,1_I,test,01,2,49.0,10000,ignore,0.0,0.0,5.53338954843
222,1_36_1,36,1.0,1196.0153973,1_I,test,01,2,50.0,11101,ignore,0.0,0.0,1.92461088017
223,1_36_1,36,1.0,1200.92208284,1_I,test,01,2,51.0,01101,kill,0.0,0.0,2.81085454878
224,1_36_1,36,1.0,1204.83621415,1_I,test,01,2,52.0,00010,ignore,1.0,100.0,1.79565061033
225,1_36_1,36,1.0,1209.53414246,1_I,test,01,2,53.0,00111,ignore,1.0,200.0,2.59197613021
226,1_36_1,36,1.0,1213.96505988,1_I,test,01,2,54.0,11100,kill,0.0,100.0,2.31640613133
227,1_36_1,36,1.0,1217.29723033,1_I,test,01,2,55.0,01110,ignore,1.0,200.0,1.21606834814
228,1_36_1,36,1.0,1220.33448008,1_I,test,01,2,56.0,01011,ignore,1.0,300.0,0.91406110805
229,1_36_1,36,1.0,1223.0876471,1_I,test,01,2,57.0,01111,ignore,1.0,400.0,0.614350777254
230,1_36_1,36,1.0,1225.87109105,1_I,test,01,2,58.0,10110,ignore,0.0,300.0,0.676738446279
231,1_36_1,36,1.0,1230.29252936,1_I,test,01,2,59.0,10100,ignore,0.0,200.0,2.27769735972
232,1_36_1,36,1.0,1234.01062531,1_I,test,01,2,60.0,11111,ignore,0.0,100.0,1.62455529455
233,1_36_1,36,1.0,1237.49556629,1_I,test,01,2,61.0,11101,kill,1.0,200.0,1.35107899315
234,1_36_1,36,1.0,1240.81054173,1_I,test,01,2,62.0,01000,kill,0.0,100.0,1.20778223247
235,1_36_1,36,1.0,1244.01201454,1_I,test,01,2,63.0,01001,ignore,1.0,200.0,1.09118339887
236,1_36_1,36,1.0,1248.77475838,1_I,test,01,2,64.0,00101,kill,0.0,100.0,2.62485333854
237,1_36_1,36,1.0,1255.79259874,1_I,test,01,2,65.0,00100,ignore,1.0,200.0,4.87174953467
238,1_36_1,36,1.0,1260.0737158,1_I,test,01,2,66.0,11000,ignore,1.0,300.0,2.16594933581
239,1_36_1,36,1.0,1263.15072446,1_I,test,01,2,67.0,10101,ignore,0.0,200.0,0.953559326765
240,1_36_1,36,1.0,1272.08691143,1_I,test,01,2,68.0,00110,ignore,1.0,300.0,6.84156826973
241,1_36_1,36,1.0,1275.57515922,1_I,test,01,2,69.0,11110,ignore,1.0,400.0,1.37657612315
242,1_36_1,36,1.0,1280.67937445,1_I,test,01,2,70.0,11001,kill,1.0,500.0,2.95653073507
243,1_36_1,36,1.0,1286.20811148,1_I,test,01,2,71.0,10011,ignore,0.0,400.0,3.42061109692
244,1_36_1,36,1.0,1289.86353198,1_I,test,01,2,72.0,10001,ignore,0.0,300.0,1.526121955
245,1_36_1,36,1.0,1294.50657914,1_I,test,01,2,73.0,11011,kill,1.0,400.0,2.53222118313
246,1_36_1,36,1.0,1310.34251741,1_I,test,01,2,74.0,00000,ignore,1.0,500.0,13.7158524099
247,1_36_1,36,1.0,1314.06993442,1_I,test,01,2,75.0,01100,kill,0.0,400.0,1.60459989441
248,1_36_1,36,1.0,1318.14060698,1_I,test,01,2,76.0,10010,ignore,0.0,300.0,1.94577446691
249,1_36_1,36,1.0,1321.77244095,1_I,test,01,2,77.0,11010,ignore,1.0,400.0,1.5315791159
250,1_36_1,36,1.0,1326.92200279,1_I,test,01,2,78.0,10111,kill,1.0,500.0,3.01484226247
251,1_36_1,36,1.0,1331.37664468,1_I,test,01,2,79.0,00001,ignore,1.0,600.0,2.34287087798
252,1_36_1,36,1.0,1336.89970614,1_I,test,01,2,80.0,01010,ignore,1.0,700.0,3.42091817256
253,1_36_1,36,1.0,1341.0985409,1_I,test,01,2,81.0,10000,kill,1.0,800.0,2.09669803381
254,1_36_1,36,1.0,1345.17189256,1_I,test,01,2,82.0,01101,kill,0.0,700.0,1.93947284803
255,1_36_1,36,1.0,1350.66785008,1_I,test,01,2,83.0,00011,ignore,1.0,800.0,3.37098307718
256,1_36_1,36,1.0,1361.83670391,1_I,test,01,2,84.0,10000,kill,1.0,900.0,9.04622801926
257,1_36_1,36,1.0,1368.51813676,1_I,test,01,2,85.0,01011,ignore,1.0,1000.0,4.55189249726
258,1_36_1,36,1.0,1371.81363506,1_I,test,01,2,86.0,01010,ignore,1.0,1100.0,1.21270406366
259,1_36_1,36,1.0,1375.19476067,1_I,test,01,2,87.0,11011,ignore,0.0,1000.0,1.25945673887
260,1_36_1,36,1.0,1378.85706574,1_I,test,01,3,0.0,11111,ignore,1.0,1100.0,1.56693263467
261,1_36_1,36,1.0,1383.36623162,1_I,test,01,3,1.0,11010,ignore,0.0,1000.0,2.40115818418
262,1_36_1,36,1.0,1388.48844074,1_I,test,01,3,2.0,00110,kill,0.0,900.0,3.01309997775
263,1_36_1,36,1.0,1393.22537052,1_I,test,01,3,3.0,00111,ignore,1.0,1000.0,2.62952269445
264,1_36_1,36,1.0,1396.7459409,1_I,test,01,3,4.0,10111,ignore,1.0,1100.0,1.39643915428
265,1_36_1,36,1.0,1400.42307058,1_I,test,01,3,5.0,01101,kill,0.0,1000.0,1.57199404569
266,1_36_1,36,1.0,1404.748113,1_I,test,01,3,6.0,00011,kill,1.0,1100.0,2.19282009556
267,1_36_1,36,1.0,1408.51859039,1_I,test,01,3,7.0,11100,ignore,1.0,1200.0,1.63097186153
268,1_36_1,36,1.0,1412.6215765,1_I,test,01,3,8.0,10010,kill,1.0,1300.0,1.90191478898
269,1_36_1,36,1.0,1418.61068516,1_I,test,01,3,9.0,00100,ignore,1.0,1400.0,3.79410907425
270,1_36_1,36,1.0,1422.28185109,1_I,test,01,3,10.0,10011,kill,1.0,1500.0,1.473878045
271,1_36_1,36,1.0,1428.71672396,1_I,test,01,3,11.0,01001,ignore,0.0,1400.0,4.31977328951
272,1_36_1,36,1.0,1432.60641402,1_I,test,01,3,12.0,01111,ignore,1.0,1500.0,1.75626036072
273,1_36_1,36,1.0,1437.51325598,1_I,test,01,3,13.0,00000,ignore,0.0,1400.0,2.7713226667
274,1_36_1,36,1.0,1441.44444107,1_I,test,01,3,14.0,01100,kill,0.0,1300.0,1.83655981694
275,1_36_1,36,1.0,1445.40560585,1_I,test,01,3,15.0,11000,kill,0.0,1200.0,1.86045957891
276,1_36_1,36,1.0,1448.91182701,1_I,test,01,3,16.0,01000,ignore,0.0,1100.0,1.41438665748
277,1_36_1,36,1.0,1452.11318939,1_I,test,01,3,17.0,01110,ignore,1.0,1200.0,1.05961947254
278,1_36_1,36,1.0,1460.87877984,1_I,test,01,3,18.0,10001,kill,0.0,1100.0,6.63743153404
279,1_36_1,36,1.0,1464.91150926,1_I,test,01,3,19.0,00010,ignore,0.0,1000.0,1.92374343256
280,1_36_1,36,1.0,1468.37816528,1_I,test,01,3,20.0,10100,ignore,1.0,1100.0,1.34350760833
281,1_36_1,36,1.0,1471.29343252,1_I,test,01,3,21.0,10101,ignore,1.0,1200.0,0.810659137019
282,1_36_1,36,1.0,1475.1446199,1_I,test,01,3,22.0,11001,ignore,1.0,1300.0,1.73451957032
283,1_36_1,36,1.0,1480.24122392,1_I,test,01,3,23.0,11110,ignore,1.0,1400.0,3.0000866216
284,1_36_1,36,1.0,1484.48333745,1_I,test,01,3,24.0,00101,ignore,1.0,1500.0,2.13059089069
285,1_36_1,36,1.0,1487.86337598,1_I,test,01,3,25.0,00001,ignore,0.0,1400.0,1.18429340994
286,1_36_1,36,1.0,1490.92857084,1_I,test,01,3,26.0,11101,ignore,1.0,1500.0,0.959065340603
287,1_36_1,36,1.0,1494.37790213,1_I,test,01,3,27.0,10110,ignore,1.0,1600.0,1.3491901496
288,1_36_1,36,1.0,1498.1907186,1_I,test,01,3,28.0,11101,ignore,1.0,1700.0,1.69408821938
289,1_36_1,36,1.0,1501.21000894,1_I,test,01,3,29.0,01100,ignore,1.0,1800.0,0.904848428619
290,1_36_1,36,1.0,1504.17451051,1_I,test,01,3,30.0,11100,ignore,1.0,1900.0,0.858804736847
291,1_36_1,36,1.0,1507.53350983,1_I,test,01,3,31.0,00111,ignore,1.0,2000.0,1.24206057601
292,1_36_1,36,1.0,1511.03327173,1_I,test,01,3,32.0,11010,kill,1.0,2100.0,1.42024531566
293,1_36_1,36,1.0,1514.37951387,1_I,test,01,3,33.0,10110,ignore,1.0,2200.0,1.23127844452
294,1_36_1,36,1.0,1517.47033518,1_I,test,01,3,34.0,10100,ignore,1.0,2300.0,0.982714679939
295,1_36_1,36,1.0,1520.6847454,1_I,test,01,3,35.0,00011,kill,1.0,2400.0,1.0635740976
296,1_36_1,36,1.0,1524.29339311,1_I,test,01,4,0.0,00100,ignore,0.0,2300.0,1.47686587446
297,1_36_1,36,1.0,1527.68435006,1_I,test,01,4,1.0,11001,ignore,1.0,2400.0,1.30040946154
298,1_36_1,36,1.0,1530.87495084,1_I,test,01,4,2.0,01101,kill,0.0,2300.0,1.05865062429
299,1_36_1,36,1.0,1534.43405756,1_I,test,01,4,3.0,10000,ignore,1.0,2400.0,1.4857152358
300,1_36_1,36,1.0,1537.67005421,1_I,test,01,4,4.0,00000,ignore,1.0,2500.0,1.09325041197
301,1_36_1,36,1.0,1541.84062816,1_I,test,01,4,5.0,01111,kill,0.0,2400.0,2.05601667076
302,1_36_1,36,1.0,1545.06303507,1_I,test,01,4,6.0,00001,ignore,0.0,2300.0,1.13788557902
303,1_36_1,36,1.0,1548.30132658,1_I,test,01,4,7.0,10111,ignore,0.0,2200.0,1.1059739347
304,1_36_1,36,1.0,1552.09309154,1_I,test,01,4,8.0,01000,ignore,1.0,2300.0,1.73060476657
305,1_36_1,36,1.0,1555.56779516,1_I,test,01,4,9.0,10101,kill,1.0,2400.0,1.35283769904
306,1_36_1,36,1.0,1558.65161818,1_I,test,01,4,10.0,11000,ignore,1.0,2500.0,1.00372226569
307,1_36_1,36,1.0,1561.51275103,1_I,test,01,4,11.0,01001,ignore,1.0,2600.0,0.794812720814
308,1_36_1,36,1.0,1566.88853073,1_I,test,01,4,12.0,10011,ignore,0.0,2500.0,3.30443428705
309,1_36_1,36,1.0,1570.82170113,1_I,test,01,4,13.0,11011,kill,0.0,2400.0,1.83338765999
310,1_36_1,36,1.0,1575.38509008,1_I,test,01,4,14.0,10001,kill,1.0,2500.0,2.48368393871
311,1_36_1,36,1.0,1583.84305192,1_I,test,01,4,15.0,01010,ignore,1.0,2600.0,6.34760632904
312,1_36_1,36,1.0,1587.53269124,1_I,test,01,4,16.0,11111,kill,0.0,2500.0,1.61640342184
313,1_36_1,36,1.0,1591.66579621,1_I,test,01,4,17.0,00101,kill,1.0,2600.0,1.96426304723
314,1_36_1,36,1.0,1595.68783012,1_I,test,01,4,18.0,11110,kill,0.0,2500.0,1.91374541131
315,1_36_1,36,1.0,1599.44417217,1_I,test,01,4,19.0,01011,ignore,1.0,2600.0,1.67378756442
316,1_36_1,36,1.0,1602.44478099,1_I,test,01,4,20.0,00110,ignore,0.0,2500.0,0.891603123632
317,1_36_1,36,1.0,1606.31316131,1_I,test,01,4,21.0,00010,kill,0.0,2400.0,1.79815935255
318,1_36_1,36,1.0,1610.45101035,1_I,test,01,4,22.0,01110,ignore,1.0,2500.0,1.99547432922
319,1_36_1,36,1.0,1614.16511268,1_I,test,01,4,23.0,10010,ignore,1.0,2600.0,1.62094387167
320,1_36_1,36,1.0,1619.14325366,1_I,test,01,4,24.0,01001,kill,0.0,2500.0,2.9054543693
321,1_36_1,36,1.0,1626.10039772,1_I,test,01,4,25.0,11010,kill,0.0,2400.0,4.84535211476
322,1_36_1,36,1.0,1630.90937944,1_I,test,01,4,26.0,10101,ignore,0.0,2300.0,2.7101591949
323,1_36_1,36,1.0,1634.81186732,1_I,test,01,4,27.0,01010,ignore,1.0,2400.0,1.83933540295
324,1_36_1,36,1.0,1638.23033382,1_I,test,01,4,28.0,11110,kill,0.0,2300.0,1.31697389282
325,1_36_1,36,1.0,1642.18023369,1_I,test,01,4,29.0,11001,ignore,1.0,2400.0,1.8833046921
326,1_36_1,36,1.0,1645.55401863,1_I,test,01,4,30.0,11011,ignore,1.0,2500.0,1.27997333204
327,1_36_1,36,1.0,1650.52664538,1_I,test,01,4,31.0,11100,kill,0.0,2400.0,2.87264900352
328,1_36_1,36,1.0,1654.2377217,1_I,test,01,4,32.0,00110,ignore,0.0,2300.0,1.6137452471
329,1_36_1,36,1.0,1657.11614109,1_I,test,01,4,33.0,01011,ignore,1.0,2400.0,0.782725107374
330,1_36_1,36,1.0,1661.63045665,1_I,test,01,4,34.0,01111,kill,0.0,2300.0,2.44503099904
331,1_36_1,36,1.0,1665.51208761,1_I,test,01,4,35.0,10001,ignore,0.0,2200.0,1.73948984393
332,1_36_1,36,1.0,1671.61451581,1_I,test,01,4,36.0,10010,ignore,1.0,2300.0,3.98867186506
333,1_36_1,36,1.0,1674.67583939,1_I,test,01,4,37.0,10100,ignore,0.0,2200.0,0.956488040061
334,1_36_1,36,1.0,1678.09671445,1_I,test,01,4,38.0,01101,ignore,1.0,2300.0,1.31675425985
335,1_36_1,36,1.0,1681.82247211,1_I,test,01,4,39.0,00111,ignore,0.0,2200.0,1.64675875104
336,1_36_1,36,1.0,1686.10628881,1_I,test,01,4,40.0,11111,ignore,1.0,2300.0,2.15995889785
337,1_36_1,36,1.0,1695.56450436,1_I,test,01,4,41.0,00011,kill,1.0,2400.0,7.32638116296
338,1_36_1,36,1.0,1708.21843299,1_I,test,01,4,42.0,00101,kill,1.0,2500.0,10.5399768954
339,1_36_1,36,1.0,1717.26902412,1_I,test,01,4,43.0,01000,ignore,1.0,2600.0,6.94965109147
340,1_36_1,36,1.0,1722.30346421,1_I,test,01,4,44.0,10011,kill,1.0,2700.0,2.95229736087
341,1_36_1,36,1.0,1726.98500954,1_I,test,01,4,45.0,00010,kill,0.0,2600.0,2.59510477109
342,1_36_1,36,1.0,1734.44172214,1_I,test,01,4,46.0,10111,ignore,0.0,2500.0,5.3447408372
343,1_36_1,36,1.0,1737.4221904,1_I,test,01,4,47.0,10110,ignore,0.0,2400.0,0.806017286552
344,1_36_1,36,1.0,1741.54936898,1_I,test,01,4,48.0,11101,ignore,1.0,2500.0,1.99279768068
345,1_36_1,36,1.0,1745.84927882,1_I,test,01,4,49.0,11000,ignore,1.0,2600.0,2.25445321243
346,1_36_1,36,1.0,1749.65512287,1_I,test,01,4,50.0,00000,ignore,1.0,2700.0,1.70150852956
347,1_36_1,36,1.0,1753.85115248,1_I,test,01,4,51.0,01110,kill,0.0,2600.0,2.12061462747
348,1_36_1,36,1.0,1758.01365214,1_I,test,01,4,52.0,00100,ignore,0.0,2500.0,2.10284447276
349,1_36_1,36,1.0,1761.75293261,1_I,test,01,4,53.0,01100,ignore,1.0,2600.0,1.63853503577
350,1_36_1,36,1.0,1764.75337845,1_I,test,01,4,54.0,00001,ignore,0.0,2500.0,0.894629132282
351,1_36_1,36,1.0,1767.78651552,1_I,test,01,4,55.0,10000,ignore,1.0,2600.0,0.950257853213
352,1_36_1,36,1.0,1770.64791932,1_I,test,01,4,56.0,01001,ignore,1.0,2700.0,0.741595446741
353,1_36_1,36,1.0,1775.27551499,1_I,test,01,4,57.0,00010,kill,0.0,2600.0,2.55599983907
354,1_36_1,36,1.0,1779.59056145,1_I,test,01,4,58.0,00011,ignore,0.0,2500.0,2.15641562276
355,1_36_1,36,1.0,1786.33462582,1_I,test,01,4,59.0,00000,ignore,1.0,2600.0,4.62721839564
356,1_36_1,36,1.0,1790.13038275,1_I,test,01,4,60.0,11100,ignore,1.0,2700.0,1.6983404779
357,1_36_1,36,1.0,1793.16564267,1_I,test,01,4,61.0,10100,ignore,0.0,2600.0,0.909053886847
358,1_36_1,36,1.0,1797.57931624,1_I,test,01,4,62.0,10110,ignore,0.0,2500.0,2.35469164763
359,1_36_1,36,1.0,1801.15701869,1_I,test,01,4,63.0,00101,ignore,0.0,2400.0,1.43117195332
360,1_36_1,36,1.0,1805.49585407,1_I,test,01,4,64.0,00110,kill,1.0,2500.0,2.19506445715
361,1_36_1,36,1.0,1810.45633327,1_I,test,01,4,65.0,11001,ignore,1.0,2600.0,2.90875748497
362,1_36_1,36,1.0,1813.74276463,1_I,test,01,4,66.0,10001,ignore,0.0,2500.0,1.17312250758
363,1_36_1,36,1.0,1816.82535402,1_I,test,01,4,67.0,11000,ignore,1.0,2600.0,1.03569138407
364,1_36_1,36,1.0,1820.54494717,1_I,test,01,4,68.0,11101,kill,0.0,2500.0,1.62052677429
365,1_36_1,36,1.0,1823.95206254,1_I,test,01,4,69.0,01110,ignore,1.0,2600.0,1.31554689431
366,1_36_1,36,1.0,1832.94337862,1_I,test,01,4,70.0,00111,ignore,0.0,2500.0,6.90897301265
367,1_36_1,36,1.0,1841.98005568,1_I,test,01,4,71.0,10010,ignore,1.0,2600.0,6.94958787002
368,1_36_1,36,1.0,1848.03403244,1_I,test,01,4,72.0,10011,ignore,0.0,2500.0,3.94452317477
369,1_36_1,36,1.0,1851.35535178,1_I,test,01,4,73.0,00001,ignore,0.0,2400.0,1.2084115733
370,1_36_1,36,1.0,1854.52612852,1_I,test,01,4,74.0,01011,ignore,1.0,2500.0,1.06796059908
371,1_36_1,36,1.0,1861.03953886,1_I,test,01,4,75.0,00100,ignore,0.0,2400.0,4.42796284878
372,1_36_1,36,1.0,1864.18010068,1_I,test,01,4,76.0,10000,ignore,1.0,2500.0,1.01594863791
373,1_36_1,36,1.0,1869.87068709,1_I,test,01,4,77.0,11010,kill,0.0,2400.0,3.58678950787
374,1_36_1,36,1.0,1873.40589856,1_I,test,01,4,78.0,01100,ignore,1.0,2500.0,1.45465215474
375,1_36_1,36,1.0,1887.53909631,1_I,test,01,4,79.0,11011,ignore,1.0,2600.0,12.0336822555
376,1_36_1,36,1.0,1891.83815677,1_I,test,01,4,80.0,11111,ignore,1.0,2700.0,2.23014784788
377,1_36_1,36,1.0,1896.5456151,1_I,test,01,4,81.0,01000,ignore,1.0,2800.0,2.59190059289
378,1_36_1,36,1.0,1899.68928832,1_I,test,01,4,82.0,01111,ignore,1.0,2900.0,1.0339314466
379,1_36_1,36,1.0,1903.63622294,1_I,test,01,4,83.0,01101,ignore,1.0,3000.0,1.86092060289
380,1_36_1,36,1.0,1906.81192849,1_I,test,01,4,84.0,11110,ignore,1.0,3100.0,1.10724082694
381,1_36_1,36,1.0,1909.57320839,1_I,test,01,4,85.0,01010,ignore,1.0,3200.0,0.727146881499
382,1_36_1,36,1.0,1914.6552296,1_I,test,01,4,86.0,10111,kill,1.0,3300.0,2.98887877163
383,1_36_1,36,1.0,1917.65085788,1_I,test,01,4,87.0,10101,kill,1.0,3400.0,0.88345207198
384,1_36_1,36,1.0,1921.68781903,1_I,test,01,5,0.0,01100,ignore,1.0,3500.0,1.96040079117
385,1_36_1,36,1.0,1924.59156478,1_I,test,01,5,1.0,01111,ignore,1.0,3600.0,0.803533997131
386,1_36_1,36,1.0,1927.49653103,1_I,test,01,5,2.0,01010,ignore,1.0,3700.0,0.850162282081
387,1_36_1,36,1.0,1931.03276226,1_I,test,01,5,3.0,10111,kill,1.0,3800.0,1.4130992388
388,1_36_1,36,1.0,1934.98521891,1_I,test,01,5,4.0,11011,ignore,0.0,3700.0,1.85977317456
389,1_36_1,36,1.0,1938.57343131,1_I,test,01,5,5.0,11101,kill,1.0,3800.0,1.54364661342
390,1_36_1,36,1.0,1941.85664207,1_I,test,01,5,6.0,10010,ignore,0.0,3700.0,1.20337109926
391,1_36_1,36,1.0,1946.53790044,1_I,test,01,5,7.0,11110,ignore,1.0,3800.0,2.57601230273
392,1_36_1,36,1.0,1949.7359556,1_I,test,01,5,8.0,11010,ignore,1.0,3900.0,1.1174022387
393,1_36_1,36,1.0,1952.62024679,1_I,test,01,5,9.0,11111,ignore,0.0,3800.0,0.786079539156
394,1_36_1,36,1.0,1956.38094169,1_I,test,01,5,10.0,10000,kill,1.0,3900.0,1.70445037978
395,1_36_1,36,1.0,1961.2120193,1_I,test,01,5,11.0,11001,ignore,0.0,3800.0,2.69581490401
396,1_36_1,36,1.0,1965.13591627,1_I,test,01,5,12.0,00010,kill,0.0,3700.0,1.80986188986
397,1_36_1,36,1.0,1969.29305073,1_I,test,01,5,13.0,10001,kill,1.0,3800.0,2.0710785662
398,1_36_1,36,1.0,1973.06508936,1_I,test,01,5,14.0,11000,ignore,1.0,3900.0,1.66104885212
399,1_36_1,36,1.0,1977.29209174,1_I,test,01,5,15.0,10011,kill,1.0,4000.0,2.14525826785
400,1_36_1,36,1.0,1983.3174419,1_I,test,01,5,16.0,01101,ignore,1.0,4100.0,3.86889594816
401,1_36_1,36,1.0,1987.29920907,1_I,test,01,5,17.0,01000,ignore,1.0,4200.0,1.87441222522
402,1_36_1,36,1.0,1997.05355555,1_I,test,01,5,18.0,00100,kill,0.0,4100.0,7.6610316099
403,1_36_1,36,1.0,2000.35769672,1_I,test,01,5,19.0,01110,ignore,1.0,4200.0,1.22075001991
404,1_36_1,36,1.0,2004.59269866,1_I,test,01,5,20.0,10110,kill,1.0,4300.0,2.16015020432
405,1_36_1,36,1.0,2008.19886062,1_I,test,01,5,21.0,00101,ignore,1.0,4400.0,1.49243518364
406,1_36_1,36,1.0,2011.19271746,1_I,test,01,5,22.0,00001,ignore,1.0,4500.0,0.870276967439
407,1_36_1,36,1.0,2014.47598242,1_I,test,01,5,23.0,00110,kill,0.0,4400.0,1.23537429153
408,1_36_1,36,1.0,2019.93571322,1_I,test,01,5,24.0,11100,ignore,1.0,4500.0,3.29173334341
409,1_36_1,36,1.0,2042.76951634,1_I,test,01,5,25.0,00011,kill,0.0,4400.0,20.7201342265
410,1_36_1,36,1.0,2046.47485305,1_I,test,01,5,26.0,01011,ignore,1.0,4500.0,1.62756077675
411,1_36_1,36,1.0,2057.66877911,1_I,test,01,5,27.0,01001,ignore,1.0,4600.0,9.05901024762
412,1_36_1,36,1.0,2075.59057048,1_I,test,01,5,28.0,00111,ignore,1.0,4700.0,15.8523438327
413,1_36_1,36,1.0,2079.17334009,1_I,test,01,5,29.0,00000,kill,0.0,4600.0,1.44987729291
414,1_36_1,36,1.0,2088.46073742,1_I,test,01,5,30.0,10100,kill,1.0,4700.0,7.16901968158
415,1_36_1,36,1.0,2091.42055814,1_I,test,01,5,31.0,10101,kill,1.0,4800.0,0.880231472624
416,1_36_1,36,1.0,2094.23812853,1_I,test,01,5,32.0,10100,kill,1.0,4900.0,0.677771337035
417,1_36_1,36,1.0,2097.23510293,1_I,test,01,5,33.0,01100,ignore,1.0,5000.0,0.916744325054
418,1_36_1,36,1.0,2099.76877451,1_I,test,01,5,34.0,01000,ignore,1.0,5100.0,0.410825319124
419,1_36_1,36,1.0,2103.31086686,1_I,test,01,5,35.0,10001,kill,1.0,5200.0,1.4260296681
420,1_36_1,36,1.0,2106.61782344,1_I,test,01,5,36.0,10101,kill,1.0,5300.0,1.20447501152
421,1_36_1,36,1.0,2112.86492039,1_I,test,01,5,37.0,11111,ignore,0.0,5200.0,4.12772211462
422,1_36_1,36,1.0,2116.2146237,1_I,test,01,5,38.0,00111,ignore,1.0,5300.0,1.26266707501
423,1_36_1,36,1.0,2119.20801664,1_I,test,01,5,39.0,11101,ignore,0.0,5200.0,0.88802864835
424,1_36_1,36,1.0,2122.76024865,1_I,test,01,5,40.0,00010,ignore,1.0,5300.0,1.4242635727
425,1_36_1,36,1.0,2127.43951636,1_I,test,01,5,41.0,11110,kill,0.0,5200.0,2.61333471818
426,1_36_1,36,1.0,2132.92012175,1_I,test,01,5,42.0,10111,ignore,0.0,5100.0,3.38597928799
427,1_36_1,36,1.0,2141.12536404,1_I,test,01,5,43.0,01101,ignore,1.0,5200.0,6.10895847993
428,1_36_1,36,1.0,2146.15151309,1_I,test,01,5,44.0,01011,ignore,1.0,5300.0,2.92024079984
429,1_36_1,36,1.0,2149.65452185,1_I,test,01,5,45.0,11010,ignore,1.0,5400.0,1.40775907864
430,1_36_1,36,1.0,2153.25828016,1_I,test,01,5,46.0,11000,ignore,1.0,5500.0,1.56043601455
431,1_36_1,36,1.0,2157.23231667,1_I,test,01,5,47.0,00110,kill,0.0,5400.0,1.86394743259
432,1_36_1,36,1.0,2160.7603402,1_I,test,01,5,48.0,10011,ignore,0.0,5300.0,1.40809530182
433,1_36_1,36,1.0,2165.20440276,1_I,test,01,5,49.0,10000,kill,1.0,5400.0,2.34835718643
434,1_36_1,36,1.0,2168.19033024,1_I,test,01,5,50.0,00100,kill,0.0,5300.0,0.846165372543
435,1_36_1,36,1.0,2173.32143922,1_I,test,01,5,51.0,11001,ignore,0.0,5200.0,3.05855743423
436,1_36_1,36,1.0,2176.87277586,1_I,test,01,5,52.0,11100,kill,0.0,5100.0,1.42448320567
437,1_36_1,36,1.0,2180.90250636,1_I,test,01,5,53.0,00000,kill,0.0,5000.0,1.90132773262
438,1_36_1,36,1.0,2184.49044535,1_I,test,01,5,54.0,10110,ignore,0.0,4900.0,1.49035749679
439,1_36_1,36,1.0,2190.67288727,1_I,test,01,5,55.0,01010,kill,0.0,4800.0,4.06879068855
