,unique_id,pair_id,sbj_id,wall_time,condition,block,rule_id,rule_num,trial,stimulus,choice,correct,points,reaction_time
0,3_9_1,9,1.0,32.4482951278,3_D,training,04,1_A,1.0,11010,kill,1.0,100.0,2.1904483025
1,3_9_1,9,1.0,35.9484688014,3_D,training,04,1_A,2.0,10101,kill,0.0,0.0,1.67325653633
2,3_9_1,9,1.0,41.1049880417,3_D,training,04,1_A,3.0,01100,ignore,0.0,0.0,3.35557489183
3,3_9_1,9,1.0,44.6363905774,3_D,training,04,1_A,4.0,11000,kill,1.0,100.0,1.74551407238
4,3_9_1,9,1.0,48.7928947435,3_D,training,04,1_A,5.0,11110,kill,1.0,200.0,2.36990978272
5,3_9_1,9,1.0,53.7306531893,3_D,training,04,1_A,6.0,00000,ignore,1.0,300.0,3.12705052764
6,3_9_1,9,1.0,57.3870856729,3_D,training,04,1_A,7.0,01010,ignore,0.0,200.0,1.87831747927
7,3_9_1,9,1.0,60.8091629764,3_D,training,04,1_A,8.0,10100,kill,0.0,100.0,1.61664855094
8,3_9_1,9,1.0,65.1687690853,3_D,training,04,1_A,9.0,00110,ignore,0.0,0.0,2.54888568233
9,3_9_1,9,1.0,68.8120549713,3_D,training,04,1_A,10.0,10110,kill,1.0,100.0,1.83550395985
10,3_9_1,9,1.0,72.4684999633,3_D,training,04,1_A,11.0,10011,kill,0.0,0.0,1.879114165
11,3_9_1,9,1.0,75.8905631548,3_D,training,04,1_A,12.0,01101,ignore,1.0,100.0,1.62542043294
12,3_9_1,9,1.0,79.6095146215,3_D,training,04,1_A,13.0,01110,kill,1.0,200.0,1.93470897397
13,3_9_1,9,1.0,84.2972256798,3_D,training,04,1_A,14.0,11100,ignore,0.0,100.0,2.91075291613
14,3_9_1,9,1.0,87.0161312825,3_D,training,04,1_A,15.0,11111,kill,0.0,0.0,0.943686762668
15,3_9_1,9,1.0,90.1413568738,3_D,training,04,1_A,16.0,00001,ignore,1.0,100.0,1.3200858137
16,3_9_1,9,1.0,93.0476994737,3_D,training,04,1_A,17.0,10010,kill,1.0,200.0,1.12145255951
17,3_9_1,9,1.0,97.5322752338,3_D,training,04,1_A,18.0,01011,ignore,1.0,300.0,2.69893008698
18,3_9_1,9,1.0,102.548216325,3_D,training,04,1_A,19.0,11001,kill,0.0,200.0,3.23624939343
19,3_9_1,9,1.0,106.204637263,3_D,training,04,1_A,20.0,00111,kill,0.0,100.0,1.87937235019
20,3_9_1,9,1.0,109.314199512,3_D,training,04,1_A,21.0,01001,ignore,1.0,200.0,1.34618112028
21,3_9_1,9,1.0,113.034565385,3_D,training,04,1_A,22.0,00100,ignore,1.0,300.0,1.94691038921
22,3_9_1,9,1.0,116.20659049,3_D,training,04,1_A,23.0,10000,kill,0.0,200.0,1.41166939338
23,3_9_1,9,1.0,119.425525118,3_D,training,04,1_A,24.0,00011,ignore,1.0,300.0,1.43391982532
24,3_9_1,9,1.0,123.347591036,3_D,training,04,1_A,25.0,11011,ignore,1.0,400.0,2.15929577343
25,3_9_1,9,1.0,126.238351117,3_D,training,04,1_A,26.0,10111,kill,0.0,300.0,1.11080410415
26,3_9_1,9,1.0,130.145984001,3_D,training,04,1_A,27.0,01111,ignore,1.0,400.0,2.12097211055
27,3_9_1,9,1.0,133.55238353,3_D,training,04,1_A,28.0,10001,ignore,1.0,500.0,1.61690288741
28,3_9_1,9,1.0,136.505707176,3_D,training,04,1_A,29.0,00010,ignore,0.0,400.0,1.17425030878
29,3_9_1,9,1.0,140.693443732,3_D,training,04,1_A,30.0,11101,kill,0.0,300.0,2.39779314202
30,3_9_1,9,1.0,145.209297104,3_D,training,04,1_A,31.0,00101,ignore,1.0,400.0,2.74705997626
31,3_9_1,9,1.0,147.990632528,3_D,training,04,1_A,32.0,01000,ignore,0.0,300.0,1.01104743969
32,3_9_1,9,1.0,151.4752224,3_D,training,04,1_A,33.0,00111,ignore,1.0,400.0,1.69673984266
33,3_9_1,9,1.0,155.412945887,3_D,training,04,1_A,34.0,10010,kill,1.0,500.0,2.15522735211
34,3_9_1,9,1.0,158.209944652,3_D,training,04,1_A,35.0,11110,kill,1.0,600.0,1.02692823446
35,3_9_1,9,1.0,160.913196535,3_D,training,04,1_A,36.0,00101,ignore,1.0,700.0,0.912478747831
36,3_9_1,9,1.0,163.663386806,3_D,training,04,1_A,37.0,01001,ignore,1.0,800.0,0.978372419791
37,3_9_1,9,1.0,168.179219652,3_D,training,04,1_A,38.0,10000,ignore,1.0,900.0,2.74613981065
38,3_9_1,9,1.0,172.320099926,3_D,training,04,1_A,39.0,11100,kill,1.0,1000.0,2.37052140901
39,3_9_1,9,1.0,175.83587921,3_D,training,04,1_A,40.0,11001,ignore,1.0,1100.0,1.72802194542
40,3_9_1,9,1.0,179.179824543,3_D,training,04,1_A,41.0,11101,kill,0.0,1000.0,1.57765905892
41,3_9_1,9,1.0,182.071377782,3_D,training,04,1_A,42.0,00100,ignore,1.0,1100.0,1.08024427847
42,3_9_1,9,1.0,184.805947047,3_D,training,04,1_A,43.0,10111,kill,0.0,1000.0,0.93054722111
43,3_9_1,9,1.0,187.634219256,3_D,training,04,1_A,44.0,00011,ignore,1.0,1100.0,1.05974822293
44,3_9_1,9,1.0,191.759387437,3_D,training,04,1_A,45.0,10001,kill,0.0,1000.0,2.34403962646
45,3_9_1,9,1.0,196.634687517,3_D,training,04,1_A,46.0,11011,kill,0.0,900.0,3.12863427731
46,3_9_1,9,1.0,199.478561809,3_D,training,04,1_A,47.0,01000,ignore,0.0,800.0,1.06532855108
47,3_9_1,9,1.0,202.306912596,3_D,training,04,1_A,48.0,00010,ignore,0.0,700.0,1.06084575054
48,3_9_1,9,1.0,206.182043332,3_D,training,04,1_A,49.0,10101,kill,0.0,600.0,2.10600987775
49,3_9_1,9,1.0,210.213506966,3_D,training,04,1_A,50.0,01111,ignore,1.0,700.0,2.26810335233
50,3_9_1,9,1.0,212.979253457,3_D,training,04,1_A,51.0,00000,ignore,1.0,800.0,0.974573088379
51,3_9_1,9,1.0,216.276315887,3_D,training,04,1_A,52.0,11111,kill,0.0,700.0,1.52631580635
52,3_9_1,9,1.0,219.604604292,3_D,training,04,1_A,53.0,01010,ignore,0.0,600.0,1.5596627492
53,3_9_1,9,1.0,222.432907611,3_D,training,04,1_A,54.0,10011,kill,0.0,500.0,1.05628020246
54,3_9_1,9,1.0,225.448650814,3_D,training,04,1_A,55.0,10100,kill,0.0,400.0,1.21984100282
55,3_9_1,9,1.0,228.583051441,3_D,training,04,1_A,56.0,01100,ignore,0.0,300.0,1.35337245988
56,3_9_1,9,1.0,231.55195985,3_D,training,04,1_A,57.0,01101,ignore,1.0,400.0,1.18545779121
57,3_9_1,9,1.0,235.036480124,3_D,training,04,1_A,58.0,11010,kill,1.0,500.0,1.72099642165
58,3_9_1,9,1.0,238.208573224,3_D,training,04,1_A,59.0,11000,kill,1.0,600.0,1.40291803791
59,3_9_1,9,1.0,241.364964494,3_D,training,04,1_A,60.0,01110,ignore,0.0,500.0,1.39345659297
60,3_9_1,9,1.0,244.537016219,3_D,training,04,1_A,61.0,01011,ignore,1.0,600.0,1.38423729689
61,3_9_1,9,1.0,247.584057562,3_D,training,04,1_A,62.0,10110,kill,1.0,700.0,1.2708988084
62,3_9_1,9,1.0,250.615447429,3_D,training,04,1_A,63.0,00110,ignore,0.0,600.0,1.25834587643
63,3_9_1,9,1.0,253.412459344,3_D,training,04,1_A,64.0,00001,ignore,1.0,700.0,0.998726072567
64,3_9_1,9,1.0,256.240733156,3_D,training,04,1_A,65.0,11100,kill,1.0,800.0,1.06091695193
65,3_9_1,9,1.0,261.022227981,3_D,training,04,1_A,66.0,00111,ignore,1.0,900.0,2.98445340271
66,3_9_1,9,1.0,263.756754269,3_D,training,04,1_A,67.0,10110,kill,1.0,1000.0,0.966583780133
67,3_9_1,9,1.0,266.538164422,3_D,training,04,1_A,68.0,01100,ignore,0.0,900.0,0.990288067322
68,3_9_1,9,1.0,269.132060924,3_D,training,04,1_A,69.0,10011,kill,0.0,800.0,0.829172489197
69,3_9_1,9,1.0,272.038432069,3_D,training,04,1_A,70.0,01001,ignore,1.0,900.0,1.12316973159
70,3_9_1,9,1.0,274.632327929,3_D,training,04,1_A,71.0,00011,ignore,1.0,1000.0,0.812638373633
71,3_9_1,9,1.0,277.335637222,3_D,training,04,1_A,72.0,11111,kill,0.0,900.0,0.93119957972
72,3_9_1,9,1.0,280.038860239,3_D,training,04,1_A,73.0,00010,ignore,0.0,800.0,0.941098496208
73,3_9_1,9,1.0,283.210905229,3_D,training,04,1_A,74.0,00101,ignore,1.0,900.0,1.39016401014
74,3_9_1,9,1.0,286.226674411,3_D,training,04,1_A,75.0,10010,kill,1.0,1000.0,1.2449673933
75,3_9_1,9,1.0,289.273728582,3_D,training,04,1_A,76.0,11000,kill,1.0,1100.0,1.27438478959
76,3_9_1,9,1.0,292.289474351,3_D,training,04,1_A,77.0,11011,kill,0.0,1000.0,1.26252462782
77,3_9_1,9,1.0,295.930288394,3_D,training,04,1_A,78.0,01110,ignore,0.0,900.0,1.85064868629
78,3_9_1,9,1.0,299.758616089,3_D,training,04,1_A,79.0,01101,ignore,1.0,1000.0,2.03740830818
79,3_9_1,9,1.0,302.711924339,3_D,training,04,1_A,80.0,10100,kill,0.0,900.0,1.16972837956
80,3_9_1,9,1.0,305.665163954,3_D,training,04,1_A,81.0,00100,ignore,1.0,1000.0,1.15267212052
81,3_9_1,9,1.0,309.509124201,3_D,training,04,1_A,82.0,11110,kill,1.0,1100.0,2.06538403684
82,3_9_1,9,1.0,312.384282199,3_D,training,04,1_A,83.0,11101,kill,0.0,1000.0,1.10842591384
83,3_9_1,9,1.0,315.712579905,3_D,training,04,1_A,84.0,10001,kill,0.0,900.0,1.54283164048
84,3_9_1,9,1.0,318.556510965,3_D,training,04,1_A,85.0,01111,ignore,1.0,1000.0,1.07126488614
85,3_9_1,9,1.0,321.431668322,3_D,training,04,1_A,86.0,00110,ignore,0.0,900.0,1.08278058717
86,3_9_1,9,1.0,324.963055463,3_D,training,04,1_A,87.0,01010,ignore,0.0,800.0,1.77443241754
87,3_9_1,9,1.0,327.635075918,3_D,training,04,1_A,88.0,00000,ignore,1.0,900.0,0.885479632717
88,3_9_1,9,1.0,331.042543788,3_D,training,04,1_A,89.0,00001,ignore,1.0,1000.0,1.62519881062
89,3_9_1,9,1.0,333.698921107,3_D,training,04,1_A,90.0,01000,ignore,0.0,900.0,0.893865359469
90,3_9_1,9,1.0,336.683443466,3_D,training,04,1_A,91.0,10101,kill,0.0,800.0,1.20936477783
91,3_9_1,9,1.0,339.324226078,3_D,training,04,1_A,92.0,10111,kill,0.0,700.0,0.847354499815
92,3_9_1,9,1.0,342.308743947,3_D,training,04,1_A,93.0,01011,ignore,1.0,800.0,1.22840345012
93,3_9_1,9,1.0,345.387033074,3_D,training,04,1_A,94.0,10000,kill,0.0,700.0,1.28189461105
94,3_9_1,9,1.0,348.277826831,3_D,training,04,1_A,95.0,11010,kill,1.0,800.0,1.14151178495
95,3_9_1,9,1.0,350.793540046,3_D,training,04,1_A,96.0,11001,kill,0.0,700.0,0.7183071262
96,3_9_1,9,1.0,353.463511697,3_D,training,04,1_A,97.0,11110,kill,1.0,800.0,0.90434382955
97,3_9_1,9,1.0,355.854269373,3_D,training,04,1_A,98.0,10101,kill,0.0,700.0,0.619223346868
98,3_9_1,9,1.0,359.463854554,3_D,training,04,1_A,99.0,01110,ignore,0.0,600.0,1.84195794821
99,3_9_1,9,1.0,362.307741034,3_D,training,04,1_A,100.0,00001,ignore,1.0,700.0,1.07031136493
100,3_9_1,9,1.0,365.12038069,3_D,training,04,1_A,101.0,11101,kill,0.0,600.0,1.02598241069
101,3_9_1,9,1.0,368.198683608,3_D,training,04,1_A,102.0,00110,ignore,0.0,500.0,1.28696337972
102,3_9_1,9,1.0,371.073819797,3_D,training,04,1_A,103.0,00000,ignore,1.0,600.0,1.08152077172
103,3_9_1,9,1.0,374.308422258,3_D,training,04,1_A,104.0,00111,ignore,1.0,700.0,1.44379340438
104,3_9_1,9,1.0,377.042953356,3_D,training,04,1_A,105.0,10110,kill,1.0,800.0,0.960582337503
105,3_9_1,9,1.0,379.702080909,3_D,training,04,1_A,106.0,10010,kill,1.0,900.0,0.872913871665
106,3_9_1,9,1.0,382.420983304,3_D,training,04,1_A,107.0,00101,ignore,1.0,1000.0,0.940277114496
107,3_9_1,9,1.0,385.092966875,3_D,training,04,1_A,108.0,10011,kill,0.0,900.0,0.901746903461
108,3_9_1,9,1.0,388.655673002,3_D,training,04,1_A,109.0,01010,ignore,0.0,800.0,1.79315773961
109,3_9_1,9,1.0,392.046481353,3_D,training,04,1_A,110.0,11010,ignore,0.0,700.0,1.63194915067
110,3_9_1,9,1.0,395.109121891,3_D,training,04,1_A,111.0,01011,ignore,1.0,800.0,1.28538412023
111,3_9_1,9,1.0,398.031177225,3_D,training,04,1_A,112.0,01100,ignore,0.0,700.0,1.14402820858
112,3_9_1,9,1.0,400.562534218,3_D,training,04,1_A,113.0,11000,kill,1.0,800.0,0.769618306068
113,3_9_1,9,1.0,403.609562089,3_D,training,04,1_A,114.0,11111,kill,0.0,700.0,1.29018123318
114,3_9_1,9,1.0,406.297223435,3_D,training,04,1_A,115.0,10001,kill,0.0,600.0,0.901057019799
115,3_9_1,9,1.0,409.438022885,3_D,training,04,1_A,116.0,01001,ignore,1.0,700.0,1.36807105513
116,3_9_1,9,1.0,412.26625821,3_D,training,04,1_A,117.0,10000,kill,0.0,600.0,1.05532571906
117,3_9_1,9,1.0,415.266442628,3_D,training,04,1_A,118.0,00010,ignore,0.0,500.0,1.24431054451
118,3_9_1,9,1.0,418.610348512,3_D,training,04,1_A,119.0,01101,ignore,1.0,600.0,1.55315712381
119,3_9_1,9,1.0,421.938668669,3_D,training,04,1_A,120.0,10111,kill,0.0,500.0,1.55320362922
120,3_9_1,9,1.0,424.798160439,3_D,training,04,1_A,121.0,00100,ignore,1.0,600.0,1.06514252945
121,3_9_1,9,1.0,427.73707286,3_D,training,04,1_A,122.0,10100,kill,0.0,500.0,1.15657889546
122,3_9_1,9,1.0,430.799739698,3_D,training,04,1_A,123.0,01111,ignore,1.0,600.0,1.30968624245
123,3_9_1,9,1.0,433.337364337,3_D,training,04,1_A,124.0,00011,ignore,1.0,700.0,0.77561942797
124,3_9_1,9,1.0,436.353177458,3_D,training,04,1_A,125.0,11011,kill,0.0,600.0,1.25684102559
125,3_9_1,9,1.0,438.806463097,3_D,training,04,1_A,126.0,11001,kill,0.0,500.0,0.694054716659
126,3_9_1,9,1.0,441.652719428,3_D,training,04,1_A,127.0,01000,ignore,0.0,400.0,1.05709324527
127,3_9_1,9,1.0,444.66851074,3_D,training,04,1_A,128.0,11100,kill,1.0,500.0,1.23744217694
128,3_9_1,9,1.0,447.481194657,3_D,training,04,1_A,129.0,00101,ignore,1.0,600.0,1.04222113674
129,3_9_1,9,1.0,450.575045134,3_D,training,04,1_A,130.0,11100,kill,1.0,700.0,1.32807544268
130,3_9_1,9,1.0,453.856465711,3_D,training,04,1_A,131.0,01000,ignore,0.0,600.0,1.52209760555
131,3_9_1,9,1.0,457.106622787,3_D,training,04,1_A,132.0,00010,ignore,0.0,500.0,1.49181617086
132,3_9_1,9,1.0,460.528709712,3_D,training,04,1_A,133.0,11011,kill,0.0,400.0,1.64715545667
133,3_9_1,9,1.0,463.153811343,3_D,training,04,1_A,134.0,10110,kill,1.0,500.0,0.859068410095
134,3_9_1,9,1.0,467.044648078,3_D,training,04,1_A,135.0,01100,ignore,0.0,400.0,2.12019017825
135,3_9_1,9,1.0,471.404277599,3_D,training,04,1_A,136.0,01010,kill,1.0,500.0,2.61025967016
136,3_9_1,9,1.0,474.735775199,3_D,training,04,1_A,137.0,01011,ignore,1.0,600.0,1.56767963996
137,3_9_1,9,1.0,477.267179338,3_D,training,04,1_A,138.0,01001,ignore,1.0,700.0,0.751318909388
138,3_9_1,9,1.0,480.439230422,3_D,training,04,1_A,139.0,00111,ignore,1.0,800.0,1.40055909121
139,3_9_1,9,1.0,482.673710044,3_D,training,04,1_A,140.0,11101,ignore,1.0,900.0,0.463117844381
140,3_9_1,9,1.0,485.751977683,3_D,training,04,1_A,141.0,00000,kill,0.0,800.0,1.30008111185
141,3_9_1,9,1.0,489.767816462,3_D,training,04,1_A,142.0,00110,kill,1.0,900.0,2.22933836917
142,3_9_1,9,1.0,492.971122387,3_D,training,04,1_A,143.0,10101,ignore,1.0,1000.0,1.42621339824
143,3_9_1,9,1.0,495.377551102,3_D,training,04,1_A,144.0,10011,ignore,1.0,1100.0,0.632271160522
144,3_9_1,9,1.0,497.737022506,3_D,training,04,1_A,145.0,11111,ignore,1.0,1200.0,0.589475922548
145,3_9_1,9,1.0,501.143396056,3_D,training,04,1_A,146.0,11010,kill,1.0,1300.0,1.66269820524
146,3_9_1,9,1.0,505.299921711,3_D,training,04,1_A,147.0,11001,ignore,1.0,1400.0,2.38657892433
147,3_9_1,9,1.0,508.018774393,3_D,training,04,1_A,148.0,01110,kill,1.0,1500.0,0.961153552195
148,3_9_1,9,1.0,511.331444359,3_D,training,04,1_A,149.0,10111,ignore,1.0,1600.0,1.52968568439
149,3_9_1,9,1.0,514.300355975,3_D,training,04,1_A,150.0,10010,kill,1.0,1700.0,1.21085391304
150,3_9_1,9,1.0,518.363061621,3_D,training,04,1_A,151.0,00011,ignore,1.0,1800.0,2.26502886382
151,3_9_1,9,1.0,521.035078227,3_D,training,04,1_A,152.0,11110,kill,1.0,1900.0,0.916335489367
152,3_9_1,9,1.0,524.035232817,3_D,training,04,1_A,153.0,00100,kill,0.0,1800.0,1.19828430327
153,3_9_1,9,1.0,526.804175672,3_D,training,04,1_A,154.0,10100,kill,0.0,1700.0,0.995709314905
154,3_9_1,9,1.0,530.00746043,3_D,training,04,1_A,155.0,01101,ignore,1.0,1800.0,1.42773909633
155,3_9_1,9,1.0,532.991978298,3_D,training,04,1_A,156.0,11000,kill,1.0,1900.0,1.20084819448
156,3_9_1,9,1.0,536.117125312,3_D,training,04,1_A,157.0,10000,ignore,1.0,2000.0,1.35904611957
157,3_9_1,9,1.0,538.711026304,3_D,training,04,1_A,158.0,01111,kill,0.0,1900.0,0.823804803014
158,3_9_1,9,1.0,542.945634217,3_D,training,04,1_A,159.0,10001,ignore,1.0,2000.0,2.46155109325
159,3_9_1,9,1.0,545.362456088,3_D,training,04,1_A,160.0,00001,ignore,1.0,2100.0,0.616024416301
160,3_9_1,9,1.0,547.581308611,3_D,training,04,1_A,161.0,01001,ignore,1.0,2200.0,0.430045764529
161,3_9_1,9,1.0,549.768950232,3_D,training,04,1_A,162.0,11011,ignore,1.0,2300.0,0.420209069068
162,3_9_1,9,1.0,552.065948196,3_D,training,04,1_A,163.0,00001,ignore,1.0,2400.0,0.522399088878
163,3_9_1,9,1.0,554.300439685,3_D,training,04,1_A,164.0,10111,ignore,1.0,2500.0,0.469431995784
164,3_9_1,9,1.0,556.488029348,3_D,training,04,1_A,165.0,00101,ignore,1.0,2600.0,0.41815930315
165,3_9_1,9,1.0,559.2444321,3_D,training,04,1_A,166.0,11010,kill,1.0,2700.0,0.992150849429
166,3_9_1,9,1.0,561.338341271,3_D,training,04,1_A,167.0,10010,kill,1.0,2800.0,0.344569788099
167,3_9_1,9,1.0,563.369671803,3_D,training,04,1_A,168.0,11100,kill,1.0,2900.0,0.283445967292
168,3_9_1,9,1.0,565.41858587,3_D,training,04,1_A,169.0,00110,kill,1.0,3000.0,0.271660534902
169,3_9_1,9,1.0,567.432359489,3_D,training,04,1_A,170.0,01100,kill,1.0,3100.0,0.244233249314
170,3_9_1,9,1.0,569.463739413,3_D,training,04,1_A,171.0,01000,kill,1.0,3200.0,0.257839448581
171,3_9_1,9,1.0,571.432578545,3_D,training,04,1_A,172.0,10011,kill,0.0,3100.0,0.207539200049
172,3_9_1,9,1.0,574.057711928,3_D,training,04,1_A,173.0,11111,ignore,1.0,3200.0,0.855154579163
173,3_9_1,9,1.0,576.323444466,3_D,training,04,1_A,174.0,10001,ignore,1.0,3300.0,0.49160288744
174,3_9_1,9,1.0,579.276769394,3_D,training,04,1_A,175.0,01110,kill,1.0,3400.0,1.18377974783
175,3_9_1,9,1.0,583.73007556,3_D,training,04,1_A,176.0,00100,kill,0.0,3300.0,2.65410368525
176,3_9_1,9,1.0,586.199009146,3_D,training,04,1_A,177.0,10000,kill,0.0,3200.0,0.697639481744
177,3_9_1,9,1.0,589.13663866,3_D,training,04,1_A,178.0,01010,kill,1.0,3300.0,1.14821177087
178,3_9_1,9,1.0,592.214927145,3_D,training,04,1_A,179.0,01111,ignore,1.0,3400.0,1.3003126767
179,3_9_1,9,1.0,595.168230585,3_D,training,04,1_A,180.0,11101,ignore,1.0,3500.0,1.18344170162
180,3_9_1,9,1.0,597.402696736,3_D,training,04,1_A,181.0,01101,ignore,1.0,3600.0,0.462198961679
181,3_9_1,9,1.0,600.230967341,3_D,training,04,1_A,182.0,00010,kill,1.0,3700.0,1.0594586065
182,3_9_1,9,1.0,602.403000785,3_D,training,04,1_A,183.0,11110,kill,1.0,3800.0,0.399897431523
183,3_9_1,9,1.0,604.699917605,3_D,training,04,1_A,184.0,00111,kill,0.0,3700.0,0.502881891981
184,3_9_1,9,1.0,607.278202082,3_D,training,04,1_A,185.0,11000,kill,1.0,3800.0,0.818091693909
185,3_9_1,9,1.0,610.481486839,3_D,training,04,1_A,186.0,10110,kill,1.0,3900.0,1.42395900853
186,3_9_1,9,1.0,613.434799259,3_D,training,04,1_A,187.0,00000,ignore,1.0,4000.0,1.19007882506
187,3_9_1,9,1.0,616.997465295,3_D,training,04,1_A,188.0,00011,ignore,1.0,4100.0,1.79762771106
188,3_9_1,9,1.0,619.763245782,3_D,training,04,1_A,189.0,10101,kill,0.0,4000.0,0.971146762406
189,3_9_1,9,1.0,622.59152216,3_D,training,04,1_A,190.0,11001,kill,0.0,3900.0,1.06784561616
190,3_9_1,9,1.0,625.201046724,3_D,training,04,1_A,191.0,01011,ignore,1.0,4000.0,0.831927533671
191,3_9_1,9,1.0,627.91989203,3_D,training,04,1_A,192.0,10100,kill,0.0,3900.0,0.924327684156
192,3_9_1,9,1.0,630.654404848,3_D,training,04,1_A,193.0,11111,kill,0.0,3800.0,0.975124738728
193,3_9_1,9,1.0,633.56083244,3_D,training,04,1_A,194.0,11000,kill,1.0,3900.0,1.13451929606
194,3_9_1,9,1.0,636.482871096,3_D,training,04,1_A,195.0,10011,ignore,1.0,4000.0,1.16024865319
195,3_9_1,9,1.0,639.02986449,3_D,training,04,1_A,196.0,00010,ignore,0.0,3900.0,0.760323959875
196,3_9_1,9,1.0,641.686248223,3_D,training,04,1_A,197.0,11110,kill,1.0,4000.0,0.881063543385
197,3_9_1,9,1.0,644.108270682,3_D,training,04,1_A,198.0,00110,kill,1.0,4100.0,0.652942974429
198,3_9_1,9,1.0,646.999012482,3_D,training,04,1_A,199.0,01011,ignore,1.0,4200.0,1.0973611549
199,3_9_1,9,1.0,649.671032936,3_D,training,04,1_A,200.0,01001,ignore,1.0,4300.0,0.908563313264
200,3_9_1,9,1.0,651.936791775,3_D,training,04,1_A,201.0,10101,ignore,1.0,4400.0,0.470293468364
201,3_9_1,9,1.0,654.658569808,3_D,training,04,1_A,202.0,00100,ignore,1.0,4500.0,0.913562804912
202,3_9_1,9,1.0,657.00244426,3_D,training,04,1_A,203.0,01101,ignore,1.0,4600.0,0.588126303554
203,3_9_1,9,1.0,659.377582533,3_D,training,04,1_A,204.0,01010,ignore,0.0,4500.0,0.60424443627
204,3_9_1,9,1.0,662.409026924,3_D,training,04,1_A,205.0,00000,ignore,1.0,4600.0,1.26768255858
205,3_9_1,9,1.0,665.115190366,3_D,training,04,1_A,206.0,10111,kill,0.0,4500.0,0.91882176466
206,3_9_1,9,1.0,667.865307191,3_D,training,04,1_A,207.0,10100,kill,0.0,4400.0,0.968736820127
207,3_9_1,9,1.0,670.302968296,3_D,training,04,1_A,208.0,11010,kill,1.0,4500.0,0.681945029325
208,3_9_1,9,1.0,673.818743732,3_D,training,04,1_A,209.0,10001,ignore,1.0,4600.0,1.75789317034
209,3_9_1,9,1.0,676.193905418,3_D,training,04,1_A,210.0,01111,ignore,1.0,4700.0,0.589628588574
210,3_9_1,9,1.0,678.615883617,3_D,training,04,1_A,211.0,00111,ignore,1.0,4800.0,0.653141504408
211,3_9_1,9,1.0,681.069173426,3_D,training,04,1_A,212.0,00001,ignore,1.0,4900.0,0.665648572428
212,3_9_1,9,1.0,684.131908899,3_D,training,04,1_A,213.0,11001,ignore,1.0,5000.0,1.31071866249
213,3_9_1,9,1.0,687.460165874,3_D,training,04,1_A,214.0,01110,kill,1.0,5100.0,1.57762153386
214,3_9_1,9,1.0,690.976007379,3_D,training,04,1_A,215.0,11011,kill,0.0,5000.0,1.74484343233
215,3_9_1,9,1.0,694.41408992,3_D,training,04,1_A,216.0,11100,kill,1.0,5100.0,1.69089106605
216,3_9_1,9,1.0,697.011064117,3_D,training,04,1_A,217.0,00011,ignore,1.0,5200.0,0.813268602083
217,3_9_1,9,1.0,699.761200827,3_D,training,04,1_A,218.0,01100,ignore,0.0,5100.0,0.980317307997
218,3_9_1,9,1.0,702.780117303,3_D,training,04,1_A,219.0,10000,kill,0.0,5000.0,1.24247534492
219,3_9_1,9,1.0,705.655290375,3_D,training,04,1_A,220.0,01000,ignore,0.0,4900.0,1.10413458729
220,3_9_1,9,1.0,708.092898239,3_D,training,04,1_A,221.0,00101,ignore,1.0,5000.0,0.675202065995
221,3_9_1,9,1.0,711.358700055,3_D,training,04,1_A,222.0,10010,kill,1.0,5100.0,1.50373630857
222,3_9_1,9,1.0,713.499450434,3_D,training,04,1_A,223.0,10110,kill,1.0,5200.0,0.378960055704
223,3_9_1,9,1.0,716.312111259,3_D,training,04,1_A,224.0,11101,ignore,1.0,5300.0,1.04262076252
224,3_9_1,9,1.0,719.030990883,3_D,training,04,1_A,225.0,10110,kill,1.0,5400.0,0.952408611261
225,3_9_1,9,1.0,722.078039601,3_D,training,04,1_A,226.0,00111,ignore,1.0,5500.0,1.27342998547
226,3_9_1,9,1.0,724.59378521,3_D,training,04,1_A,227.0,01101,ignore,1.0,5600.0,0.732622452747
227,3_9_1,9,1.0,727.706702584,3_D,training,04,1_A,228.0,11010,kill,1.0,5700.0,1.37527137509
228,3_9_1,9,1.0,730.284961081,3_D,training,04,1_A,229.0,01001,ignore,1.0,5800.0,0.799310244628
229,3_9_1,9,1.0,733.116391488,3_D,training,04,1_A,230.0,10111,kill,0.0,5700.0,1.06999576961
230,3_9_1,9,1.0,735.553969525,3_D,training,04,1_A,231.0,01000,ignore,0.0,5600.0,0.667130010196
231,3_9_1,9,1.0,737.741605052,3_D,training,04,1_A,232.0,00001,ignore,1.0,5700.0,0.391727233277
232,3_9_1,9,1.0,739.976114181,3_D,training,04,1_A,233.0,01011,ignore,1.0,5800.0,0.453918433364
233,3_9_1,9,1.0,742.945019062,3_D,training,04,1_A,234.0,10000,kill,0.0,5700.0,1.2032526844
234,3_9_1,9,1.0,745.5544968,3_D,training,04,1_A,235.0,01110,kill,1.0,5800.0,0.850479021731
235,3_9_1,9,1.0,748.414054319,3_D,training,04,1_A,236.0,00000,ignore,1.0,5900.0,1.08726146334
236,3_9_1,9,1.0,751.257947534,3_D,training,04,1_A,237.0,10100,ignore,1.0,6000.0,1.04979670723
237,3_9_1,9,1.0,753.620471295,3_D,training,04,1_A,238.0,11000,ignore,0.0,5900.0,0.590650424626
238,3_9_1,9,1.0,756.651855069,3_D,training,04,1_A,239.0,01010,kill,1.0,6000.0,1.29531543014
239,3_9_1,9,1.0,760.698946765,3_D,training,04,1_A,240.0,11011,ignore,1.0,6100.0,2.29058791494
240,3_9_1,9,1.0,763.730362611,3_D,training,04,1_A,241.0,00100,ignore,1.0,6200.0,1.26126481237
241,3_9_1,9,1.0,766.667988917,3_D,training,04,1_A,242.0,11001,ignore,1.0,6300.0,1.161600838
242,3_9_1,9,1.0,769.76507136,3_D,training,04,1_A,243.0,00010,kill,1.0,6400.0,1.33776813174
243,3_9_1,9,1.0,772.233917388,3_D,training,04,1_A,244.0,01100,kill,1.0,6500.0,0.699974694644
244,3_9_1,9,1.0,774.817963403,3_D,training,04,1_A,245.0,00011,kill,0.0,6400.0,0.814422577637
245,3_9_1,9,1.0,777.708737596,3_D,training,04,1_A,246.0,10101,kill,0.0,6300.0,1.10899969435
246,3_9_1,9,1.0,780.505746625,3_D,training,04,1_A,247.0,11101,ignore,1.0,6400.0,1.02327226799
247,3_9_1,9,1.0,783.396536213,3_D,training,04,1_A,248.0,11110,kill,1.0,6500.0,1.11776772762
248,3_9_1,9,1.0,786.02165388,3_D,training,04,1_A,249.0,00101,ignore,1.0,6600.0,0.872036683465
249,3_9_1,9,1.0,789.428116271,3_D,training,04,1_A,250.0,10011,ignore,1.0,6700.0,1.64438822457
250,3_9_1,9,1.0,792.303234499,3_D,training,04,1_A,251.0,10001,ignore,1.0,6800.0,1.08888145515
251,3_9_1,9,1.0,795.118317454,3_D,training,04,1_A,252.0,11111,ignore,1.0,6900.0,1.05240389658
252,3_9_1,9,1.0,799.149756713,3_D,training,04,1_A,253.0,00110,kill,1.0,7000.0,2.24883664318
253,3_9_1,9,1.0,803.915617061,3_D,training,04,1_A,254.0,11100,ignore,0.0,6900.0,3.00535614001
254,3_9_1,9,1.0,806.822037918,3_D,training,04,1_A,255.0,10010,kill,1.0,7000.0,1.15491496406
255,3_9_1,9,1.0,811.650398648,3_D,training,04,1_A,256.0,01111,ignore,1.0,7100.0,3.05195006795
256,3_9_1,9,1.0,814.556823674,3_D,training,04,1_A,257.0,10100,ignore,1.0,7200.0,1.1351697303
257,3_9_1,9,1.0,818.635129479,3_D,training,04,1_A,258.0,10111,kill,0.0,7100.0,2.31192459581
258,3_9_1,9,1.0,821.416530972,3_D,training,04,1_A,259.0,10000,ignore,1.0,7200.0,1.04270767952
259,3_9_1,9,1.0,824.401074179,3_D,training,04,1_A,260.0,01100,ignore,0.0,7100.0,1.20830958618
260,3_9_1,9,1.0,827.744993212,3_D,training,04,1_A,261.0,11011,ignore,1.0,7200.0,1.5746333209
261,3_9_1,9,1.0,830.167084948,3_D,training,04,1_A,262.0,10101,ignore,1.0,7300.0,0.654394263863
262,3_9_1,9,1.0,832.46408676,3_D,training,04,1_A,263.0,10001,ignore,1.0,7400.0,0.515079137771
263,3_9_1,9,1.0,835.120455419,3_D,training,04,1_A,264.0,01011,ignore,1.0,7500.0,0.902506705599
264,3_9_1,9,1.0,837.423714294,3_D,training,04,1_A,265.0,01000,ignore,0.0,7400.0,0.520399997818
265,3_9_1,9,1.0,839.736321717,3_D,training,04,1_A,266.0,00100,ignore,1.0,7500.0,0.514357822867
266,3_9_1,9,1.0,841.923933511,3_D,training,04,1_A,267.0,00101,ignore,1.0,7600.0,0.41340484689
267,3_9_1,9,1.0,992.244282962,3_D,test,04,2,0.0,10011,kill,0.0,0.0,22.1256184818
268,3_9_1,9,1.0,1017.10493929,3_D,test,04,2,1.0,11100,kill,1.0,100.0,23.1117422305
269,3_9_1,9,1.0,1036.1840745,3_D,test,04,2,2.0,01101,ignore,1.0,200.0,17.3128733061
270,3_9_1,9,1.0,1048.0753317,3_D,test,04,2,3.0,01111,ignore,1.0,300.0,10.1179021122
271,3_9_1,9,1.0,1051.34114763,3_D,test,04,2,4.0,00110,kill,0.0,200.0,1.46531867269
272,3_9_1,9,1.0,1068.02948058,3_D,test,04,2,5.0,00000,ignore,0.0,100.0,14.9078432813
273,3_9_1,9,1.0,1076.9518637,3_D,test,04,2,6.0,00011,ignore,1.0,200.0,7.13917689278
274,3_9_1,9,1.0,1085.46793228,3_D,test,04,2,7.0,00001,ignore,0.0,100.0,6.75150942119
275,3_9_1,9,1.0,1113.76630295,3_D,test,04,2,8.0,11001,kill,1.0,200.0,26.5234254151
276,3_9_1,9,1.0,1119.07906849,3_D,test,04,2,9.0,11000,kill,1.0,300.0,3.57025700171
277,3_9_1,9,1.0,1123.84494392,3_D,test,04,2,10.0,11010,kill,0.0,200.0,2.98462338799
278,3_9_1,9,1.0,1128.64516855,3_D,test,04,2,11.0,10110,ignore,1.0,300.0,3.03820691827
279,3_9_1,9,1.0,1131.95783884,3_D,test,04,2,12.0,11101,kill,1.0,400.0,1.56253165174
280,3_9_1,9,1.0,1135.00487762,3_D,test,04,2,13.0,00111,ignore,1.0,500.0,1.25857423402
281,3_9_1,9,1.0,1137.52060238,3_D,test,04,2,14.0,11110,ignore,1.0,600.0,0.776029958463
282,3_9_1,9,1.0,1139.95824328,3_D,test,04,2,15.0,01010,ignore,1.0,700.0,0.65589462452
283,3_9_1,9,1.0,1142.31775445,3_D,test,04,2,16.0,10010,ignore,1.0,800.0,0.588373904758
284,3_9_1,9,1.0,1145.9897996,3_D,test,04,2,17.0,01001,kill,1.0,900.0,1.92520294799
285,3_9_1,9,1.0,1151.17759004,3_D,test,04,2,18.0,00010,ignore,1.0,1000.0,3.39825787537
286,3_9_1,9,1.0,1153.72458536,3_D,test,04,2,19.0,01110,ignore,1.0,1100.0,0.803710939066
287,3_9_1,9,1.0,1156.0372271,3_D,test,04,2,20.0,11111,ignore,1.0,1200.0,0.547904899328
288,3_9_1,9,1.0,1158.56862514,3_D,test,04,3,0.0,01010,ignore,1.0,1300.0,0.748315622257
289,3_9_1,9,1.0,1161.20940551,3_D,test,04,3,1.0,10011,ignore,0.0,1200.0,0.886333087122
290,3_9_1,9,1.0,1171.91306183,3_D,test,04,3,2.0,11000,ignore,1.0,1300.0,8.94616405761
291,3_9_1,9,1.0,1177.56957674,3_D,test,04,3,3.0,11100,ignore,1.0,1400.0,3.86885571361
292,3_9_1,9,1.0,1180.63226795,3_D,test,04,3,4.0,01111,kill,0.0,1300.0,1.2860169145
293,3_9_1,9,1.0,1196.41433688,3_D,test,04,3,5.0,00110,kill,1.0,1400.0,14.0005654416
294,3_9_1,9,1.0,1199.46135641,3_D,test,04,3,6.0,11001,ignore,1.0,1500.0,1.29360884206
295,3_9_1,9,1.0,1202.03959695,3_D,test,04,3,7.0,00111,kill,1.0,1600.0,0.775796148519
296,3_9_1,9,1.0,1204.41470892,3_D,test,04,3,8.0,01011,kill,0.0,1500.0,0.607563639443
297,3_9_1,9,1.0,1214.88404246,3_D,test,04,3,9.0,10100,kill,1.0,1600.0,8.71158436867
298,3_9_1,9,1.0,1217.99359059,3_D,test,04,3,10.0,01110,ignore,1.0,1700.0,1.35625611586
299,3_9_1,9,1.0,1220.63435621,3_D,test,04,3,11.0,11111,kill,0.0,1600.0,0.910437000087
300,3_9_1,9,1.0,1226.36900886,3_D,test,04,3,12.0,01101,ignore,1.0,1700.0,3.93592324619
301,3_9_1,9,1.0,1228.71288556,3_D,test,04,3,13.0,00100,ignore,0.0,1600.0,0.550628191834
302,3_9_1,9,1.0,1242.76045963,3_D,test,04,3,14.0,00101,ignore,1.0,1700.0,12.2714164617
303,3_9_1,9,1.0,1248.74518533,3_D,test,04,3,15.0,11010,kill,0.0,1600.0,4.21910525521
304,3_9_1,9,1.0,1260.07389805,3_D,test,04,3,16.0,00001,ignore,1.0,1700.0,9.55884425403
305,3_9_1,9,1.0,1268.10556727,3_D,test,04,3,17.0,11101,ignore,1.0,1800.0,6.27271733019
306,3_9_1,9,1.0,1272.54326687,3_D,test,04,3,18.0,10010,kill,1.0,1900.0,2.64817248182
307,3_9_1,9,1.0,1278.30921702,3_D,test,04,3,19.0,01000,ignore,1.0,2000.0,4.02820761425
308,3_9_1,9,1.0,1281.09058933,3_D,test,04,3,20.0,11110,kill,0.0,1900.0,1.00036210072
309,3_9_1,9,1.0,1292.18496804,3_D,test,04,3,21.0,01100,ignore,1.0,2000.0,9.35196671368
310,3_9_1,9,1.0,1297.43524699,3_D,test,04,3,22.0,10001,kill,0.0,1900.0,3.48253593665
311,3_9_1,9,1.0,1311.62347843,3_D,test,04,3,23.0,00011,ignore,0.0,1800.0,12.4116777323
312,3_9_1,9,1.0,1318.28284717,3_D,test,04,3,24.0,01001,ignore,1.0,1900.0,4.91439637425
313,3_9_1,9,1.0,1321.28299278,3_D,test,04,3,25.0,10110,kill,1.0,2000.0,1.2585229177
314,3_9_1,9,1.0,1323.7362332,3_D,test,04,3,26.0,10111,kill,1.0,2100.0,0.670642290991
315,3_9_1,9,1.0,1326.0355962,3_D,test,04,3,27.0,00010,kill,1.0,2200.0,0.531192138854
316,3_9_1,9,1.0,1328.66077224,3_D,test,04,3,28.0,00000,ignore,0.0,2100.0,0.844560647381
317,3_9_1,9,1.0,1341.05205174,3_D,test,04,3,29.0,10101,ignore,1.0,2200.0,10.6431636891
318,3_9_1,9,1.0,1348.95867914,3_D,test,04,3,30.0,11011,ignore,1.0,2300.0,6.12800725613
319,3_9_1,9,1.0,1355.27151428,3_D,test,04,3,31.0,10000,ignore,0.0,2200.0,4.53342985076
320,3_9_1,9,1.0,1358.09976115,3_D,test,04,3,32.0,11100,kill,0.0,2100.0,1.07698056106
321,3_9_1,9,1.0,1380.41350523,3_D,test,04,3,33.0,01100,ignore,1.0,2200.0,20.5286086833
322,3_9_1,9,1.0,1390.77335125,3_D,test,04,3,34.0,11110,ignore,1.0,2300.0,8.62807765569
323,3_9_1,9,1.0,1397.66516812,3_D,test,04,3,35.0,11111,ignore,1.0,2400.0,5.11544117435
324,3_9_1,9,1.0,1400.30592027,3_D,test,04,3,36.0,01101,ignore,1.0,2500.0,0.858400656592
325,3_9_1,9,1.0,1403.05607943,3_D,test,04,3,37.0,01000,kill,0.0,2400.0,1.00810605286
326,3_9_1,9,1.0,1421.96332359,3_D,test,04,3,38.0,01001,ignore,1.0,2500.0,17.1346825461
327,3_9_1,9,1.0,1435.29215114,3_D,test,04,3,39.0,11010,kill,0.0,2400.0,11.5970040254
328,3_9_1,9,1.0,1439.10485654,3_D,test,04,3,40.0,00101,ignore,1.0,2500.0,2.04370738541
329,3_9_1,9,1.0,1441.68308938,3_D,test,04,3,41.0,00001,kill,0.0,2400.0,0.808017339782
330,3_9_1,9,1.0,1458.84173119,3_D,test,04,3,42.0,10100,ignore,0.0,2300.0,15.4158798967
331,3_9_1,9,1.0,1468.57660098,3_D,test,04,3,43.0,10000,ignore,0.0,2200.0,7.97956263749
332,3_9_1,9,1.0,1495.01549528,3_D,test,04,3,44.0,10110,kill,1.0,2300.0,24.6534202161
333,3_9_1,9,1.0,1504.51600347,3_D,test,04,3,45.0,01111,kill,0.0,2200.0,7.73549520401
334,3_9_1,9,1.0,1519.50114034,3_D,test,04,3,46.0,11011,ignore,1.0,2300.0,13.2199144493
335,3_9_1,9,1.0,1523.20442655,3_D,test,04,3,47.0,01010,kill,0.0,2200.0,1.97780216728
336,3_9_1,9,1.0,1529.43917205,3_D,test,04,3,48.0,00100,ignore,0.0,2100.0,4.43171899701
337,3_9_1,9,1.0,1541.81480296,3_D,test,04,3,49.0,00011,ignore,0.0,2000.0,10.5861435696
338,3_9_1,9,1.0,1559.08133218,3_D,test,04,3,50.0,10101,ignore,1.0,2100.0,15.4902423637
339,3_9_1,9,1.0,1572.36329511,3_D,test,04,3,51.0,01011,kill,0.0,2000.0,11.496878525
340,3_9_1,9,1.0,1578.28546142,3_D,test,04,3,52.0,11000,kill,0.0,1900.0,4.1727592492
341,3_9_1,9,1.0,1591.77054521,3_D,test,04,4,0.0,00010,ignore,1.0,2000.0,11.6891180875
342,3_9_1,9,1.0,1602.11483949,3_D,test,04,4,1.0,11101,kill,1.0,2100.0,8.56318016163
343,3_9_1,9,1.0,1613.49042839,3_D,test,04,4,2.0,10011,kill,1.0,2200.0,9.61393840824
344,3_9_1,9,1.0,1619.66262348,3_D,test,04,4,3.0,00000,ignore,1.0,2300.0,4.39723154914
345,3_9_1,9,1.0,1625.74107778,3_D,test,04,4,4.0,10111,kill,0.0,2200.0,4.32284214108
346,3_9_1,9,1.0,1641.49190533,3_D,test,04,4,5.0,10010,ignore,0.0,2100.0,14.0022348254
347,3_9_1,9,1.0,1650.93626963,3_D,test,04,4,6.0,01110,ignore,1.0,2200.0,7.67144667417
348,3_9_1,9,1.0,1656.07722463,3_D,test,04,4,7.0,10001,kill,1.0,2300.0,3.3825926091
349,3_9_1,9,1.0,1664.17142438,3_D,test,04,4,8.0,11001,kill,1.0,2400.0,6.30769260375
350,3_9_1,9,1.0,1667.20284696,3_D,test,04,4,9.0,00110,ignore,1.0,2500.0,1.29112962276
351,3_9_1,9,1.0,1669.765479,3_D,test,04,4,10.0,00111,ignore,1.0,2600.0,0.798936277008
352,3_9_1,9,1.0,1675.15637267,3_D,test,04,4,11.0,10111,ignore,1.0,2700.0,3.62969828895
353,3_9_1,9,1.0,1677.53146893,3_D,test,04,4,12.0,11101,ignore,0.0,2600.0,0.626673513118
354,3_9_1,9,1.0,1685.7506688,3_D,test,04,4,13.0,10100,ignore,1.0,2700.0,6.4654187395
355,3_9_1,9,1.0,1714.42403342,3_D,test,04,4,14.0,00010,kill,0.0,2600.0,26.8890486822
356,3_9_1,9,1.0,1717.47107091,3_D,test,04,4,15.0,01000,ignore,1.0,2700.0,1.27987948364
357,3_9_1,9,1.0,1719.62744486,3_D,test,04,4,16.0,10010,ignore,0.0,2600.0,0.379592208516
358,3_9_1,9,1.0,1730.33114159,3_D,test,04,4,17.0,11110,ignore,0.0,2500.0,8.98116210278
359,3_9_1,9,1.0,1741.44104959,3_D,test,04,4,18.0,10101,ignore,1.0,2600.0,9.33422955133
360,3_9_1,9,1.0,1746.06631864,3_D,test,04,4,19.0,01111,ignore,1.0,2700.0,2.83288586579
361,3_9_1,9,1.0,1748.17582123,3_D,test,04,4,20.0,10001,ignore,0.0,2600.0,0.357851732423
362,3_9_1,9,1.0,1769.72381561,3_D,test,04,4,21.0,00001,ignore,1.0,2700.0,19.7743663478
363,3_9_1,9,1.0,1778.08360165,3_D,test,04,4,22.0,10110,ignore,1.0,2800.0,6.61672969486
364,3_9_1,9,1.0,1802.35049361,3_D,test,04,4,23.0,11000,kill,1.0,2900.0,22.4823858364
365,3_9_1,9,1.0,1806.99458934,3_D,test,04,4,24.0,00110,ignore,1.0,3000.0,2.86826589675
366,3_9_1,9,1.0,1809.94778116,3_D,test,04,4,25.0,11010,kill,1.0,3100.0,1.21633064639
367,3_9_1,9,1.0,1812.97919508,3_D,test,04,4,26.0,01011,kill,0.0,3000.0,1.262619563
368,3_9_1,9,1.0,1823.05782579,3_D,test,04,4,27.0,10011,ignore,0.0,2900.0,8.34824531891
369,3_9_1,9,1.0,1834.76156036,3_D,test,04,4,28.0,01001,ignore,1.0,3000.0,9.95232265644
370,3_9_1,9,1.0,1842.74638453,3_D,test,04,4,29.0,11111,ignore,0.0,2900.0,6.2101547283
371,3_9_1,9,1.0,1850.32492173,3_D,test,04,4,30.0,00101,ignore,1.0,3000.0,5.82949642341
372,3_9_1,9,1.0,1852.66875353,3_D,test,04,4,31.0,01101,ignore,1.0,3100.0,0.600426502693
373,3_9_1,9,1.0,1855.76266591,3_D,test,04,4,32.0,10000,kill,1.0,3200.0,1.31116832167
374,3_9_1,9,1.0,1859.20039437,3_D,test,04,4,33.0,11100,kill,1.0,3300.0,1.67397945487
375,3_9_1,9,1.0,1873.20109483,3_D,test,04,4,34.0,11001,ignore,0.0,3200.0,12.220366995
376,3_9_1,9,1.0,1881.79529122,3_D,test,04,4,35.0,00111,ignore,1.0,3300.0,6.83485416706
377,3_9_1,9,1.0,1891.79955143,3_D,test,04,4,36.0,11011,kill,1.0,3400.0,8.2268546597
378,3_9_1,9,1.0,1902.90951683,3_D,test,04,4,37.0,01110,kill,0.0,3300.0,9.32269813469
379,3_9_1,9,1.0,1928.00461366,3_D,test,04,4,38.0,00000,ignore,1.0,3400.0,23.3345627866
380,3_9_1,9,1.0,1930.33286518,3_D,test,04,4,39.0,01100,ignore,1.0,3500.0,0.5500540906
381,3_9_1,9,1.0,1932.50485821,3_D,test,04,4,40.0,00011,ignore,1.0,3600.0,0.440691012622
382,3_9_1,9,1.0,1934.64560506,3_D,test,04,4,41.0,01010,ignore,1.0,3700.0,0.366817974949
383,3_9_1,9,1.0,1936.80196298,3_D,test,04,4,42.0,00100,ignore,1.0,3800.0,0.366552733763
384,3_9_1,9,1.0,1939.72396186,3_D,test,04,4,43.0,11101,kill,1.0,3900.0,1.18484199547
385,3_9_1,9,1.0,1942.53666951,3_D,test,04,4,44.0,11111,kill,1.0,4000.0,1.03226609304
386,3_9_1,9,1.0,1945.44302238,3_D,test,04,4,45.0,01110,ignore,1.0,4100.0,1.1830760729
387,3_9_1,9,1.0,1951.08394867,3_D,test,04,4,46.0,01100,ignore,1.0,4200.0,3.8956498842
388,3_9_1,9,1.0,1953.24167545,3_D,test,04,4,47.0,00000,ignore,1.0,4300.0,0.376080248448
389,3_9_1,9,1.0,1955.58552296,3_D,test,04,5,0.0,00011,ignore,1.0,4400.0,0.609659269314
390,3_9_1,9,1.0,1958.08577714,3_D,test,04,5,1.0,00100,ignore,1.0,4500.0,0.761775249308
391,3_9_1,9,1.0,1961.07024241,3_D,test,04,5,2.0,10101,kill,1.0,4600.0,1.26016568113
392,3_9_1,9,1.0,1963.85440664,3_D,test,04,5,3.0,01101,ignore,1.0,4700.0,1.02573448876
393,3_9_1,9,1.0,1966.69827901,3_D,test,04,5,4.0,01011,ignore,1.0,4800.0,1.06336666435
394,3_9_1,9,1.0,1969.22966808,3_D,test,04,5,5.0,01000,ignore,0.0,4700.0,0.805409508977
395,3_9_1,9,1.0,1994.71537183,3_D,test,04,5,6.0,11100,ignore,0.0,4600.0,23.7576074026
396,3_9_1,9,1.0,2004.63779697,3_D,test,04,5,7.0,00110,ignore,1.0,4700.0,8.14843082738
397,3_9_1,9,1.0,2011.79441242,3_D,test,04,5,8.0,01111,ignore,1.0,4800.0,5.38425429542
398,3_9_1,9,1.0,2015.31024206,3_D,test,04,5,9.0,10001,kill,1.0,4900.0,1.73167117662
399,3_9_1,9,1.0,2020.2667223,3_D,test,04,5,10.0,10010,ignore,1.0,5000.0,3.24616755353
400,3_9_1,9,1.0,2022.45122657,3_D,test,04,5,11.0,10110,ignore,1.0,5100.0,0.42595296796
401,3_9_1,9,1.0,2025.04512853,3_D,test,04,5,12.0,11000,kill,1.0,5200.0,0.833644064291
402,3_9_1,9,1.0,2027.39525427,3_D,test,04,5,13.0,01010,ignore,1.0,5300.0,0.625098102355
403,3_9_1,9,1.0,2029.8172639,3_D,test,04,5,14.0,11110,ignore,1.0,5400.0,0.672096146242
404,3_9_1,9,1.0,2032.37985969,3_D,test,04,5,15.0,10000,kill,1.0,5500.0,0.846242860218
405,3_9_1,9,1.0,2035.39567955,3_D,test,04,5,16.0,00101,kill,0.0,5400.0,1.22717795246
406,3_9_1,9,1.0,2068.6942789,3_D,test,04,5,17.0,00001,,,5300.0,
407,3_9_1,9,1.0,2078.92917098,3_D,test,04,5,18.0,01001,ignore,0.0,5200.0,8.4830827761
408,3_9_1,9,1.0,2086.60149901,3_D,test,04,5,19.0,10100,ignore,0.0,5100.0,5.89655593783
409,3_9_1,9,1.0,2090.99858559,3_D,test,04,5,20.0,00111,ignore,1.0,5200.0,2.64903363367
410,3_9_1,9,1.0,2098.10831366,3_D,test,04,5,21.0,11011,ignore,1.0,5300.0,5.35711277754
411,3_9_1,9,1.0,2100.6084559,3_D,test,04,5,22.0,10011,ignore,1.0,5400.0,0.713880773606
412,3_9_1,9,1.0,2103.40860677,3_D,test,04,5,23.0,11001,kill,1.0,5500.0,1.08613058013
413,3_9_1,9,1.0,2105.674398,3_D,test,04,5,24.0,10111,ignore,1.0,5600.0,0.514817424581
414,3_9_1,9,1.0,2107.95573551,3_D,test,04,5,25.0,11010,ignore,1.0,5700.0,0.509847119085
415,3_9_1,9,1.0,2110.19019846,3_D,test,04,5,26.0,00010,ignore,1.0,5800.0,0.472982122359
416,3_9_1,9,1.0,2112.30975648,3_D,test,04,5,27.0,00110,ignore,1.0,5900.0,0.357304892977
417,3_9_1,9,1.0,2115.2786511,3_D,test,04,5,28.0,11001,kill,1.0,6000.0,1.21602659724
418,3_9_1,9,1.0,2117.98190459,3_D,test,04,5,29.0,11011,ignore,1.0,6100.0,0.925763899424
419,3_9_1,9,1.0,2120.23203889,3_D,test,04,6,0.0,11111,ignore,1.0,6200.0,0.471498118775
420,3_9_1,9,1.0,2122.36031652,3_D,test,04,6,1.0,11110,ignore,1.0,6300.0,0.421623474902
421,3_9_1,9,1.0,2126.07922469,3_D,test,04,6,2.0,11101,kill,0.0,6200.0,1.94910672734
422,3_9_1,9,1.0,2131.53265882,3_D,test,04,6,3.0,01001,ignore,1.0,6300.0,3.71853837033
423,3_9_1,9,1.0,2140.73625404,3_D,test,04,6,4.0,01111,ignore,1.0,6400.0,7.4222245172
424,3_9_1,9,1.0,2154.26819316,3_D,test,04,6,5.0,10000,kill,1.0,6500.0,11.7673587847
425,3_9_1,9,1.0,2164.56562603,3_D,test,04,6,6.0,00111,kill,1.0,6600.0,8.54415239405
426,3_9_1,9,1.0,2166.97199669,3_D,test,04,6,7.0,01010,ignore,1.0,6700.0,0.635426472225
427,3_9_1,9,1.0,2169.44086485,3_D,test,04,6,8.0,10010,kill,1.0,6800.0,0.722015371159
428,3_9_1,9,1.0,2171.8003741,3_D,test,04,6,9.0,10100,kill,1.0,6900.0,0.604705000165
429,3_9_1,9,1.0,2174.23798196,3_D,test,04,6,10.0,10011,kill,1.0,7000.0,0.651454159941
430,3_9_1,9,1.0,2176.83189835,3_D,test,04,6,11.0,01100,ignore,1.0,7100.0,0.849287841851
431,3_9_1,9,1.0,2179.44140495,3_D,test,04,6,12.0,01000,ignore,1.0,7200.0,0.838609558883
432,3_9_1,9,1.0,2181.81654643,3_D,test,04,7,0.0,01101,ignore,1.0,7300.0,0.621396592662
433,3_9_1,9,1.0,2184.00413257,3_D,test,04,7,1.0,01011,ignore,1.0,7400.0,0.435760797995
434,3_9_1,9,1.0,2186.22456146,3_D,test,04,7,2.0,11000,ignore,0.0,7300.0,0.450079331811
435,3_9_1,9,1.0,2194.8031301,3_D,test,04,7,3.0,00100,ignore,1.0,7400.0,6.83206320117
436,3_9_1,9,1.0,2213.31971762,3_D,test,04,7,4.0,01110,ignore,1.0,7500.0,16.7790265103
437,3_9_1,9,1.0,2220.7576337,3_D,test,04,7,5.0,10101,kill,0.0,7400.0,5.66166450229
438,3_9_1,9,1.0,2232.69575104,3_D,test,04,7,6.0,00001,kill,0.0,7300.0,10.1581940764
