"","unique_id","pair_id","sbj_id","wall_time","condition","block","rule_id","rule_num","trial","stimulus","choice","correct","points","reaction_time"
"0","1_14_1",14,"1.0","106.533026585","1_I","training","03","1_A","1.0","10011","ignore","1.0","100.0","3.30854302219"
"1","1_14_1",14,"1.0","112.563253555","1_I","training","03","1_A","2.0","01101","ignore","0.0","0.0","3.85872199308"
"2","1_14_1",14,"1.0","119.004211225","1_I","training","03","1_A","3.0","11101","kill","0.0","0.0","4.30761358052"
"3","1_14_1",14,"1.0","123.021578318","1_I","training","03","1_A","4.0","00001","ignore","1.0","100.0","1.87438497359"
"4","1_14_1",14,"1.0","129.383914009","1_I","training","03","1_A","5.0","10110","kill","0.0","0.0","4.2272098974"
"5","1_14_1",14,"1.0","133.932691838","1_I","training","03","1_A","6.0","10101","ignore","1.0","100.0","2.40482069863"
"6","1_14_1",14,"1.0","139.245467843","1_I","training","03","1_A","7.0","00000","ignore","1.0","200.0","3.15243623328"
"7","1_14_1",14,"1.0","143.026946008","1_I","training","03","1_A","8.0","00010","ignore","1.0","300.0","1.63503814447"
"8","1_14_1",14,"1.0","147.261539302","1_I","training","03","1_A","9.0","10001","ignore","1.0","400.0","2.08546429593"
"9","1_14_1",14,"1.0","152.527451166","1_I","training","03","1_A","10.0","01110","kill","1.0","500.0","3.15072719368"
"10","1_14_1",14,"1.0","156.402667054","1_I","training","03","1_A","11.0","00101","ignore","1.0","600.0","1.70771317529"
"11","1_14_1",14,"1.0","159.668438928","1_I","training","03","1_A","12.0","10000","ignore","1.0","700.0","1.13523129919"
"12","1_14_1",14,"1.0","165.70002886","1_I","training","03","1_A","13.0","11100","ignore","0.0","600.0","3.90942213278"
"13","1_14_1",14,"1.0","169.793938595","1_I","training","03","1_A","14.0","10111","ignore","1.0","700.0","1.96097001853"
"14","1_14_1",14,"1.0","173.075378376","1_I","training","03","1_A","15.0","11111","ignore","1.0","800.0","1.16758522927"
"15","1_14_1",14,"1.0","177.810016622","1_I","training","03","1_A","16.0","11110","ignore","0.0","700.0","2.61412119115"
"16","1_14_1",14,"1.0","181.232091108","1_I","training","03","1_A","17.0","11000","ignore","0.0","600.0","1.29530217323"
"17","1_14_1",14,"1.0","185.357320236","1_I","training","03","1_A","18.0","10100","kill","0.0","500.0","2.00489065308"
"18","1_14_1",14,"1.0","188.216846459","1_I","training","03","1_A","19.0","01011","ignore","0.0","400.0","0.747655766664"
"19","1_14_1",14,"1.0","191.216960997","1_I","training","03","1_A","20.0","01001","ignore","0.0","300.0","0.874533585728"
"20","1_14_1",14,"1.0","196.920377967","1_I","training","03","1_A","21.0","11010","ignore","0.0","200.0","3.58743258572"
"21","1_14_1",14,"1.0","200.873760146","1_I","training","03","1_A","22.0","10010","kill","0.0","100.0","1.81924658572"
"22","1_14_1",14,"1.0","208.983563169","1_I","training","03","1_A","23.0","00011","ignore","1.0","200.0","5.99873104939"
"23","1_14_1",14,"1.0","216.68709632","1_I","training","03","1_A","24.0","00111","kill","0.0","100.0","5.56238405072"
"24","1_14_1",14,"1.0","219.577887335","1_I","training","03","1_A","25.0","11011","ignore","1.0","200.0","0.781429312143"
"25","1_14_1",14,"1.0","223.453042054","1_I","training","03","1_A","26.0","01100","ignore","0.0","100.0","1.79662018227"
"26","1_14_1",14,"1.0","226.750103762","1_I","training","03","1_A","27.0","01111","ignore","0.0","0.0","1.18579678481"
"27","1_14_1",14,"1.0","229.562760507","1_I","training","03","1_A","28.0","00110","ignore","1.0","100.0","0.710321277276"
"28","1_14_1",14,"1.0","233.469219019","1_I","training","03","1_A","29.0","01000","ignore","0.0","0.0","1.7762989091"
"29","1_14_1",14,"1.0","238.891388748","1_I","training","03","1_A","30.0","01010","ignore","0.0","0.0","3.30704540593"
"30","1_14_1",14,"1.0","242.360328605","1_I","training","03","1_A","31.0","00100","ignore","1.0","100.0","1.34958994134"
"31","1_14_1",14,"1.0","245.547984684","1_I","training","03","1_A","32.0","11001","ignore","1.0","200.0","1.07823443852"
"32","1_14_1",14,"1.0","248.798178557","1_I","training","03","1_A","33.0","11001","ignore","1.0","300.0","1.11116557486"
"33","1_14_1",14,"1.0","252.329578619","1_I","training","03","1_A","34.0","11101","ignore","1.0","400.0","1.42450893335"
"34","1_14_1",14,"1.0","259.798739753","1_I","training","03","1_A","35.0","10111","ignore","1.0","500.0","5.33132624839"
"35","1_14_1",14,"1.0","264.689645716","1_I","training","03","1_A","36.0","10100","kill","0.0","400.0","2.75825279746"
"36","1_14_1",14,"1.0","269.158635248","1_I","training","03","1_A","37.0","00010","kill","0.0","300.0","2.32131668713"
"37","1_14_1",14,"1.0","271.877515271","1_I","training","03","1_A","38.0","01110","ignore","0.0","200.0","0.593783496745"
"38","1_14_1",14,"1.0","274.283850828","1_I","training","03","1_A","39.0","00110","ignore","1.0","300.0","0.257516921052"
"39","1_14_1",14,"1.0","277.518413331","1_I","training","03","1_A","40.0","01001","ignore","0.0","200.0","1.08694549096"
"40","1_14_1",14,"1.0","280.721729517","1_I","training","03","1_A","41.0","00000","ignore","1.0","300.0","1.0802407024"
"41","1_14_1",14,"1.0","294.894357706","1_I","training","03","1_A","42.0","00011","ignore","1.0","400.0","12.0513011568"
"42","1_14_1",14,"1.0","302.504146156","1_I","training","03","1_A","43.0","00100","ignore","1.0","500.0","5.44338719087"
"43","1_14_1",14,"1.0","307.004368868","1_I","training","03","1_A","44.0","01101","ignore","0.0","400.0","2.37654867602"
"44","1_14_1",14,"1.0","311.17647322","1_I","training","03","1_A","45.0","10011","ignore","1.0","500.0","2.06759471253"
"45","1_14_1",14,"1.0","315.036036802","1_I","training","03","1_A","46.0","00001","ignore","1.0","600.0","1.74872766251"
"46","1_14_1",14,"1.0","319.348754922","1_I","training","03","1_A","47.0","10001","ignore","1.0","700.0","2.18870580585"
"47","1_14_1",14,"1.0","322.36457883","1_I","training","03","1_A","48.0","10000","ignore","1.0","800.0","0.88403778361"
"48","1_14_1",14,"1.0","329.474281684","1_I","training","03","1_A","49.0","11000","kill","1.0","900.0","5.0174479683"
"49","1_14_1",14,"1.0","333.193242171","1_I","training","03","1_A","50.0","10010","ignore","1.0","1000.0","1.59786335155"
"50","1_14_1",14,"1.0","339.990508529","1_I","training","03","1_A","51.0","00111","ignore","1.0","1100.0","4.65736650258"
"51","1_14_1",14,"1.0","344.7094957","1_I","training","03","1_A","52.0","11100","ignore","0.0","1000.0","2.60013769202"
"52","1_14_1",14,"1.0","348.256553405","1_I","training","03","1_A","53.0","11010","ignore","0.0","900.0","1.44532407504"
"53","1_14_1",14,"1.0","352.303665506","1_I","training","03","1_A","54.0","10101","ignore","1.0","1000.0","1.92776628976"
"54","1_14_1",14,"1.0","356.507000987","1_I","training","03","1_A","55.0","11011","ignore","1.0","1100.0","2.0861855985"
"55","1_14_1",14,"1.0","360.022772552","1_I","training","03","1_A","56.0","01100","ignore","0.0","1000.0","1.38151199304"
"56","1_14_1",14,"1.0","381.570782689","1_I","training","03","1_A","57.0","01011","ignore","0.0","900.0","19.4192570132"
"57","1_14_1",14,"1.0","400.44684386","1_I","training","03","1_A","58.0","11111","ignore","1.0","1000.0","16.7373091596"
"58","1_14_1",14,"1.0","406.493987982","1_I","training","03","1_A","59.0","01010","ignore","0.0","900.0","3.95216947039"
"59","1_14_1",14,"1.0","416.588288542","1_I","training","03","1_A","60.0","01000","ignore","0.0","800.0","7.95191042547"
"60","1_14_1",14,"1.0","434.229837705","1_I","training","03","1_A","61.0","01111","ignore","0.0","700.0","15.4977911392"
"61","1_14_1",14,"1.0","445.121030629","1_I","training","03","1_A","62.0","11110","ignore","0.0","600.0","8.77974531492"
"62","1_14_1",14,"1.0","451.699523907","1_I","training","03","1_A","63.0","00101","ignore","1.0","700.0","4.44101268089"
"63","1_14_1",14,"1.0","456.340426895","1_I","training","03","1_A","64.0","10110","ignore","1.0","800.0","2.50168338143"
"64","1_14_1",14,"1.0","459.465555031","1_I","training","03","1_A","65.0","10101","ignore","1.0","900.0","0.99719976961"
"65","1_14_1",14,"1.0","464.981499431","1_I","training","03","1_A","66.0","11100","kill","1.0","1000.0","3.39315669836"
"66","1_14_1",14,"1.0","468.872334783","1_I","training","03","1_A","67.0","10110","ignore","1.0","1100.0","1.76387378478"
"67","1_14_1",14,"1.0","475.77892918","1_I","training","03","1_A","68.0","01011","kill","1.0","1200.0","4.79249024271"
"68","1_14_1",14,"1.0","483.73249815","1_I","training","03","1_A","69.0","10100","ignore","1.0","1300.0","5.8069762315"
"69","1_14_1",14,"1.0","489.264011107","1_I","training","03","1_A","70.0","11001","ignore","1.0","1400.0","3.41053857121"
"70","1_14_1",14,"1.0","493.029835324","1_I","training","03","1_A","71.0","00101","ignore","1.0","1500.0","1.63300191184"
"71","1_14_1",14,"1.0","498.514539563","1_I","training","03","1_A","72.0","01100","ignore","0.0","1400.0","3.37298814264"
"72","1_14_1",14,"1.0","532.203805949","1_I","training","03","1_A","73.0","01000","","","1300.0",""
"73","1_14_1",14,"1.0","540.938635502","1_I","training","03","1_A","74.0","00110","ignore","1.0","1400.0","6.59141719738"
"74","1_14_1",14,"1.0","545.438866837","1_I","training","03","1_A","75.0","00111","ignore","1.0","1500.0","2.37622312512"
"75","1_14_1",14,"1.0","549.798490971","1_I","training","03","1_A","76.0","10111","ignore","1.0","1600.0","2.20096302308"
"76","1_14_1",14,"1.0","553.673666216","1_I","training","03","1_A","77.0","11111","kill","0.0","1500.0","1.78346882901"
"77","1_14_1",14,"1.0","560.236524841","1_I","training","03","1_A","78.0","00011","ignore","1.0","1600.0","4.41745970948"
"78","1_14_1",14,"1.0","566.346213326","1_I","training","03","1_A","79.0","10000","ignore","1.0","1700.0","3.96768671247"
"79","1_14_1",14,"1.0","572.237192774","1_I","training","03","1_A","80.0","11101","ignore","1.0","1800.0","3.75260266246"
"80","1_14_1",14,"1.0","579.175071258","1_I","training","03","1_A","81.0","01111","ignore","0.0","1700.0","4.83085803805"
"81","1_14_1",14,"1.0","588.425545113","1_I","training","03","1_A","82.0","00001","ignore","1.0","1800.0","7.09547344666"
"82","1_14_1",14,"1.0","593.269496209","1_I","training","03","1_A","83.0","11011","kill","0.0","1700.0","2.72657829581"
"83","1_14_1",14,"1.0","602.551298899","1_I","training","03","1_A","84.0","01101","ignore","0.0","1600.0","7.16198723167"
"84","1_14_1",14,"1.0","611.348592762","1_I","training","03","1_A","85.0","11110","kill","1.0","1700.0","6.70193823893"
"85","1_14_1",14,"1.0","615.067545449","1_I","training","03","1_A","86.0","11010","kill","1.0","1800.0","1.60903430436"
"86","1_14_1",14,"1.0","618.583380236","1_I","training","03","1_A","87.0","10010","ignore","1.0","1900.0","1.39494373881"
"87","1_14_1",14,"1.0","623.2711371","1_I","training","03","1_A","88.0","01010","ignore","0.0","1800.0","2.57249460255"
"88","1_14_1",14,"1.0","633.568549812","1_I","training","03","1_A","89.0","01001","ignore","0.0","1700.0","8.16765337738"
"89","1_14_1",14,"1.0","640.537631919","1_I","training","03","1_A","90.0","01110","kill","1.0","1800.0","4.87871237845"
"90","1_14_1",14,"1.0","645.131617397","1_I","training","03","1_A","91.0","11000","ignore","0.0","1700.0","2.46825262914"
"91","1_14_1",14,"1.0","650.616322868","1_I","training","03","1_A","92.0","00100","ignore","1.0","1800.0","3.36933770302"
"92","1_14_1",14,"1.0","656.819793823","1_I","training","03","1_A","93.0","10001","ignore","1.0","1900.0","3.96835054073"
"93","1_14_1",14,"1.0","661.054392864","1_I","training","03","1_A","94.0","00000","ignore","1.0","2000.0","2.09286986051"
"94","1_14_1",14,"1.0","668.00787357","1_I","training","03","1_A","95.0","00010","ignore","1.0","2100.0","4.83932687733"
"95","1_14_1",14,"1.0","671.648690756","1_I","training","03","1_A","96.0","10011","ignore","1.0","2200.0","1.5064151591"
"96","1_14_1",14,"1.0","675.820780329","1_I","training","03","1_A","97.0","00101","ignore","1.0","2300.0","2.00215610761"
"97","1_14_1",14,"1.0","678.758421936","1_I","training","03","1_A","98.0","00011","ignore","1.0","2400.0","0.807245950216"
"98","1_14_1",14,"1.0","681.571081556","1_I","training","03","1_A","99.0","00111","ignore","1.0","2500.0","0.691856424252"
"99","1_14_1",14,"1.0","686.383848324","1_I","training","03","1_A","100.0","01010","kill","1.0","2600.0","2.71447584868"
"100","1_14_1",14,"1.0","689.555867285","1_I","training","03","1_A","101.0","10100","ignore","1.0","2700.0","1.01082446484"
"101","1_14_1",14,"1.0","695.337425504","1_I","training","03","1_A","102.0","01110","kill","1.0","2800.0","3.6595948636"
"102","1_14_1",14,"1.0","698.540730605","1_I","training","03","1_A","103.0","10110","ignore","1.0","2900.0","1.05263168698"
"103","1_14_1",14,"1.0","706.822389199","1_I","training","03","1_A","104.0","01001","kill","1.0","3000.0","6.16133982465"
"104","1_14_1",14,"1.0","711.213264988","1_I","training","03","1_A","105.0","11001","ignore","1.0","3100.0","2.27506259568"
"105","1_14_1",14,"1.0","715.979204153","1_I","training","03","1_A","106.0","00010","ignore","1.0","3200.0","2.63255279118"
"106","1_14_1",14,"1.0","722.713845273","1_I","training","03","1_A","107.0","11000","kill","1.0","3300.0","4.61246182577"
"107","1_14_1",14,"1.0","727.479740922","1_I","training","03","1_A","108.0","10001","ignore","1.0","3400.0","2.64840748956"
"108","1_14_1",14,"1.0","730.698653172","1_I","training","03","1_A","109.0","10010","ignore","1.0","3500.0","1.08602877574"
"109","1_14_1",14,"1.0","734.511375192","1_I","training","03","1_A","110.0","11110","kill","1.0","3600.0","1.69710218645"
"110","1_14_1",14,"1.0","741.871159023","1_I","training","03","1_A","111.0","01000","kill","1.0","3700.0","5.22807981211"
"111","1_14_1",14,"1.0","745.730750931","1_I","training","03","1_A","112.0","10000","ignore","1.0","3800.0","1.72065515785"
"112","1_14_1",14,"1.0","748.808998096","1_I","training","03","1_A","113.0","00110","ignore","1.0","3900.0","0.955935269149"
"113","1_14_1",14,"1.0","756.106260143","1_I","training","03","1_A","114.0","01100","kill","1.0","4000.0","5.16301930603"
"114","1_14_1",14,"1.0","761.903445626","1_I","training","03","1_A","115.0","01101","ignore","0.0","3900.0","3.67121698973"
"115","1_14_1",14,"1.0","770.403965974","1_I","training","03","1_A","116.0","01111","kill","1.0","4000.0","6.26663316736"
"116","1_14_1",14,"1.0","773.638456634","1_I","training","03","1_A","117.0","10111","ignore","1.0","4100.0","1.11139916687"
"117","1_14_1",14,"1.0","781.263871937","1_I","training","03","1_A","118.0","11101","ignore","1.0","4200.0","5.51208376798"
"118","1_14_1",14,"1.0","789.264257015","1_I","training","03","1_A","119.0","01011","kill","1.0","4300.0","5.87175962931"
"119","1_14_1",14,"1.0","792.201948297","1_I","training","03","1_A","120.0","10011","ignore","1.0","4400.0","0.8170063193"
"120","1_14_1",14,"1.0","796.311524297","1_I","training","03","1_A","121.0","10101","ignore","1.0","4500.0","1.97537964859"
"121","1_14_1",14,"1.0","799.452312951","1_I","training","03","1_A","122.0","00100","ignore","1.0","4600.0","0.985867478204"
"122","1_14_1",14,"1.0","802.124299275","1_I","training","03","1_A","123.0","00000","ignore","1.0","4700.0","0.564007699915"
"123","1_14_1",14,"1.0","804.84324252","1_I","training","03","1_A","124.0","00001","ignore","1.0","4800.0","0.596644075158"
"124","1_14_1",14,"1.0","808.874718325","1_I","training","03","1_A","125.0","11111","ignore","1.0","4900.0","1.91230775357"
"125","1_14_1",14,"1.0","812.812387848","1_I","training","03","1_A","126.0","11011","ignore","1.0","5000.0","1.84182044123"
"126","1_14_1",14,"1.0","823.23480718","1_I","training","03","1_A","127.0","11100","kill","1.0","5100.0","8.28602705151"
"127","1_14_1",14,"1.0","831.750920718","1_I","training","03","1_A","128.0","11010","kill","1.0","5200.0","6.43199085666"
"128","1_14_1",14,"1.0","838.173109331","1_I","training","03","1_A","129.0","01000","kill","1.0","5300.0","4.30140799739"
"129","1_14_1",14,"1.0","848.142395472","1_I","training","03","1_A","130.0","01010","kill","1.0","5400.0","7.85122980651"
"130","1_14_1",14,"1.0","953.250711963","1_I","test","03","2","0.0","00111","ignore","0.0","0.0","4.51083205966"
"131","1_14_1",14,"1.0","956.891529149","1_I","test","03","2","1.0","10011","kill","1.0","100.0","1.52535048038"
"132","1_14_1",14,"1.0","960.32920791","1_I","test","03","2","2.0","10110","kill","0.0","0.0","1.29930443771"
"133","1_14_1",14,"1.0","965.735733953","1_I","test","03","2","3.0","10101","kill","0.0","0.0","3.28406389337"
"134","1_14_1",14,"1.0","969.876607177","1_I","test","03","2","4.0","00010","ignore","1.0","100.0","1.99679416521"
"135","1_14_1",14,"1.0","989.424497438","1_I","test","03","2","5.0","00100","ignore","1.0","200.0","17.4332437966"
"136","1_14_1",14,"1.0","993.487231467","1_I","test","03","2","6.0","11011","ignore","0.0","100.0","1.95805607111"
"137","1_14_1",14,"1.0","996.612396141","1_I","test","03","2","7.0","01101","ignore","1.0","200.0","1.00045733128"
"138","1_14_1",14,"1.0","1000.09698707","1_I","test","03","2","8.0","00110","ignore","1.0","300.0","1.35160770008"
"139","1_14_1",14,"1.0","1002.95647306","1_I","test","03","2","9.0","11100","ignore","1.0","400.0","0.754600715719"
"140","1_14_1",14,"1.0","1005.65971802","1_I","test","03","2","10.0","00001","ignore","0.0","300.0","0.593352439435"
"141","1_14_1",14,"1.0","1008.31614605","1_I","test","03","2","11.0","10010","ignore","1.0","400.0","0.513789523337"
"142","1_14_1",14,"1.0","1012.03506877","1_I","test","03","2","12.0","01011","kill","1.0","500.0","1.6105130362"
"143","1_14_1",14,"1.0","1015.51964862","1_I","test","03","2","13.0","11110","ignore","1.0","600.0","1.29073419734"
"144","1_14_1",14,"1.0","1018.84797266","1_I","test","03","2","14.0","01111","kill","1.0","700.0","1.21535048449"
"145","1_14_1",14,"1.0","1021.51999387","1_I","test","03","2","15.0","10001","ignore","0.0","600.0","0.558485650513"
"146","1_14_1",14,"1.0","1024.92637295","1_I","test","03","2","16.0","11001","ignore","0.0","500.0","1.27909482891"
"147","1_14_1",14,"1.0","1027.83278794","1_I","test","03","2","17.0","01100","ignore","1.0","600.0","0.75571900154"
"148","1_14_1",14,"1.0","1030.81731299","1_I","test","03","2","18.0","10000","ignore","1.0","700.0","0.871727607907"
"149","1_14_1",14,"1.0","1034.20815142","1_I","test","03","2","19.0","11101","ignore","1.0","800.0","1.25435008668"
"150","1_14_1",14,"1.0","1037.14580165","1_I","test","03","2","20.0","10100","ignore","1.0","900.0","0.830977913034"
"151","1_14_1",14,"1.0","1041.00536523","1_I","test","03","2","21.0","00011","ignore","0.0","800.0","1.7353767913"
"152","1_14_1",14,"1.0","1044.72430026","1_I","test","03","2","22.0","11111","kill","1.0","900.0","1.62181043249"
"153","1_14_1",14,"1.0","1048.81826336","1_I","test","03","2","23.0","11000","ignore","1.0","1000.0","1.98287306676"
"154","1_14_1",14,"1.0","1052.06842686","1_I","test","03","2","24.0","00000","ignore","1.0","1100.0","1.13087351506"
"155","1_14_1",14,"1.0","1055.9905582","1_I","test","03","2","25.0","10111","kill","1.0","1200.0","1.78914564852"
"156","1_14_1",14,"1.0","1059.53756131","1_I","test","03","2","26.0","11010","ignore","1.0","1300.0","1.44877294405"
"157","1_14_1",14,"1.0","1062.88156926","1_I","test","03","2","27.0","00101","ignore","1.0","1400.0","1.19947279638"
"158","1_14_1",14,"1.0","1066.35047258","1_I","test","03","2","28.0","01110","ignore","1.0","1500.0","1.39185695794"
"159","1_14_1",14,"1.0","1070.49130434","1_I","test","03","2","29.0","01001","kill","1.0","1600.0","1.99307106165"
"160","1_14_1",14,"1.0","1073.33516882","1_I","test","03","2","30.0","01000","ignore","1.0","1700.0","0.733375864321"
"161","1_14_1",14,"1.0","1076.08536782","1_I","test","03","2","31.0","00010","ignore","1.0","1800.0","0.638045282365"
"162","1_14_1",14,"1.0","1079.05427176","1_I","test","03","3","0.0","11001","ignore","0.0","1700.0","0.841402110374"
"163","1_14_1",14,"1.0","1081.71065832","1_I","test","03","3","1.0","11010","ignore","0.0","1600.0","0.559576430772"
"164","1_14_1",14,"1.0","1084.86706685","1_I","test","03","3","2.0","10001","ignore","1.0","1700.0","1.0133574397"
"165","1_14_1",14,"1.0","1087.88283862","1_I","test","03","3","3.0","01101","ignore","1.0","1800.0","0.89649533986"
"166","1_14_1",14,"1.0","1090.4923278","1_I","test","03","3","4.0","01100","ignore","1.0","1900.0","0.525020824173"
"167","1_14_1",14,"1.0","1092.94563505","1_I","test","03","3","5.0","10100","ignore","0.0","1800.0","0.347208041805"
"168","1_14_1",14,"1.0","1096.24265407","1_I","test","03","3","6.0","10111","ignore","1.0","1900.0","1.1680392763"
"169","1_14_1",14,"1.0","1101.53978885","1_I","test","03","3","7.0","00100","kill","0.0","1800.0","3.1580678944"
"170","1_14_1",14,"1.0","1104.69622529","1_I","test","03","3","8.0","11000","kill","1.0","1900.0","1.03299312648"
"171","1_14_1",14,"1.0","1107.9464479","1_I","test","03","3","9.0","11100","kill","1.0","2000.0","1.15840904547"
"172","1_14_1",14,"1.0","1111.11846728","1_I","test","03","3","10.0","00111","ignore","1.0","2100.0","1.00975051634"
"173","1_14_1",14,"1.0","1113.9155025","1_I","test","03","3","11.0","00000","ignore","1.0","2200.0","0.649124686816"
"174","1_14_1",14,"1.0","1118.61882793","1_I","test","03","3","12.0","10010","kill","1.0","2300.0","2.57767796406"
"175","1_14_1",14,"1.0","1121.91591139","1_I","test","03","3","13.0","01110","kill","0.0","2200.0","1.17757221134"
"176","1_14_1",14,"1.0","1124.71294046","1_I","test","03","3","14.0","00110","ignore","1.0","2300.0","0.694464115711"
"177","1_14_1",14,"1.0","1127.79121883","1_I","test","03","3","15.0","10101","ignore","1.0","2400.0","0.918870498479"
"178","1_14_1",14,"1.0","1132.11956175","1_I","test","03","3","16.0","01111","ignore","1.0","2500.0","2.21208963857"
"179","1_14_1",14,"1.0","1134.94781497","1_I","test","03","3","17.0","10011","ignore","1.0","2600.0","0.703149304705"
"180","1_14_1",14,"1.0","1137.68233047","1_I","test","03","3","18.0","00101","ignore","1.0","2700.0","0.595371019237"
"181","1_14_1",14,"1.0","1140.51062762","1_I","test","03","3","19.0","00011","ignore","1.0","2800.0","0.717798274211"
"182","1_14_1",14,"1.0","1143.07326866","1_I","test","03","3","20.0","01001","ignore","1.0","2900.0","0.467331398091"
"183","1_14_1",14,"1.0","1146.21404664","1_I","test","03","3","21.0","11111","ignore","0.0","2800.0","0.995855281335"
"184","1_14_1",14,"1.0","1148.85481538","1_I","test","03","3","22.0","00001","ignore","1.0","2900.0","0.529829371096"
"185","1_14_1",14,"1.0","1152.38627292","1_I","test","03","3","23.0","11101","ignore","0.0","2800.0","1.39828094345"
"186","1_14_1",14,"1.0","1155.18326135","1_I","test","03","3","24.0","11011","ignore","0.0","2700.0","0.710292129591"
"187","1_14_1",14,"1.0","1157.91781872","1_I","test","03","3","25.0","10000","ignore","0.0","2600.0","0.607084283199"
"188","1_14_1",14,"1.0","1161.91804123","1_I","test","03","3","26.0","10110","ignore","0.0","2500.0","1.89381621605"
"189","1_14_1",14,"1.0","1165.55884979","1_I","test","03","3","27.0","01010","kill","0.0","2400.0","1.5543429845"
"190","1_14_1",14,"1.0","1169.01212995","1_I","test","03","3","28.0","11110","kill","1.0","2500.0","1.33786354039"
"191","1_14_1",14,"1.0","1172.54360268","1_I","test","03","3","29.0","01011","ignore","1.0","2600.0","1.40612290224"
"192","1_14_1",14,"1.0","1176.3406806","1_I","test","03","3","30.0","11110","kill","1.0","2700.0","1.70482796503"
"193","1_14_1",14,"1.0","1179.55959532","1_I","test","03","3","31.0","01001","ignore","1.0","2800.0","1.02549888726"
"194","1_14_1",14,"1.0","1183.99730774","1_I","test","03","3","32.0","00110","ignore","1.0","2900.0","2.31825905395"
"195","1_14_1",14,"1.0","1187.23186491","1_I","test","03","3","33.0","11010","kill","1.0","3000.0","1.09154671984"
"196","1_14_1",14,"1.0","1191.2477352","1_I","test","03","3","34.0","11001","ignore","0.0","2900.0","1.87176537674"
"197","1_14_1",14,"1.0","1194.32601932","1_I","test","03","3","35.0","00111","ignore","1.0","3000.0","0.945061130084"
"198","1_14_1",14,"1.0","1198.26368515","1_I","test","03","3","36.0","01010","kill","0.0","2900.0","1.80485666113"
"199","1_14_1",14,"1.0","1202.06083614","1_I","test","03","3","37.0","00000","kill","0.0","2800.0","1.67432101289"
"200","1_14_1",14,"1.0","1206.06100528","1_I","test","03","3","38.0","01101","kill","0.0","2700.0","1.84659819835"
"201","1_14_1",14,"1.0","1209.54554818","1_I","test","03","3","39.0","01000","kill","0.0","2600.0","1.36622629031"
"202","1_14_1",14,"1.0","1214.74900231","1_I","test","03","3","40.0","10110","kill","1.0","2700.0","3.1115863689"
"203","1_14_1",14,"1.0","1218.13976069","1_I","test","03","3","41.0","00011","ignore","1.0","2800.0","1.25090203874"
"204","1_14_1",14,"1.0","1221.78058362","1_I","test","03","3","42.0","10111","ignore","1.0","2900.0","1.51661561717"
"205","1_14_1",14,"1.0","1224.49944722","1_I","test","03","3","43.0","10011","ignore","1.0","3000.0","0.56469698108"
"206","1_14_1",14,"1.0","1227.67148096","1_I","test","03","3","44.0","10001","ignore","1.0","3100.0","1.04728041838"
"207","1_14_1",14,"1.0","1233.42181914","1_I","test","03","3","45.0","10000","kill","1.0","3200.0","3.66444035829"
"208","1_14_1",14,"1.0","1238.37515985","1_I","test","03","3","46.0","11100","ignore","0.0","3100.0","2.86291843862"
"209","1_14_1",14,"1.0","1241.51597888","1_I","test","03","3","47.0","01110","kill","0.0","3000.0","1.01138524988"
"210","1_14_1",14,"1.0","1244.67239357","1_I","test","03","3","48.0","01100","kill","0.0","2900.0","1.04322642702"
"211","1_14_1",14,"1.0","1247.4850261","1_I","test","03","3","49.0","00101","ignore","1.0","3000.0","0.674313212809"
"212","1_14_1",14,"1.0","1250.46958398","1_I","test","03","3","50.0","01011","ignore","1.0","3100.0","0.8917676675"
"213","1_14_1",14,"1.0","1253.43853472","1_I","test","03","3","51.0","10010","ignore","0.0","3000.0","0.844981938699"
"214","1_14_1",14,"1.0","1256.68864197","1_I","test","03","3","52.0","10101","ignore","1.0","3100.0","1.03994012819"
"215","1_14_1",14,"1.0","1261.04827883","1_I","test","03","3","53.0","11000","kill","1.0","3200.0","2.25338082353"
"216","1_14_1",14,"1.0","1264.59533038","1_I","test","03","3","54.0","01111","ignore","1.0","3300.0","1.41815227489"
"217","1_14_1",14,"1.0","1267.48612837","1_I","test","03","3","55.0","00001","ignore","1.0","3400.0","0.794222682564"
"218","1_14_1",14,"1.0","1270.37688121","1_I","test","03","3","56.0","11101","ignore","0.0","3300.0","0.738729185577"
"219","1_14_1",14,"1.0","1274.78335881","1_I","test","03","3","57.0","10100","kill","1.0","3400.0","2.25801037904"
"220","1_14_1",14,"1.0","1277.72103408","1_I","test","03","3","58.0","11011","ignore","0.0","3300.0","0.867202327217"
"221","1_14_1",14,"1.0","1280.89308096","1_I","test","03","3","59.0","00010","ignore","1.0","3400.0","1.06278698667"
"222","1_14_1",14,"1.0","1284.58077337","1_I","test","03","3","60.0","11111","kill","1.0","3500.0","1.62341355515"
"223","1_14_1",14,"1.0","1287.58092485","1_I","test","03","3","61.0","00100","ignore","1.0","3600.0","0.868681880116"
"224","1_14_1",14,"1.0","1290.22171535","1_I","test","03","3","62.0","01100","ignore","1.0","3700.0","0.514683659357"
"225","1_14_1",14,"1.0","1295.53448438","1_I","test","03","3","63.0","10111","ignore","1.0","3800.0","3.20008243458"
"226","1_14_1",14,"1.0","1298.73778332","1_I","test","03","3","64.0","01001","kill","0.0","3700.0","1.09851917445"
"227","1_14_1",14,"1.0","1301.72230878","1_I","test","03","3","65.0","01000","ignore","1.0","3800.0","0.86239131711"
"228","1_14_1",14,"1.0","1305.59750291","1_I","test","03","3","66.0","00111","ignore","1.0","3900.0","1.74913819328"
"229","1_14_1",14,"1.0","1308.81639832","1_I","test","03","3","67.0","00010","ignore","1.0","4000.0","1.08438706319"
"230","1_14_1",14,"1.0","1312.73851899","1_I","test","03","3","68.0","10011","ignore","1.0","4100.0","1.83050374999"
"231","1_14_1",14,"1.0","1315.64488267","1_I","test","03","3","69.0","11010","ignore","0.0","4000.0","0.812926875027"
"232","1_14_1",14,"1.0","1319.00444523","1_I","test","03","3","70.0","01011","kill","0.0","3900.0","1.22116729498"
"233","1_14_1",14,"1.0","1322.12961565","1_I","test","03","3","71.0","01110","ignore","1.0","4000.0","1.02471436295"
"234","1_14_1",14,"1.0","1325.45793886","1_I","test","03","3","72.0","10010","ignore","0.0","3900.0","1.2125342434"
"235","1_14_1",14,"1.0","1328.36432717","1_I","test","03","3","73.0","11000","ignore","0.0","3800.0","0.821829234799"
"236","1_14_1",14,"1.0","1331.61446891","1_I","test","03","3","74.0","01010","ignore","1.0","3900.0","1.14371820183"
"237","1_14_1",14,"1.0","1334.69279777","1_I","test","03","3","75.0","11111","ignore","0.0","3800.0","0.945758621865"
"238","1_14_1",14,"1.0","1338.06800524","1_I","test","03","3","76.0","11101","kill","1.0","3900.0","1.28171976266"
"239","1_14_1",14,"1.0","1341.49003047","1_I","test","03","3","77.0","00000","ignore","1.0","4000.0","1.28932607679"
"240","1_14_1",14,"1.0","1345.13086079","1_I","test","03","3","78.0","01111","ignore","1.0","4100.0","1.54310922048"
"241","1_14_1",14,"1.0","1348.36539127","1_I","test","03","3","79.0","00100","ignore","1.0","4200.0","1.08173708706"
"242","1_14_1",14,"1.0","1352.08434888","1_I","test","03","3","80.0","10110","ignore","0.0","4100.0","1.59799307927"
"243","1_14_1",14,"1.0","1355.24075331","1_I","test","03","3","81.0","10100","kill","1.0","4200.0","1.03515662365"
"244","1_14_1",14,"1.0","1360.42852557","1_I","test","03","3","82.0","11001","kill","1.0","4300.0","3.07959740068"
"245","1_14_1",14,"1.0","1363.45998988","1_I","test","03","3","83.0","01101","ignore","1.0","4400.0","0.948393408355"
"246","1_14_1",14,"1.0","1366.53823704","1_I","test","03","3","84.0","11100","kill","1.0","4500.0","0.970966032274"
"247","1_14_1",14,"1.0","1369.25713595","1_I","test","03","3","85.0","00110","ignore","1.0","4600.0","0.615290793314"
"248","1_14_1",14,"1.0","1372.24165976","1_I","test","03","3","86.0","10000","kill","1.0","4700.0","0.890736414202"
"249","1_14_1",14,"1.0","1375.00742404","1_I","test","03","3","87.0","00101","ignore","1.0","4800.0","0.662907846926"
"250","1_14_1",14,"1.0","1377.88260955","1_I","test","03","3","88.0","00001","ignore","1.0","4900.0","0.746195508711"
"251","1_14_1",14,"1.0","1381.77343094","1_I","test","03","3","89.0","10101","kill","0.0","4800.0","1.74928721595"
"252","1_14_1",14,"1.0","1385.10171146","1_I","test","03","3","90.0","10001","kill","0.0","4700.0","1.20304154038"
"253","1_14_1",14,"1.0","1388.19559246","1_I","test","03","3","91.0","00011","ignore","1.0","4800.0","0.991216694151"
"254","1_14_1",14,"1.0","1392.22707771","1_I","test","03","3","92.0","11110","kill","1.0","4900.0","1.91402951963"
"255","1_14_1",14,"1.0","1395.25849234","1_I","test","03","3","93.0","11011","kill","1.0","5000.0","0.921988069154"
"256","1_14_1",14,"1.0","1398.10239664","1_I","test","03","3","94.0","01110","ignore","1.0","5100.0","0.765811079486"
"257","1_14_1",14,"1.0","1401.72760093","1_I","test","03","3","95.0","10101","kill","0.0","5000.0","1.49427083782"
"258","1_14_1",14,"1.0","1404.46215912","1_I","test","03","3","96.0","00111","ignore","1.0","5100.0","0.625347155083"
"259","1_14_1",14,"1.0","1408.04044631","1_I","test","03","3","97.0","11110","kill","1.0","5200.0","1.45423669808"
"260","1_14_1",14,"1.0","1411.32187501","1_I","test","03","3","98.0","11000","kill","1.0","5300.0","1.15686668136"
"261","1_14_1",14,"1.0","1415.55647364","1_I","test","03","3","99.0","11111","ignore","0.0","5200.0","2.14435411399"
"262","1_14_1",14,"1.0","1418.19724854","1_I","test","03","3","100.0","00110","ignore","1.0","5300.0","0.502373894184"
"263","1_14_1",14,"1.0","1421.80677179","1_I","test","03","3","101.0","01001","ignore","1.0","5400.0","1.50932171695"
"264","1_14_1",14,"1.0","1425.85389292","1_I","test","03","3","102.0","11001","kill","1.0","5500.0","1.94217304611"
"265","1_14_1",14,"1.0","1428.68211453","1_I","test","03","3","103.0","00000","ignore","1.0","5600.0","0.704262253626"
"266","1_14_1",14,"1.0","1431.71356078","1_I","test","03","3","104.0","00101","ignore","1.0","5700.0","0.924086291926"
"267","1_14_1",14,"1.0","1434.69811291","1_I","test","03","3","105.0","01000","ignore","1.0","5800.0","0.915057488676"
"268","1_14_1",14,"1.0","1437.99516148","1_I","test","03","3","106.0","11101","kill","1.0","5900.0","1.1652936465"
"269","1_14_1",14,"1.0","1440.71402591","1_I","test","03","3","107.0","01100","ignore","1.0","6000.0","0.600120860259"
"270","1_14_1",14,"1.0","1444.44860627","1_I","test","03","3","108.0","11100","kill","1.0","6100.0","1.5479444519"
"271","1_14_1",14,"1.0","1447.85502434","1_I","test","03","3","109.0","10000","kill","1.0","6200.0","1.30497263607"
"272","1_14_1",14,"1.0","1451.41770726","1_I","test","03","4","0.0","10100","kill","0.0","6100.0","1.44781887054"
"273","1_14_1",14,"1.0","1454.96474854","1_I","test","03","4","1.0","10111","kill","0.0","6000.0","1.43060285212"
"274","1_14_1",14,"1.0","1458.99625103","1_I","test","03","4","2.0","10011","ignore","0.0","5900.0","1.93974886191"
"275","1_14_1",14,"1.0","1462.04329416","1_I","test","03","4","3.0","11010","ignore","0.0","5800.0","0.932712775019"
"276","1_14_1",14,"1.0","1465.01219564","1_I","test","03","4","4.0","10001","kill","0.0","5700.0","0.895450128517"
"277","1_14_1",14,"1.0","1468.02800354","1_I","test","03","4","5.0","00011","ignore","0.0","5600.0","0.882878855244"
"278","1_14_1",14,"1.0","1472.12195432","1_I","test","03","4","6.0","01101","ignore","1.0","5700.0","1.97849311396"
"279","1_14_1",14,"1.0","1476.77845132","1_I","test","03","4","7.0","00010","kill","1.0","5800.0","2.53644959031"
"280","1_14_1",14,"1.0","1479.95051873","1_I","test","03","4","8.0","00100","ignore","1.0","5900.0","1.01983643633"
"281","1_14_1",14,"1.0","1483.46633135","1_I","test","03","4","9.0","01010","kill","1.0","6000.0","1.44133125276"
"282","1_14_1",14,"1.0","1486.59149274","1_I","test","03","4","10.0","01111","kill","1.0","6100.0","0.980609400087"
"283","1_14_1",14,"1.0","1489.52913475","1_I","test","03","4","11.0","10110","kill","0.0","6000.0","0.831756279375"
"284","1_14_1",14,"1.0","1492.998043","1_I","test","03","4","12.0","11011","kill","1.0","6100.0","1.37815426186"
"285","1_14_1",14,"1.0","1495.98258487","1_I","test","03","4","13.0","01011","kill","1.0","6200.0","0.895983407988"
"286","1_14_1",14,"1.0","1498.93585867","1_I","test","03","4","14.0","10010","kill","1.0","6300.0","0.868392455923"
"287","1_14_1",14,"1.0","1501.71730523","1_I","test","03","4","15.0","00001","ignore","1.0","6400.0","0.663948542431"
"288","1_14_1",14,"1.0","1504.74868538","1_I","test","03","4","16.0","10111","kill","0.0","6300.0","0.88959062282"
"289","1_14_1",14,"1.0","1507.82695102","1_I","test","03","4","17.0","00110","kill","1.0","6400.0","0.967331192825"
"290","1_14_1",14,"1.0","1511.202163","1_I","test","03","4","18.0","01101","ignore","1.0","6500.0","1.25536779247"
"291","1_14_1",14,"1.0","1517.34311587","1_I","test","03","4","19.0","01011","kill","1.0","6600.0","4.0125088726"
"292","1_14_1",14,"1.0","1521.24956289","1_I","test","03","4","20.0","10011","ignore","0.0","6500.0","1.79415576605"
"293","1_14_1",14,"1.0","1523.96845687","1_I","test","03","4","21.0","01001","ignore","1.0","6600.0","0.59729476643"
"294","1_14_1",14,"1.0","1526.64046782","1_I","test","03","4","22.0","00101","ignore","1.0","6700.0","0.557818127479"
"295","1_14_1",14,"1.0","1530.98445772","1_I","test","03","4","23.0","00011","kill","1.0","6800.0","2.20786897171"
"296","1_14_1",14,"1.0","1533.81271176","1_I","test","03","4","24.0","01100","ignore","1.0","6900.0","0.716166003865"
"297","1_14_1",14,"1.0","1538.53170837","1_I","test","03","4","25.0","01111","kill","1.0","7000.0","2.60108930235"
"298","1_14_1",14,"1.0","1541.45373462","1_I","test","03","4","26.0","10101","ignore","1.0","7100.0","0.780306510484"
"299","1_14_1",14,"1.0","1544.12574188","1_I","test","03","4","27.0","11001","ignore","1.0","7200.0","0.590079688128"
"300","1_14_1",14,"1.0","1547.50096085","1_I","test","03","4","28.0","11110","kill","0.0","7100.0","1.22339935079"
"301","1_14_1",14,"1.0","1550.37613363","1_I","test","03","4","29.0","11101","ignore","1.0","7200.0","0.745835062695"
"302","1_14_1",14,"1.0","1553.04813227","1_I","test","03","4","30.0","00100","ignore","1.0","7300.0","0.525510997914"
"303","1_14_1",14,"1.0","1555.73577542","1_I","test","03","4","31.0","11000","ignore","1.0","7400.0","0.563689538568"
"304","1_14_1",14,"1.0","1559.110925","1_I","test","03","4","32.0","00111","kill","1.0","7500.0","1.28812240057"
"305","1_14_1",14,"1.0","1562.23606997","1_I","test","03","4","33.0","00001","ignore","1.0","7600.0","1.01724968194"
"306","1_14_1",14,"1.0","1565.37689763","1_I","test","03","4","34.0","11011","kill","1.0","7700.0","1.00129358246"
"307","1_14_1",14,"1.0","1567.95516265","1_I","test","03","4","35.0","00000","ignore","1.0","7800.0","0.476603646088"
"308","1_14_1",14,"1.0","1570.5490611","1_I","test","03","4","36.0","10000","ignore","1.0","7900.0","0.484502668655"
"309","1_14_1",14,"1.0","1574.15857818","1_I","test","03","4","37.0","01010","kill","1.0","8000.0","1.47636882249"
"310","1_14_1",14,"1.0","1576.81498651","1_I","test","03","4","38.0","10100","ignore","1.0","8100.0","0.527717190278"
"311","1_14_1",14,"1.0","1579.44018464","1_I","test","03","5","0.0","01000","ignore","1.0","8200.0","0.488745093645"
"312","1_14_1",14,"1.0","1582.59652256","1_I","test","03","5","1.0","10110","ignore","1.0","8300.0","1.05051416926"
"313","1_14_1",14,"1.0","1586.04984911","1_I","test","03","5","2.0","10010","kill","0.0","8200.0","1.2852117374"
"314","1_14_1",14,"1.0","1589.12816812","1_I","test","03","5","3.0","00010","kill","0.0","8100.0","0.942846316574"
"315","1_14_1",14,"1.0","1593.01894682","1_I","test","03","5","4.0","01110","ignore","1.0","8200.0","1.78522425859"
"316","1_14_1",14,"1.0","1596.72230057","1_I","test","03","5","5.0","11010","ignore","1.0","8300.0","1.60271377261"
"317","1_14_1",14,"1.0","1599.83183797","1_I","test","03","5","6.0","11111","ignore","0.0","8200.0","1.01447285181"
"318","1_14_1",14,"1.0","1604.2851867","1_I","test","03","5","7.0","10001","ignore","0.0","8100.0","2.29006831643"
"319","1_14_1",14,"1.0","1608.33228771","1_I","test","03","5","8.0","11100","kill","0.0","8000.0","1.9185999587"
"320","1_14_1",14,"1.0","1612.42625164","1_I","test","03","5","9.0","01100","ignore","1.0","8100.0","1.97973496955"
"321","1_14_1",14,"1.0","1615.00450106","1_I","test","03","5","10.0","10110","ignore","1.0","8200.0","0.457240141206"
"322","1_14_1",14,"1.0","1618.20781109","1_I","test","03","5","11.0","01010","kill","0.0","8100.0","1.07176898941"
"323","1_14_1",14,"1.0","1621.86423665","1_I","test","03","5","12.0","00100","ignore","1.0","8200.0","1.51767232337"
"324","1_14_1",14,"1.0","1625.33321141","1_I","test","03","5","13.0","00011","kill","1.0","8300.0","1.32948583895"
"325","1_14_1",14,"1.0","1628.23960546","1_I","test","03","5","14.0","10101","ignore","1.0","8400.0","0.776625691591"
"326","1_14_1",14,"1.0","1631.23976721","1_I","test","03","5","15.0","01011","kill","1.0","8500.0","0.876279162567"
"327","1_14_1",14,"1.0","1634.45866099","1_I","test","03","5","16.0","11110","ignore","1.0","8600.0","1.14325635471"
"328","1_14_1",14,"1.0","1637.56823042","1_I","test","03","5","17.0","11010","kill","0.0","8500.0","0.986138839044"
"329","1_14_1",14,"1.0","1641.33402877","1_I","test","03","5","18.0","01110","ignore","1.0","8600.0","1.64129545448"
"330","1_14_1",14,"1.0","1643.81851091","1_I","test","03","5","19.0","11100","ignore","1.0","8700.0","0.391203392955"
"331","1_14_1",14,"1.0","1646.66243286","1_I","test","03","5","20.0","10000","ignore","1.0","8800.0","0.726787666506"
"332","1_14_1",14,"1.0","1649.74069604","1_I","test","03","5","21.0","10011","kill","1.0","8900.0","0.935457173225"
"333","1_14_1",14,"1.0","1652.67838198","1_I","test","03","5","22.0","01000","ignore","1.0","9000.0","0.824725529389"
"334","1_14_1",14,"1.0","1656.78795963","1_I","test","03","5","23.0","00101","ignore","1.0","9100.0","1.95329145098"
"335","1_14_1",14,"1.0","1659.67877815","1_I","test","03","5","24.0","10111","ignore","0.0","9000.0","0.773129611543"
"336","1_14_1",14,"1.0","1663.19456244","1_I","test","03","5","25.0","01111","ignore","0.0","8900.0","1.35957487075"
"337","1_14_1",14,"1.0","1666.71035412","1_I","test","03","5","26.0","00001","kill","1.0","9000.0","1.39775423247"
"338","1_14_1",14,"1.0","1669.8199371","1_I","test","03","5","27.0","00000","ignore","1.0","9100.0","0.988817962856"
"339","1_14_1",14,"1.0","1672.57004948","1_I","test","03","5","28.0","10100","ignore","1.0","9200.0","0.614399941541"
"340","1_14_1",14,"1.0","1675.74215876","1_I","test","03","5","29.0","11001","kill","1.0","9300.0","1.0920331988"
"341","1_14_1",14,"1.0","1678.83602334","1_I","test","03","5","30.0","10001","kill","1.0","9400.0","0.940441837848"
"342","1_14_1",14,"1.0","1682.02368352","1_I","test","03","5","31.0","11101","kill","0.0","9300.0","1.07898858355"
"343","1_14_1",14,"1.0","1685.18010888","1_I","test","03","5","32.0","01101","ignore","1.0","9400.0","1.04303799339"
"344","1_14_1",14,"1.0","1688.44591852","1_I","test","03","5","33.0","00111","ignore","0.0","9300.0","1.12168296269"
"345","1_14_1",14,"1.0","1691.94607596","1_I","test","03","5","34.0","10010","ignore","1.0","9400.0","1.41073685758"
"346","1_14_1",14,"1.0","1695.11811791","1_I","test","03","5","35.0","11011","kill","1.0","9500.0","1.05859464643"
"347","1_14_1",14,"1.0","1697.86831487","1_I","test","03","5","36.0","00110","ignore","1.0","9600.0","0.601831952513"
"348","1_14_1",14,"1.0","1701.7903641","1_I","test","03","5","37.0","11111","ignore","0.0","9500.0","1.83817451745"
"349","1_14_1",14,"1.0","1705.30615004","1_I","test","03","5","38.0","01001","kill","1.0","9600.0","1.42447855408"
"350","1_14_1",14,"1.0","1708.57195229","1_I","test","03","5","39.0","00010","ignore","1.0","9700.0","1.12737209811"
"351","1_14_1",14,"1.0","1711.83775126","1_I","test","03","5","40.0","11000","ignore","1.0","9800.0","1.1669665594"
"352","1_14_1",14,"1.0","1715.24419971","1_I","test","03","5","41.0","10101","ignore","1.0","9900.0","1.25204988277"
"353","1_14_1",14,"1.0","1718.65062928","1_I","test","03","5","42.0","11110","ignore","1.0","10000.0","1.33015828835"
"354","1_14_1",14,"1.0","1721.86955179","1_I","test","03","5","43.0","10000","ignore","1.0","10100.0","1.05911068361"
"355","1_14_1",14,"1.0","1724.83847708","1_I","test","03","5","44.0","10110","ignore","1.0","10200.0","0.822322692786"
"356","1_14_1",14,"1.0","1728.08863277","1_I","test","03","5","45.0","11001","kill","1.0","10300.0","1.17961624405"
"357","1_14_1",14,"1.0","1731.87008261","1_I","test","03","5","46.0","01111","ignore","0.0","10200.0","1.65097700166"
"358","1_14_1",14,"1.0","1734.88586054","1_I","test","03","5","47.0","01011","kill","1.0","10300.0","0.843893211094"
"359","1_14_1",14,"1.0","1740.66742902","1_I","test","03","5","48.0","10111","ignore","0.0","10200.0","3.45296076845"
"360","1_14_1",14,"1.0","1743.71446312","1_I","test","03","5","49.0","01010","ignore","1.0","10300.0","0.929693321198"
"361","1_14_1",14,"1.0","1746.62086909","1_I","test","03","5","50.0","00000","ignore","1.0","10400.0","0.710610290938"
"362","1_14_1",14,"1.0","1753.48065969","1_I","test","03","5","51.0","01101","kill","0.0","10300.0","4.66443255821"
"363","1_14_1",14,"1.0","1756.64237597","1_I","test","03","5","52.0","00010","ignore","1.0","10400.0","1.01710763829"
"364","1_14_1",14,"1.0","1759.51029467","1_I","test","03","5","53.0","01000","ignore","1.0","10500.0","0.760559980393"
"365","1_14_1",14,"1.0","1762.73577049","1_I","test","03","5","54.0","00101","ignore","1.0","10600.0","1.05203805949"
"366","1_14_1",14,"1.0","1765.70777024","1_I","test","03","5","55.0","01100","ignore","1.0","10700.0","0.891202777158"
"367","1_14_1",14,"1.0","1768.45796226","1_I","test","03","5","56.0","11000","ignore","1.0","10800.0","0.607996072042"
"368","1_14_1",14,"1.0","1771.55186215","1_I","test","03","5","57.0","00111","kill","1.0","10900.0","0.996501867299"
"369","1_14_1",14,"1.0","1774.34888547","1_I","test","03","5","58.0","00110","ignore","1.0","11000.0","0.670350359276"
"370","1_14_1",14,"1.0","1777.10220903","1_I","test","03","5","59.0","01110","ignore","1.0","11100.0","0.62637840838"
"371","1_14_1",14,"1.0","1780.43386206","1_I","test","03","5","60.0","11111","kill","1.0","11200.0","1.26371552517"
"372","1_14_1",14,"1.0","1783.18401467","1_I","test","03","5","61.0","10011","kill","1.0","11300.0","0.656906708114"
"373","1_14_1",14,"1.0","1785.91851498","1_I","test","03","6","0.0","11011","kill","1.0","11400.0","0.608996535531"
"374","1_14_1",14,"1.0","1788.68430635","1_I","test","03","6","1.0","10001","kill","0.0","11300.0","0.646669302274"
"375","1_14_1",14,"1.0","1793.30956483","1_I","test","03","6","2.0","10010","ignore","0.0","11200.0","2.47706179843"
"376","1_14_1",14,"1.0","1796.88785161","1_I","test","03","6","3.0","11010","kill","1.0","11300.0","1.47179058333"
"377","1_14_1",14,"1.0","1799.93489598","1_I","test","03","6","4.0","01001","ignore","1.0","11400.0","0.906903937031"
"378","1_14_1",14,"1.0","1804.01326343","1_I","test","03","6","5.0","11100","kill","1.0","11500.0","1.92360391827"
"379","1_14_1",14,"1.0","1806.8415068","1_I","test","03","6","6.0","00001","ignore","1.0","11600.0","0.711799188052"
"380","1_14_1",14,"1.0","1810.15418386","1_I","test","03","6","7.0","10100","kill","1.0","11700.0","1.1405813362"
"381","1_14_1",14,"1.0","1812.8105733","1_I","test","03","6","8.0","00011","ignore","1.0","11800.0","0.544246390716"
"382","1_14_1",14,"1.0","1816.15450982","1_I","test","03","6","9.0","00100","kill","0.0","11700.0","1.17892203651"
"383","1_14_1",14,"1.0","1819.24846636","1_I","test","03","6","10.0","11101","ignore","0.0","11600.0","0.959974481407"
"384","1_14_1",14,"1.0","1823.01424993","1_I","test","03","6","11.0","00101","ignore","1.0","11700.0","1.63846238163"
"385","1_14_1",14,"1.0","1826.95196831","1_I","test","03","6","12.0","11000","kill","1.0","11800.0","1.79798724974"
"386","1_14_1",14,"1.0","1831.09279966","1_I","test","03","6","13.0","00011","ignore","1.0","11900.0","2.01831829354"
"387","1_14_1",14,"1.0","1834.63985039","1_I","test","03","6","14.0","00001","ignore","1.0","12000.0","1.40997819671"
"388","1_14_1",14,"1.0","1837.73374863","1_I","test","03","6","15.0","01111","ignore","1.0","12100.0","0.937774208897"
"389","1_14_1",14,"1.0","1841.37461467","1_I","test","03","6","16.0","11101","ignore","0.0","12000.0","1.54010577736"
"390","1_14_1",14,"1.0","1844.67165831","1_I","test","03","6","17.0","01001","ignore","1.0","12100.0","1.21167582356"
"391","1_14_1",14,"1.0","1847.92184233","1_I","test","03","6","18.0","11110","kill","1.0","12200.0","1.10176031489"
"392","1_14_1",14,"1.0","1851.32824029","1_I","test","03","6","19.0","00111","ignore","1.0","12300.0","1.25674881798"
"393","1_14_1",14,"1.0","1854.51590047","1_I","test","03","6","20.0","10010","kill","1.0","12400.0","1.04591704569"
"394","1_14_1",14,"1.0","1858.14110312","1_I","test","03","6","21.0","11100","kill","1.0","12500.0","1.50027361876"
"395","1_14_1",14,"1.0","1862.67258857","1_I","test","03","6","22.0","10001","ignore","1.0","12600.0","2.35859452327"
"396","1_14_1",14,"1.0","1866.11026282","1_I","test","03","6","23.0","00000","kill","0.0","12500.0","1.27316430139"
"397","1_14_1",14,"1.0","1869.36044068","1_I","test","03","6","24.0","10100","kill","1.0","12600.0","1.1086592845"
"398","1_14_1",14,"1.0","1873.95441015","1_I","test","03","6","25.0","00110","kill","0.0","12500.0","2.43931226243"
"399","1_14_1",14,"1.0","1878.25154657","1_I","test","03","6","26.0","10111","ignore","1.0","12600.0","2.21151694815"
"400","1_14_1",14,"1.0","1881.73612026","1_I","test","03","6","27.0","01010","ignore","1.0","12700.0","1.33944983129"
"401","1_14_1",14,"1.0","1884.79878245","1_I","test","03","6","28.0","11011","ignore","0.0","12600.0","0.916844529123"
"402","1_14_1",14,"1.0","1888.18959255","1_I","test","03","6","29.0","10011","kill","0.0","12500.0","1.25589162973"
"403","1_14_1",14,"1.0","1892.25229702","1_I","test","03","6","30.0","01000","ignore","1.0","12600.0","1.89515988326"
"404","1_14_1",14,"1.0","1895.51809148","1_I","test","03","6","31.0","10000","kill","1.0","12700.0","1.15379919544"
"405","1_14_1",14,"1.0","1898.97141474","1_I","test","03","6","32.0","01100","kill","0.0","12600.0","1.33101793978"
"406","1_14_1",14,"1.0","1902.79971846","1_I","test","03","6","33.0","01110","kill","0.0","12500.0","1.68502601328"
"407","1_14_1",14,"1.0","1906.09676416","1_I","test","03","6","34.0","10110","kill","1.0","12600.0","1.17609101631"
"408","1_14_1",14,"1.0","1909.95636345","1_I","test","03","6","35.0","10101","ignore","1.0","12700.0","1.71582485279"
"409","1_14_1",14,"1.0","1913.40966127","1_I","test","03","6","36.0","11111","ignore","0.0","12600.0","1.36506654088"
"410","1_14_1",14,"1.0","1916.87860646","1_I","test","03","6","37.0","11010","kill","1.0","12700.0","1.35785885213"
"411","1_14_1",14,"1.0","1920.66003659","1_I","test","03","6","38.0","00100","ignore","1.0","12800.0","1.59994063725"
"412","1_14_1",14,"1.0","1924.06650065","1_I","test","03","6","39.0","01011","ignore","1.0","12900.0","1.28582630197"
"413","1_14_1",14,"1.0","1927.48855173","1_I","test","03","6","40.0","00010","kill","0.0","12800.0","1.28936507721"
"414","1_14_1",14,"1.0","1930.81678751","1_I","test","03","6","41.0","01101","ignore","1.0","12900.0","1.19202864191"
"415","1_14_1",14,"1.0","1934.09828066","1_I","test","03","6","42.0","11001","ignore","0.0","12800.0","1.16147817352"
"416","1_14_1",14,"1.0","1937.36406608","1_I","test","03","6","43.0","00101","ignore","1.0","12900.0","1.09691810445"
"417","1_14_1",14,"1.0","1942.45807475","1_I","test","03","6","44.0","10011","kill","0.0","12800.0","2.98691022636"
"418","1_14_1",14,"1.0","1945.56761462","1_I","test","03","6","45.0","11000","kill","1.0","12900.0","0.960254873924"
"419","1_14_1",14,"1.0","1949.56779567","1_I","test","03","6","46.0","11110","kill","1.0","13000.0","1.86648554049"
"420","1_14_1",14,"1.0","1952.89611231","1_I","test","03","6","47.0","10000","kill","1.0","13100.0","1.21009856433"
"421","1_14_1",14,"1.0","1956.56821071","1_I","test","03","6","48.0","00111","ignore","1.0","13200.0","1.50062339098"
"422","1_14_1",14,"1.0","1959.66210074","1_I","test","03","6","49.0","11010","kill","1.0","13300.0","1.0072483313"
"423","1_14_1",14,"1.0","1962.94351836","1_I","test","03","6","50.0","00010","ignore","1.0","13400.0","1.12535228672"
"424","1_14_1",14,"1.0","1965.67803632","1_I","test","03","6","51.0","01010","ignore","1.0","13500.0","0.614241887193"
"425","1_14_1",14,"1.0","1968.41253827","1_I","test","03","6","52.0","00011","ignore","1.0","13600.0","0.629058763785"
"426","1_14_1",14,"1.0","1971.64709256","1_I","test","03","6","53.0","01000","ignore","1.0","13700.0","1.095591269"
"427","1_14_1",14,"1.0","1974.25662976","1_I","test","03","6","54.0","01101","ignore","1.0","13800.0","0.531890235567"
"428","1_14_1",14,"1.0","1977.25678125","1_I","test","03","7","0.0","10101","kill","0.0","13700.0","0.84416785618"
"429","1_14_1",14,"1.0","1981.14763631","1_I","test","03","7","1.0","10100","kill","0.0","13600.0","1.68491927528"
"430","1_14_1",14,"1.0","1984.36650422","1_I","test","03","7","2.0","11111","kill","0.0","13500.0","1.14173287502"
"431","1_14_1",14,"1.0","1987.42920007","1_I","test","03","7","3.0","11001","ignore","1.0","13600.0","0.959882522515"
"432","1_14_1",14,"1.0","1991.85130904","1_I","test","03","7","4.0","10111","ignore","1.0","13700.0","2.29700916017"
"433","1_14_1",14,"1.0","1994.77331599","1_I","test","03","7","5.0","10010","ignore","0.0","13600.0","0.788796286831"
"434","1_14_1",14,"1.0","1997.55476296","1_I","test","03","7","6.0","11011","ignore","0.0","13500.0","0.663656655053"
"435","1_14_1",14,"1.0","2001.24245373","1_I","test","03","7","7.0","00001","ignore","1.0","13600.0","1.59340950321"
"436","1_14_1",14,"1.0","2005.18014254","1_I","test","03","7","8.0","11101","kill","0.0","13500.0","1.75786525641"
"437","1_14_1",14,"1.0","2009.85227584","1_I","test","03","7","9.0","00100","ignore","1.0","13600.0","2.51043261322"
"438","1_14_1",14,"1.0","2014.77440513","1_I","test","03","7","10.0","00110","ignore","0.0","13500.0","2.81098054864"
"439","1_14_1",14,"1.0","2017.94643969","1_I","test","03","7","11.0","01100","ignore","1.0","13600.0","1.03738457414"
"440","1_14_1",14,"1.0","2022.99359572","1_I","test","03","7","12.0","00000","kill","0.0","13500.0","2.94137949013"
"441","1_14_1",14,"1.0","2035.77552916","1_I","test","03","7","13.0","10110","ignore","1.0","13600.0","10.6177773782"
"442","1_14_1",14,"1.0","2039.86947092","1_I","test","03","7","14.0","01110","ignore","0.0","13500.0","1.95498981678"
"443","1_14_1",14,"1.0","2045.088517","1_I","test","03","7","15.0","01001","ignore","1.0","13600.0","3.09184804942"
"444","1_14_1",14,"1.0","2048.85430756","1_I","test","03","7","16.0","10001","ignore","1.0","13700.0","1.58524979361"
"445","1_14_1",14,"1.0","2053.57333085","1_I","test","03","7","17.0","11100","ignore","1.0","13800.0","2.63011382787"
"446","1_14_1",14,"1.0","2066.29276632","1_I","test","03","7","18.0","01011","ignore","0.0","13700.0","10.6046428567"
"447","1_14_1",14,"1.0","2070.01169397","1_I","test","03","7","19.0","01111","ignore","0.0","13600.0","1.56632145134"
"448","1_14_1",14,"1.0","2073.04309054","1_I","test","03","7","20.0","11011","kill","1.0","13700.0","0.877207783171"
"449","1_14_1",14,"1.0","2077.51210512","1_I","test","03","7","21.0","00011","kill","1.0","13800.0","2.32647418521"
"450","1_14_1",14,"1.0","2082.82484335","1_I","test","03","7","22.0","01100","ignore","1.0","13900.0","3.21696469148"
"451","1_14_1",14,"1.0","2085.98128637","1_I","test","03","7","23.0","10101","ignore","1.0","14000.0","1.00211874931"
"452","1_14_1",14,"1.0","2089.30958536","1_I","test","03","7","24.0","01010","kill","1.0","14100.0","1.19023995934"
"453","1_14_1",14,"1.0","2093.09104916","1_I","test","03","7","25.0","10001","ignore","1.0","14200.0","1.68356657639"
"454","1_14_1",14,"1.0","2095.8256016","1_I","test","03","7","26.0","00000","ignore","1.0","14300.0","0.604685962434"
"455","1_14_1",14,"1.0","2099.3101014","1_I","test","03","7","27.0","11110","kill","0.0","14200.0","1.35537267778"
"456","1_14_1",14,"1.0","2102.60718815","1_I","test","03","7","28.0","00100","ignore","1.0","14300.0","1.10432531115"
"457","1_14_1",14,"1.0","2106.26365436","1_I","test","03","7","29.0","10110","ignore","1.0","14400.0","1.48865724006"
"458","1_14_1",14,"1.0","2109.45131454","1_I","test","03","7","30.0","01111","kill","1.0","14500.0","1.09124005335"
"459","1_14_1",14,"1.0","2113.0296239","1_I","test","03","7","31.0","10010","ignore","0.0","14400.0","1.42207859119"
"460","1_14_1",14,"1.0","2116.54542708","1_I","test","03","7","32.0","11000","ignore","1.0","14500.0","1.36721361681"
"461","1_14_1",14,"1.0","2120.13932881","1_I","test","03","7","33.0","11111","kill","0.0","14400.0","1.46703786859"
"462","1_14_1",14,"1.0","2122.92074786","1_I","test","03","7","34.0","00001","ignore","1.0","14500.0","0.630974710894"
"463","1_14_1",14,"1.0","2125.60839839","1_I","test","03","7","35.0","11001","ignore","1.0","14600.0","0.591504640435"
"464","1_14_1",14,"1.0","2128.15540766","1_I","test","03","7","36.0","01000","ignore","1.0","14700.0","0.404511979494"
"465","1_14_1",14,"1.0","2130.8587068","1_I","test","03","7","37.0","10000","ignore","1.0","14800.0","0.563882077498"
"466","1_14_1",14,"1.0","2133.62446082","1_I","test","03","7","38.0","11101","ignore","1.0","14900.0","0.631748561398"
"467","1_14_1",14,"1.0","2136.3589406","1_I","test","03","7","39.0","10100","ignore","1.0","15000.0","0.584799030819"
"468","1_14_1",14,"1.0","2139.74976548","1_I","test","03","7","40.0","00111","kill","1.0","15100.0","1.27587052024"
"469","1_14_1",14,"1.0","2142.81241084","1_I","test","03","7","41.0","01101","ignore","1.0","15200.0","0.930862512834"
"470","1_14_1",14,"1.0","2146.90635506","1_I","test","03","7","42.0","00010","kill","1.0","15300.0","1.93898527467"
"471","1_14_1",14,"1.0","2150.81281152","1_I","test","03","7","43.0","01011","kill","1.0","15400.0","1.82357891695"
"472","1_14_1",14,"1.0","2154.20365282","1_I","test","03","8","0.0","00101","ignore","0.0","15300.0","1.26758724087"
"473","1_14_1",14,"1.0","2157.39131588","1_I","test","03","8","1.0","01001","ignore","1.0","15400.0","1.03482080948"
"474","1_14_1",14,"1.0","2161.57903313","1_I","test","03","8","2.0","01110","kill","1.0","15500.0","2.05126010368"
"475","1_14_1",14,"1.0","2165.1885691","1_I","test","03","8","3.0","10011","kill","0.0","15400.0","1.45970250477"
"476","1_14_1",14,"1.0","2168.7357163","1_I","test","03","8","4.0","11010","kill","0.0","15300.0","1.45990325432"
"477","1_14_1",14,"1.0","2171.64209353","1_I","test","03","8","5.0","00110","ignore","0.0","15200.0","0.732184093493"
"478","1_14_1",14,"1.0","2174.39227734","1_I","test","03","8","6.0","11100","ignore","1.0","15300.0","0.572091461329"
"479","1_14_1",14,"1.0","2177.72615668","1_I","test","03","8","7.0","10111","ignore","1.0","15400.0","1.2241506221"
"480","1_14_1",14,"1.0","2180.78884555","1_I","test","03","8","8.0","00001","ignore","1.0","15500.0","0.889731434875"
