,unique_id,pair_id,sbj_id,wall_time,condition,block,rule_id,rule_num,trial,stimulus,choice,correct,points,reaction_time
0,3_25_2,25,2.0,31.8700734518,3_D,training,05,1_B,1.0,10001,kill,1.0,100.0,5.3014708418
1,3_25_2,25,2.0,36.5613313278,3_D,training,05,1_B,2.0,11001,kill,1.0,200.0,2.08465674063
2,3_25_2,25,2.0,40.780244051,3_D,training,05,1_B,3.0,11101,ignore,0.0,100.0,1.60831098689
3,3_25_2,25,2.0,46.1743083825,3_D,training,05,1_B,4.0,10111,ignore,1.0,200.0,2.85454028189
4,3_25_2,25,2.0,50.7682512796,3_D,training,05,1_B,5.0,10011,ignore,1.0,300.0,2.02248752404
5,3_25_2,25,2.0,55.1278431157,3_D,training,05,1_B,6.0,11110,ignore,1.0,400.0,1.85108034701
6,3_25_2,25,2.0,59.0530476821,3_D,training,05,1_B,7.0,00001,ignore,0.0,300.0,1.34577015983
7,3_25_2,25,2.0,63.7949151109,3_D,training,05,1_B,8.0,10101,kill,1.0,400.0,2.21594624375
8,3_25_2,25,2.0,67.4763276905,3_D,training,05,1_B,9.0,01000,ignore,0.0,300.0,1.13589645484
9,3_25_2,25,2.0,71.6203390638,3_D,training,05,1_B,10.0,00000,kill,0.0,200.0,1.58627258112
10,3_25_2,25,2.0,76.5166440602,3_D,training,05,1_B,11.0,00011,ignore,1.0,300.0,2.35554566638
11,3_25_2,25,2.0,82.22528659,3_D,training,05,1_B,12.0,10000,kill,0.0,200.0,3.17918381992
12,3_25_2,25,2.0,86.2255103281,3_D,training,05,1_B,13.0,11111,kill,0.0,100.0,1.42166868373
13,3_25_2,25,2.0,90.7770965284,3_D,training,05,1_B,14.0,01010,kill,0.0,0.0,2.01833133269
14,3_25_2,25,2.0,100.539272396,3_D,training,05,1_B,15.0,11011,ignore,1.0,100.0,7.22090009212
15,3_25_2,25,2.0,104.398890505,3_D,training,05,1_B,16.0,01001,kill,1.0,200.0,1.30241916282
16,3_25_2,25,2.0,107.949053814,3_D,training,05,1_B,17.0,10100,ignore,1.0,300.0,1.00450062482
17,3_25_2,25,2.0,113.324324968,3_D,training,05,1_B,18.0,10010,ignore,1.0,400.0,2.84573649648
18,3_25_2,25,2.0,118.449527153,3_D,training,05,1_B,19.0,11000,ignore,0.0,300.0,2.63220251867
19,3_25_2,25,2.0,122.684151626,3_D,training,05,1_B,20.0,00111,kill,0.0,200.0,1.56312123237
20,3_25_2,25,2.0,127.012476785,3_D,training,05,1_B,21.0,00010,kill,0.0,100.0,1.81252227118
21,3_25_2,25,2.0,134.872227495,3_D,training,05,1_B,22.0,01110,ignore,1.0,200.0,5.35619348048
22,3_25_2,25,2.0,138.716135908,3_D,training,05,1_B,23.0,11100,kill,1.0,300.0,1.32820938928
23,3_25_2,25,2.0,142.794477487,3_D,training,05,1_B,24.0,10110,ignore,1.0,400.0,1.53297119239
24,3_25_2,25,2.0,150.169843063,3_D,training,05,1_B,25.0,01101,ignore,0.0,300.0,4.726421291
25,3_25_2,25,2.0,156.092000686,3_D,training,05,1_B,26.0,01100,kill,1.0,400.0,3.40854367449
26,3_25_2,25,2.0,160.201549827,3_D,training,05,1_B,27.0,11010,ignore,1.0,500.0,1.58233807521
27,3_25_2,25,2.0,163.732947874,3_D,training,05,1_B,28.0,01111,ignore,1.0,600.0,0.961535114152
28,3_25_2,25,2.0,167.358137333,3_D,training,05,1_B,29.0,00110,ignore,1.0,700.0,1.07319190897
29,3_25_2,25,2.0,171.405243025,3_D,training,05,1_B,30.0,00100,kill,0.0,600.0,1.48279515773
30,3_25_2,25,2.0,178.014872219,3_D,training,05,1_B,31.0,01011,ignore,1.0,700.0,4.07957152311
31,3_25_2,25,2.0,186.390303479,3_D,training,05,1_B,32.0,00101,kill,1.0,800.0,5.81244550233
32,3_25_2,25,2.0,191.187411223,3_D,training,05,1_B,33.0,01110,kill,0.0,700.0,2.27181507822
33,3_25_2,25,2.0,194.921962212,3_D,training,05,1_B,34.0,00101,kill,1.0,800.0,1.20468749743
34,3_25_2,25,2.0,199.406544811,3_D,training,05,1_B,35.0,01100,kill,1.0,900.0,1.94402442809
35,3_25_2,25,2.0,202.984824401,3_D,training,05,1_B,36.0,11010,ignore,1.0,1000.0,1.0669453061
36,3_25_2,25,2.0,208.344474942,3_D,training,05,1_B,37.0,10010,kill,0.0,900.0,2.82512057224
37,3_25_2,25,2.0,214.063493582,3_D,training,05,1_B,38.0,00010,ignore,1.0,1000.0,3.18358591788
38,3_25_2,25,2.0,222.517015178,3_D,training,05,1_B,39.0,11101,kill,1.0,1100.0,5.93465370272
39,3_25_2,25,2.0,231.954978562,3_D,training,05,1_B,40.0,10100,kill,0.0,1000.0,6.88311881847
40,3_25_2,25,2.0,237.564607756,3_D,training,05,1_B,41.0,11011,ignore,1.0,1100.0,3.09248593119
41,3_25_2,25,2.0,242.799208008,3_D,training,05,1_B,42.0,00100,kill,0.0,1000.0,2.71315629151
42,3_25_2,25,2.0,246.330638897,3_D,training,05,1_B,43.0,11110,ignore,1.0,1100.0,1.01197635027
43,3_25_2,25,2.0,249.95581563,3_D,training,05,1_B,44.0,00011,ignore,1.0,1200.0,1.10286696739
44,3_25_2,25,2.0,253.2528659,3_D,training,05,1_B,45.0,00110,ignore,1.0,1300.0,0.732735220561
45,3_25_2,25,2.0,256.674883533,3_D,training,05,1_B,46.0,11100,kill,1.0,1400.0,0.886299593905
46,3_25_2,25,2.0,260.409430006,3_D,training,05,1_B,47.0,01111,ignore,1.0,1500.0,1.20610053681
47,3_25_2,25,2.0,264.425249314,3_D,training,05,1_B,48.0,11001,kill,1.0,1600.0,1.45848078151
48,3_25_2,25,2.0,270.097420074,3_D,training,05,1_B,49.0,10001,kill,1.0,1700.0,3.13758454836
49,3_25_2,25,2.0,274.175740717,3_D,training,05,1_B,50.0,10101,kill,1.0,1800.0,1.5381151155
50,3_25_2,25,2.0,278.800967534,3_D,training,05,1_B,51.0,10000,kill,0.0,1700.0,2.05802698322
51,3_25_2,25,2.0,282.504230908,3_D,training,05,1_B,52.0,10111,ignore,1.0,1800.0,1.16248515939
52,3_25_2,25,2.0,286.629436377,3_D,training,05,1_B,53.0,01001,kill,1.0,1900.0,1.58482095207
53,3_25_2,25,2.0,293.754759258,3_D,training,05,1_B,54.0,01101,kill,1.0,2000.0,4.5674638037
54,3_25_2,25,2.0,306.114721391,3_D,training,05,1_B,55.0,11111,ignore,1.0,2100.0,9.82039826199
55,3_25_2,25,2.0,309.927373799,3_D,training,05,1_B,56.0,11000,kill,1.0,2200.0,1.26783130888
56,3_25_2,25,2.0,314.068217534,3_D,training,05,1_B,57.0,00111,ignore,1.0,2300.0,1.60375288807
57,3_25_2,25,2.0,318.287200047,3_D,training,05,1_B,58.0,00000,kill,0.0,2200.0,1.59672258613
58,3_25_2,25,2.0,321.896717578,3_D,training,05,1_B,59.0,01010,ignore,1.0,2300.0,1.0852064384
59,3_25_2,25,2.0,325.537532165,3_D,training,05,1_B,60.0,01011,ignore,1.0,2400.0,1.08796067465
60,3_25_2,25,2.0,330.64718558,3_D,training,05,1_B,61.0,01000,ignore,0.0,2300.0,2.61494061294
61,3_25_2,25,2.0,334.631746832,3_D,training,05,1_B,62.0,00001,kill,1.0,2400.0,1.45965817748
62,3_25_2,25,2.0,338.288119221,3_D,training,05,1_B,63.0,10110,ignore,1.0,2500.0,1.12475881446
63,3_25_2,25,2.0,341.741440069,3_D,training,05,1_B,64.0,10011,ignore,1.0,2600.0,0.918579456165
64,3_25_2,25,2.0,346.382262045,3_D,training,05,1_B,65.0,11101,ignore,0.0,2500.0,2.10549722401
65,3_25_2,25,2.0,350.820004565,3_D,training,05,1_B,66.0,00101,kill,1.0,2600.0,1.88395260201
66,3_25_2,25,2.0,354.351407949,3_D,training,05,1_B,67.0,01110,ignore,1.0,2700.0,0.997462933375
67,3_25_2,25,2.0,357.679702318,3_D,training,05,1_B,68.0,11011,ignore,1.0,2800.0,0.830629455261
68,3_25_2,25,2.0,361.070495968,3_D,training,05,1_B,69.0,01010,ignore,1.0,2900.0,0.845057482212
69,3_25_2,25,2.0,364.242511548,3_D,training,05,1_B,70.0,00011,ignore,1.0,3000.0,0.632951322805
70,3_25_2,25,2.0,372.227285043,3_D,training,05,1_B,71.0,01111,ignore,1.0,3100.0,5.45559928141
71,3_25_2,25,2.0,378.805724739,3_D,training,05,1_B,72.0,11100,kill,1.0,3200.0,4.02941437277
72,3_25_2,25,2.0,383.852818114,3_D,training,05,1_B,73.0,11000,ignore,0.0,3100.0,2.5159843408
73,3_25_2,25,2.0,391.087507041,3_D,training,05,1_B,74.0,01001,kill,1.0,3200.0,4.70084002358
74,3_25_2,25,2.0,397.119090236,3_D,training,05,1_B,75.0,00100,ignore,1.0,3300.0,3.46299782748
75,3_25_2,25,2.0,401.759929455,3_D,training,05,1_B,76.0,11001,kill,1.0,3400.0,2.09368097988
76,3_25_2,25,2.0,405.306989167,3_D,training,05,1_B,77.0,00111,ignore,1.0,3500.0,1.0101568876
77,3_25_2,25,2.0,413.916737004,3_D,training,05,1_B,78.0,00000,kill,0.0,3400.0,6.00863752133
78,3_25_2,25,2.0,418.010737786,3_D,training,05,1_B,79.0,01000,ignore,0.0,3300.0,1.49063502203
79,3_25_2,25,2.0,421.401485867,3_D,training,05,1_B,80.0,10111,ignore,1.0,3400.0,0.845252893816
80,3_25_2,25,2.0,425.82358109,3_D,training,05,1_B,81.0,00010,ignore,1.0,3500.0,1.88399365487
81,3_25_2,25,2.0,429.714395677,3_D,training,05,1_B,82.0,00001,kill,1.0,3600.0,1.22601240453
82,3_25_2,25,2.0,435.042783647,3_D,training,05,1_B,83.0,10001,ignore,0.0,3500.0,2.77539160321
83,3_25_2,25,2.0,438.496027725,3_D,training,05,1_B,84.0,10010,ignore,1.0,3600.0,0.921719178746
84,3_25_2,25,2.0,442.949385931,3_D,training,05,1_B,85.0,10100,kill,0.0,3500.0,1.91739508121
85,3_25_2,25,2.0,447.340244856,3_D,training,05,1_B,86.0,01101,kill,1.0,3600.0,1.86208374455
86,3_25_2,25,2.0,450.949777986,3_D,training,05,1_B,87.0,01100,ignore,0.0,3500.0,1.01953500249
87,3_25_2,25,2.0,454.43428669,3_D,training,05,1_B,88.0,11111,ignore,1.0,3600.0,0.952290831583
88,3_25_2,25,2.0,457.871991852,3_D,training,05,1_B,89.0,00110,ignore,1.0,3700.0,0.908967750517
89,3_25_2,25,2.0,460.981496245,3_D,training,05,1_B,90.0,01011,ignore,1.0,3800.0,0.5790686256
90,3_25_2,25,2.0,464.762907429,3_D,training,05,1_B,91.0,10000,ignore,1.0,3900.0,1.22211936201
91,3_25_2,25,2.0,467.966191329,3_D,training,05,1_B,92.0,11110,ignore,1.0,4000.0,0.672220434142
92,3_25_2,25,2.0,472.763306873,3_D,training,05,1_B,93.0,10011,ignore,1.0,4100.0,2.25932351458
93,3_25_2,25,2.0,476.294745152,3_D,training,05,1_B,94.0,11010,ignore,1.0,4200.0,0.922516425249
94,3_25_2,25,2.0,481.013718223,3_D,training,05,1_B,95.0,10101,ignore,0.0,4100.0,2.19222220763
95,3_25_2,25,2.0,484.123238627,3_D,training,05,1_B,96.0,10110,ignore,1.0,4200.0,0.556166467697
96,3_25_2,25,2.0,488.279672185,3_D,training,05,1_B,97.0,10001,kill,1.0,4300.0,1.60390765734
97,3_25_2,25,2.0,491.76420511,3_D,training,05,1_B,98.0,01111,ignore,1.0,4400.0,0.951385205535
98,3_25_2,25,2.0,496.858201376,3_D,training,05,1_B,99.0,01000,ignore,0.0,4300.0,2.55445702669
99,3_25_2,25,2.0,501.295901201,3_D,training,05,1_B,100.0,10000,ignore,1.0,4400.0,1.90233648236
100,3_25_2,25,2.0,507.249289786,3_D,training,05,1_B,101.0,11111,ignore,1.0,4500.0,3.42236617179
101,3_25_2,25,2.0,511.124522761,3_D,training,05,1_B,102.0,01010,kill,0.0,4400.0,1.33933881909
102,3_25_2,25,2.0,517.609178023,3_D,training,05,1_B,103.0,00101,kill,1.0,4500.0,3.93149304318
103,3_25_2,25,2.0,521.171857937,3_D,training,05,1_B,104.0,01101,kill,1.0,4600.0,1.0054497669
104,3_25_2,25,2.0,524.718880292,3_D,training,05,1_B,105.0,11001,ignore,0.0,4500.0,1.00238968687
105,3_25_2,25,2.0,529.73477719,3_D,training,05,1_B,106.0,01100,kill,1.0,4600.0,2.46525491362
106,3_25_2,25,2.0,534.750595266,3_D,training,05,1_B,107.0,11110,ignore,1.0,4700.0,2.4676347478
107,3_25_2,25,2.0,539.172748784,3_D,training,05,1_B,108.0,11100,kill,1.0,4800.0,1.88751065322
108,3_25_2,25,2.0,543.047909096,3_D,training,05,1_B,109.0,00001,kill,1.0,4900.0,1.325820934
109,3_25_2,25,2.0,546.438703157,3_D,training,05,1_B,110.0,00011,ignore,1.0,5000.0,0.813409012909
110,3_25_2,25,2.0,550.251348176,3_D,training,05,1_B,111.0,00111,ignore,1.0,5100.0,1.25358843032
111,3_25_2,25,2.0,553.923389209,3_D,training,05,1_B,112.0,00000,kill,0.0,5000.0,1.11494143399
112,3_25_2,25,2.0,557.017284074,3_D,training,05,1_B,113.0,10111,ignore,1.0,5100.0,0.558656734064
113,3_25_2,25,2.0,560.439345634,3_D,training,05,1_B,114.0,10110,ignore,1.0,5200.0,0.873938988884
114,3_25_2,25,2.0,565.392722724,3_D,training,05,1_B,115.0,00100,kill,0.0,5100.0,2.40072146293
115,3_25_2,25,2.0,570.033552501,3_D,training,05,1_B,116.0,01001,ignore,0.0,5000.0,2.09148547304
116,3_25_2,25,2.0,574.377515924,3_D,training,05,1_B,117.0,11000,ignore,0.0,4900.0,1.79196874728
117,3_25_2,25,2.0,577.627664125,3_D,training,05,1_B,118.0,11011,ignore,1.0,5000.0,0.74415653619
118,3_25_2,25,2.0,581.002813352,3_D,training,05,1_B,119.0,01110,ignore,1.0,5100.0,0.816320481599
119,3_25_2,25,2.0,584.737412783,3_D,training,05,1_B,120.0,10010,ignore,1.0,5200.0,1.20583246164
120,3_25_2,25,2.0,588.409457101,3_D,training,05,1_B,121.0,01011,ignore,1.0,5300.0,1.1421644052
121,3_25_2,25,2.0,592.206488486,3_D,training,05,1_B,122.0,00110,ignore,1.0,5400.0,1.24453914883
122,3_25_2,25,2.0,595.519106411,3_D,training,05,1_B,123.0,10011,ignore,1.0,5500.0,0.764895619003
123,3_25_2,25,2.0,599.59746318,3_D,training,05,1_B,124.0,11101,kill,1.0,5600.0,1.5383047797
124,3_25_2,25,2.0,603.488246977,3_D,training,05,1_B,125.0,10101,kill,1.0,5700.0,1.35184187753
125,3_25_2,25,2.0,607.394703524,3_D,training,05,1_B,126.0,10100,ignore,1.0,5800.0,1.35140220142
126,3_25_2,25,2.0,610.660479317,3_D,training,05,1_B,127.0,11010,ignore,1.0,5900.0,0.732115322405
127,3_25_2,25,2.0,613.895036053,3_D,training,05,1_B,128.0,00010,ignore,1.0,6000.0,0.689090695616
128,3_25_2,25,2.0,617.55142322,3_D,training,05,1_B,129.0,11101,kill,1.0,6100.0,1.10683185242
129,3_25_2,25,2.0,620.832845078,3_D,training,05,1_B,130.0,11011,ignore,1.0,6200.0,0.743813744826
130,3_25_2,25,2.0,629.973917067,3_D,training,05,1_B,131.0,11100,ignore,0.0,6100.0,6.60709089595
131,3_25_2,25,2.0,634.130371151,3_D,training,05,1_B,132.0,10101,kill,1.0,6200.0,1.55854876505
132,3_25_2,25,2.0,637.568015965,3_D,training,05,1_B,133.0,10110,ignore,1.0,6300.0,0.886459289523
133,3_25_2,25,2.0,642.646410913,3_D,training,05,1_B,134.0,00100,kill,0.0,6200.0,2.52092874702
134,3_25_2,25,2.0,647.005973601,3_D,training,05,1_B,135.0,11110,ignore,1.0,6300.0,1.8244448422
135,3_25_2,25,2.0,653.068756969,3_D,training,05,1_B,136.0,10111,ignore,1.0,6400.0,3.52168370908
136,3_25_2,25,2.0,658.85025929,3_D,training,05,1_B,137.0,01100,kill,1.0,6500.0,3.19827545154
137,3_25_2,25,2.0,663.241126835,3_D,training,05,1_B,138.0,00000,ignore,1.0,6600.0,1.84670247023
138,3_25_2,25,2.0,667.881961538,3_D,training,05,1_B,139.0,10000,ignore,1.0,6700.0,2.11075322142
139,3_25_2,25,2.0,671.64776771,3_D,training,05,1_B,140.0,10100,kill,0.0,6600.0,1.18758118203
140,3_25_2,25,2.0,675.413550892,3_D,training,05,1_B,141.0,10010,ignore,1.0,6700.0,1.22876581972
141,3_25_2,25,2.0,679.132478804,3_D,training,05,1_B,142.0,01000,kill,1.0,6800.0,1.16708841636
142,3_25_2,25,2.0,683.117090141,3_D,training,05,1_B,143.0,01101,kill,1.0,6900.0,1.43461880779
143,3_25_2,25,2.0,687.007911296,3_D,training,05,1_B,144.0,00010,ignore,1.0,7000.0,1.3473757371
144,3_25_2,25,2.0,691.648708231,3_D,training,05,1_B,145.0,11111,ignore,1.0,7100.0,2.10182053004
145,3_25_2,25,2.0,695.367673502,3_D,training,05,1_B,146.0,01011,ignore,1.0,7200.0,1.18181448706
146,3_25_2,25,2.0,699.164709403,3_D,training,05,1_B,147.0,00001,kill,1.0,7300.0,1.23895226538
147,3_25_2,25,2.0,703.383621305,3_D,training,05,1_B,148.0,00101,kill,1.0,7400.0,1.66586093591
148,3_25_2,25,2.0,709.415176585,3_D,training,05,1_B,149.0,10001,ignore,0.0,7300.0,3.45401956743
149,3_25_2,25,2.0,713.41541346,3_D,training,05,1_B,150.0,11001,ignore,0.0,7200.0,1.45741012298
150,3_25_2,25,2.0,720.103193748,3_D,training,05,1_B,151.0,11010,ignore,1.0,7300.0,4.16850597155
151,3_25_2,25,2.0,724.806554417,3_D,training,05,1_B,152.0,00011,ignore,1.0,7400.0,2.1506664521
152,3_25_2,25,2.0,729.150481714,3_D,training,05,1_B,153.0,00111,ignore,1.0,7500.0,1.74335107912
153,3_25_2,25,2.0,733.181928203,3_D,training,05,1_B,154.0,01001,kill,1.0,7600.0,1.49272994937
154,3_25_2,25,2.0,757.433109294,3_D,training,05,1_B,155.0,01010,ignore,1.0,7700.0,21.7081482534
155,3_25_2,25,2.0,761.76145539,3_D,training,05,1_B,156.0,01111,ignore,1.0,7800.0,1.79037548586
156,3_25_2,25,2.0,765.074104514,3_D,training,05,1_B,157.0,01110,ignore,1.0,7900.0,0.786543201565
157,3_25_2,25,2.0,768.496165663,3_D,training,05,1_B,158.0,00110,ignore,1.0,8000.0,0.830408590885
158,3_25_2,25,2.0,772.761946792,3_D,training,05,1_B,159.0,11000,kill,1.0,8100.0,1.74268848599
159,3_25_2,25,2.0,776.746529391,3_D,training,05,1_B,160.0,10011,ignore,1.0,8200.0,1.43014774103
160,3_25_2,25,2.0,780.059176053,3_D,training,05,1_B,161.0,11111,ignore,1.0,8300.0,0.763402116028
161,3_25_2,25,2.0,783.403126339,3_D,training,05,1_B,162.0,00111,ignore,1.0,8400.0,0.807431306253
162,3_25_2,25,2.0,786.403256066,3_D,training,05,1_B,163.0,01010,ignore,1.0,8500.0,0.444012933292
163,3_25_2,25,2.0,789.715878096,3_D,training,05,1_B,164.0,10110,ignore,1.0,8600.0,0.777655257804
164,3_25_2,25,2.0,792.841052365,3_D,training,05,1_B,165.0,10111,ignore,1.0,8700.0,0.590241981966
165,3_25_2,25,2.0,797.778796117,3_D,training,05,1_B,166.0,01100,kill,1.0,8800.0,2.37287038299
166,3_25_2,25,2.0,801.794606804,3_D,training,05,1_B,167.0,10100,kill,0.0,8700.0,1.46602629682
167,3_25_2,25,2.0,807.716762375,3_D,training,05,1_B,168.0,01101,kill,1.0,8800.0,3.33756944091
168,3_25_2,25,2.0,811.560686387,3_D,training,05,1_B,169.0,11101,kill,1.0,8900.0,1.29286082589
169,3_25_2,25,2.0,815.263983014,3_D,training,05,1_B,170.0,00011,ignore,1.0,9000.0,1.14561284528
170,3_25_2,25,2.0,818.486056397,3_D,training,05,1_B,171.0,00110,ignore,1.0,9100.0,0.697176466531
171,3_25_2,25,2.0,821.923720095,3_D,training,05,1_B,172.0,00010,ignore,1.0,9200.0,0.901746142263
172,3_25_2,25,2.0,826.127021648,3_D,training,05,1_B,173.0,00001,ignore,0.0,9100.0,1.65536125694
173,3_25_2,25,2.0,830.687572561,3_D,training,05,1_B,174.0,01011,ignore,1.0,9200.0,2.01991022561
174,3_25_2,25,2.0,835.562813746,3_D,training,05,1_B,175.0,01000,kill,1.0,9300.0,2.3296216076
175,3_25_2,25,2.0,839.20357127,3_D,training,05,1_B,176.0,01111,ignore,1.0,9400.0,1.04369460943
176,3_25_2,25,2.0,843.860034796,3_D,training,05,1_B,177.0,10001,kill,1.0,9500.0,2.10136402226
