,unique_id,pair_id,sbj_id,wall_time,condition,block,rule_id,rule_num,trial,stimulus,choice,correct,points,reaction_time
0,1_44_2,44,2.0,43.3571888072,1_I,training,05,1_B,1.0,01111,ignore,1.0,100.0,3.88872755069
1,1_44_2,44,2.0,47.4352313356,1_I,training,05,1_B,2.0,11110,kill,0.0,0.0,1.92359548532
2,1_44_2,44,2.0,50.9350771816,1_I,training,05,1_B,3.0,11010,ignore,1.0,100.0,1.34048229857
3,1_44_2,44,2.0,54.2162547616,1_I,training,05,1_B,4.0,00001,ignore,0.0,0.0,1.09496661777
4,1_44_2,44,2.0,57.8879902392,1_I,training,05,1_B,5.0,11011,kill,0.0,0.0,1.49553979942
5,1_44_2,44,2.0,61.7159942805,1_I,training,05,1_B,6.0,01001,kill,1.0,100.0,1.66796558283
6,1_44_2,44,2.0,65.1221506669,1_I,training,05,1_B,7.0,11001,kill,1.0,200.0,1.23923005965
7,1_44_2,44,2.0,68.63764016,1_I,training,05,1_B,8.0,00100,ignore,1.0,300.0,1.34649450691
8,1_44_2,44,2.0,74.0593580875,1_I,training,05,1_B,9.0,00000,ignore,1.0,400.0,3.24126669778
9,1_44_2,44,2.0,77.8405087777,1_I,training,05,1_B,10.0,10110,kill,0.0,300.0,1.61970945167
10,1_44_2,44,2.0,81.3247249348,1_I,training,05,1_B,11.0,00110,ignore,1.0,400.0,1.30963796612
11,1_44_2,44,2.0,85.1684136761,1_I,training,05,1_B,12.0,01011,kill,0.0,300.0,1.70314059372
12,1_44_2,44,2.0,88.3714058633,1_I,training,05,1_B,13.0,01100,ignore,0.0,200.0,1.0448204076
13,1_44_2,44,2.0,91.4962955847,1_I,training,05,1_B,14.0,11100,ignore,0.0,100.0,0.972611917598
14,1_44_2,44,2.0,94.5743389342,1_I,training,05,1_B,15.0,10111,ignore,1.0,200.0,0.939397596841
15,1_44_2,44,2.0,97.7304970653,1_I,training,05,1_B,16.0,01110,kill,0.0,100.0,0.991334948358
16,1_44_2,44,2.0,103.183491203,1_I,training,05,1_B,17.0,01000,ignore,0.0,0.0,3.31181952126
17,1_44_2,44,2.0,106.277119083,1_I,training,05,1_B,18.0,01101,ignore,0.0,0.0,0.93103715828
18,1_44_2,44,2.0,109.277004134,1_I,training,05,1_B,19.0,00111,ignore,1.0,100.0,0.854194197818
19,1_44_2,44,2.0,112.683107152,1_I,training,05,1_B,20.0,01010,kill,0.0,0.0,1.28279219353
20,1_44_2,44,2.0,117.729869365,1_I,training,05,1_B,21.0,00101,kill,1.0,100.0,2.89272611055
21,1_44_2,44,2.0,121.698498323,1_I,training,05,1_B,22.0,10101,kill,1.0,200.0,1.82256739564
22,1_44_2,44,2.0,125.182744859,1_I,training,05,1_B,23.0,11111,ignore,1.0,300.0,1.36514446337
23,1_44_2,44,2.0,128.651408507,1_I,training,05,1_B,24.0,10001,ignore,0.0,200.0,1.30870770568
24,1_44_2,44,2.0,131.870059531,1_I,training,05,1_B,25.0,11000,ignore,0.0,100.0,1.10627712319
25,1_44_2,44,2.0,134.588686949,1_I,training,05,1_B,26.0,11101,ignore,0.0,0.0,0.580542859922
26,1_44_2,44,2.0,138.166738304,1_I,training,05,1_B,27.0,10011,ignore,1.0,100.0,1.4238124503
27,1_44_2,44,2.0,142.354093002,1_I,training,05,1_B,28.0,10100,kill,0.0,0.0,2.03770715845
28,1_44_2,44,2.0,145.338335228,1_I,training,05,1_B,29.0,00010,ignore,1.0,100.0,0.85603870803
29,1_44_2,44,2.0,148.353914011,1_I,training,05,1_B,30.0,10000,ignore,1.0,200.0,0.878543128409
30,1_44_2,44,2.0,151.494415769,1_I,training,05,1_B,31.0,10010,ignore,1.0,300.0,1.0227433487
31,1_44_2,44,2.0,154.713049551,1_I,training,05,1_B,32.0,00011,kill,0.0,200.0,1.05813881407
32,1_44_2,44,2.0,157.650484815,1_I,training,05,1_B,33.0,11011,ignore,1.0,300.0,0.796135026522
33,1_44_2,44,2.0,161.869054144,1_I,training,05,1_B,34.0,10110,kill,0.0,200.0,2.08727411113
34,1_44_2,44,2.0,165.056467958,1_I,training,05,1_B,35.0,11000,ignore,0.0,100.0,1.01706777477
35,1_44_2,44,2.0,167.868885416,1_I,training,05,1_B,36.0,00010,ignore,1.0,200.0,0.687252681478
36,1_44_2,44,2.0,170.821925738,1_I,training,05,1_B,37.0,00001,ignore,0.0,100.0,0.791711157829
37,1_44_2,44,2.0,173.774980428,1_I,training,05,1_B,38.0,11111,ignore,1.0,200.0,0.82066089544
38,1_44_2,44,2.0,176.571754239,1_I,training,05,1_B,39.0,00000,ignore,1.0,300.0,0.664638649653
39,1_44_2,44,2.0,179.790376115,1_I,training,05,1_B,40.0,10000,ignore,1.0,400.0,1.07813120285
40,1_44_2,44,2.0,183.274676841,1_I,training,05,1_B,41.0,11101,kill,1.0,500.0,1.32854245103
41,1_44_2,44,2.0,186.399567384,1_I,training,05,1_B,42.0,00110,ignore,1.0,600.0,0.964520376029
42,1_44_2,44,2.0,189.899439914,1_I,training,05,1_B,43.0,10001,kill,1.0,700.0,1.36698158405
43,1_44_2,44,2.0,194.227465098,1_I,training,05,1_B,44.0,11010,ignore,1.0,800.0,2.18651023841
44,1_44_2,44,2.0,197.680450614,1_I,training,05,1_B,45.0,01111,ignore,1.0,900.0,1.31830548094
45,1_44_2,44,2.0,200.899117648,1_I,training,05,1_B,46.0,01011,ignore,1.0,1000.0,1.08398043087
46,1_44_2,44,2.0,204.352126154,1_I,training,05,1_B,47.0,10010,ignore,1.0,1100.0,1.30616940018
47,1_44_2,44,2.0,207.586387162,1_I,training,05,1_B,48.0,10011,ignore,1.0,1200.0,1.073456911
48,1_44_2,44,2.0,211.164374063,1_I,training,05,1_B,49.0,00011,ignore,1.0,1300.0,1.38698177289
49,1_44_2,44,2.0,215.054922724,1_I,training,05,1_B,50.0,11100,kill,1.0,1400.0,1.77491966959
50,1_44_2,44,2.0,218.882919376,1_I,training,05,1_B,51.0,00100,ignore,1.0,1500.0,1.63660685659
51,1_44_2,44,2.0,222.039082433,1_I,training,05,1_B,52.0,10101,kill,1.0,1600.0,1.00570882684
52,1_44_2,44,2.0,225.08581673,1_I,training,05,1_B,53.0,01101,kill,1.0,1700.0,0.927117420133
53,1_44_2,44,2.0,228.195105911,1_I,training,05,1_B,54.0,11001,kill,1.0,1800.0,0.969379816797
54,1_44_2,44,2.0,231.304384827,1_I,training,05,1_B,55.0,11110,ignore,1.0,1900.0,0.98161935106
55,1_44_2,44,2.0,234.898014144,1_I,training,05,1_B,56.0,00111,ignore,1.0,2000.0,1.4528364938
56,1_44_2,44,2.0,238.116651621,1_I,training,05,1_B,57.0,01100,ignore,0.0,1900.0,1.0930330226
57,1_44_2,44,2.0,243.163415476,1_I,training,05,1_B,58.0,01001,kill,1.0,2000.0,2.91417505892
58,1_44_2,44,2.0,246.428907946,1_I,training,05,1_B,59.0,00101,kill,1.0,2100.0,1.13646583961
59,1_44_2,44,2.0,249.413206003,1_I,training,05,1_B,60.0,01010,ignore,1.0,2200.0,0.875723610018
60,1_44_2,44,2.0,252.663118458,1_I,training,05,1_B,61.0,10111,ignore,1.0,2300.0,1.12626663826
61,1_44_2,44,2.0,255.631762195,1_I,training,05,1_B,62.0,01110,ignore,1.0,2400.0,0.848313359008
62,1_44_2,44,2.0,259.772245479,1_I,training,05,1_B,63.0,01000,ignore,0.0,2300.0,2.00133340066
63,1_44_2,44,2.0,262.772164194,1_I,training,05,1_B,64.0,10100,kill,0.0,2200.0,0.874337661548
64,1_44_2,44,2.0,266.209522895,1_I,training,05,1_B,65.0,10001,kill,1.0,2300.0,1.29508632825
65,1_44_2,44,2.0,269.365671173,1_I,training,05,1_B,66.0,00111,ignore,1.0,2400.0,0.992682717559
66,1_44_2,44,2.0,272.365592351,1_I,training,05,1_B,67.0,01111,ignore,1.0,2500.0,0.885534450221
67,1_44_2,44,2.0,276.256123359,1_I,training,05,1_B,68.0,11001,kill,1.0,2600.0,1.76077815095
68,1_44_2,44,2.0,279.834122987,1_I,training,05,1_B,69.0,01000,kill,1.0,2700.0,1.42829830899
69,1_44_2,44,2.0,283.583972836,1_I,training,05,1_B,70.0,11011,ignore,1.0,2800.0,1.63813156411
70,1_44_2,44,2.0,289.568176472,1_I,training,05,1_B,71.0,11100,kill,1.0,2900.0,3.85468929671
71,1_44_2,44,2.0,292.95870358,1_I,training,05,1_B,72.0,11111,ignore,1.0,3000.0,1.2689639091
72,1_44_2,44,2.0,296.817956325,1_I,training,05,1_B,73.0,01001,kill,1.0,3100.0,1.71819430948
73,1_44_2,44,2.0,300.255352384,1_I,training,05,1_B,74.0,10110,ignore,1.0,3200.0,1.29189117513
74,1_44_2,44,2.0,304.708290279,1_I,training,05,1_B,75.0,10000,kill,0.0,3100.0,2.3263210745
75,1_44_2,44,2.0,307.848852385,1_I,training,05,1_B,76.0,00101,kill,1.0,3200.0,0.988876285625
76,1_44_2,44,2.0,312.067489861,1_I,training,05,1_B,77.0,10100,kill,0.0,3100.0,2.0894380135
77,1_44_2,44,2.0,315.286118716,1_I,training,05,1_B,78.0,10101,kill,1.0,3200.0,0.970380688352
78,1_44_2,44,2.0,318.317237693,1_I,training,05,1_B,79.0,01011,ignore,1.0,3300.0,0.895062435418
79,1_44_2,44,2.0,321.239031774,1_I,training,05,1_B,80.0,10011,ignore,1.0,3400.0,0.800648801232
80,1_44_2,44,2.0,324.270195909,1_I,training,05,1_B,81.0,00110,ignore,1.0,3500.0,0.889906181634
81,1_44_2,44,2.0,329.379415709,1_I,training,05,1_B,82.0,11000,ignore,0.0,3400.0,2.99832791229
82,1_44_2,44,2.0,332.566846766,1_I,training,05,1_B,83.0,01101,kill,1.0,3500.0,1.06592327938
83,1_44_2,44,2.0,335.301111674,1_I,training,05,1_B,84.0,11101,kill,1.0,3600.0,0.594504566528
84,1_44_2,44,2.0,338.816607735,1_I,training,05,1_B,85.0,10010,ignore,1.0,3700.0,1.33220560808
85,1_44_2,44,2.0,342.238387653,1_I,training,05,1_B,86.0,11110,ignore,1.0,3800.0,1.24227619046
86,1_44_2,44,2.0,345.613260029,1_I,training,05,1_B,87.0,00011,ignore,1.0,3900.0,1.23864464421
87,1_44_2,44,2.0,348.988167711,1_I,training,05,1_B,88.0,01110,ignore,1.0,4000.0,1.24383374037
88,1_44_2,44,2.0,353.222449656,1_I,training,05,1_B,89.0,00100,kill,0.0,3900.0,2.06170344397
89,1_44_2,44,2.0,356.14422362,1_I,training,05,1_B,90.0,11010,ignore,1.0,4000.0,0.816851589797
90,1_44_2,44,2.0,359.253498432,1_I,training,05,1_B,91.0,00010,ignore,1.0,4100.0,1.00848400802
91,1_44_2,44,2.0,361.909672369,1_I,training,05,1_B,92.0,10111,ignore,1.0,4200.0,0.543380063937
92,1_44_2,44,2.0,365.440785803,1_I,training,05,1_B,93.0,01100,ignore,0.0,4100.0,1.38835827917
93,1_44_2,44,2.0,369.221907346,1_I,training,05,1_B,94.0,00001,kill,1.0,4200.0,1.59329309321
94,1_44_2,44,2.0,373.206143003,1_I,training,05,1_B,95.0,00000,ignore,1.0,4300.0,1.86813127264
95,1_44_2,44,2.0,376.424787048,1_I,training,05,1_B,96.0,01010,ignore,1.0,4400.0,1.04064983577
96,1_44_2,44,2.0,379.502861598,1_I,training,05,1_B,97.0,01111,ignore,1.0,4500.0,0.881806018941
97,1_44_2,44,2.0,383.455815298,1_I,training,05,1_B,98.0,11101,kill,1.0,4600.0,1.83670480899
98,1_44_2,44,2.0,386.315094317,1_I,training,05,1_B,99.0,00011,ignore,1.0,4700.0,0.707921623301
99,1_44_2,44,2.0,391.830540705,1_I,training,05,1_B,100.0,11100,kill,1.0,4800.0,3.39849466948
100,1_44_2,44,2.0,394.596117127,1_I,training,05,1_B,101.0,00010,ignore,1.0,4900.0,0.623689127161
101,1_44_2,44,2.0,398.564715706,1_I,training,05,1_B,102.0,00001,kill,1.0,5000.0,1.77284690483
102,1_44_2,44,2.0,403.127102887,1_I,training,05,1_B,103.0,01000,ignore,0.0,4900.0,2.42653836791
103,1_44_2,44,2.0,406.111363997,1_I,training,05,1_B,104.0,01110,ignore,1.0,5000.0,0.866570027961
104,1_44_2,44,2.0,409.564406577,1_I,training,05,1_B,105.0,00100,kill,0.0,4900.0,1.3155528789
105,1_44_2,44,2.0,412.736152523,1_I,training,05,1_B,106.0,00110,ignore,1.0,5000.0,1.00241227287
106,1_44_2,44,2.0,417.501640682,1_I,training,05,1_B,107.0,10001,kill,1.0,5100.0,2.62617077956
107,1_44_2,44,2.0,421.095281494,1_I,training,05,1_B,108.0,01001,ignore,0.0,5000.0,1.46245315342
108,1_44_2,44,2.0,424.017039448,1_I,training,05,1_B,109.0,10010,ignore,1.0,5100.0,0.824324873547
109,1_44_2,44,2.0,427.751285471,1_I,training,05,1_B,110.0,10000,kill,0.0,5000.0,1.61762724473
110,1_44_2,44,2.0,430.688726483,1_I,training,05,1_B,111.0,10111,ignore,1.0,5100.0,0.79815811718
111,1_44_2,44,2.0,433.391759929,1_I,training,05,1_B,112.0,11011,ignore,1.0,5200.0,0.560959358785
112,1_44_2,44,2.0,437.391638822,1_I,training,05,1_B,113.0,00000,ignore,1.0,5300.0,1.83823772711
113,1_44_2,44,2.0,440.500908708,1_I,training,05,1_B,114.0,11010,ignore,1.0,5400.0,0.992227440056
114,1_44_2,44,2.0,443.610190498,1_I,training,05,1_B,115.0,10110,ignore,1.0,5500.0,0.990807007086
115,1_44_2,44,2.0,447.219420357,1_I,training,05,1_B,116.0,01011,ignore,1.0,5600.0,1.47148809238
116,1_44_2,44,2.0,451.3287042,1_I,training,05,1_B,117.0,11111,ignore,1.0,5700.0,1.97957614444
117,1_44_2,44,2.0,454.766098206,1_I,training,05,1_B,118.0,01010,ignore,1.0,5800.0,1.34014648523
118,1_44_2,44,2.0,461.06273141,1_I,training,05,1_B,119.0,00101,kill,1.0,5900.0,4.14924111521
119,1_44_2,44,2.0,464.421996677,1_I,training,05,1_B,120.0,01101,kill,1.0,6000.0,1.21843508519
120,1_44_2,44,2.0,470.999957305,1_I,training,05,1_B,121.0,11000,ignore,0.0,5900.0,4.42571484521
121,1_44_2,44,2.0,474.577959396,1_I,training,05,1_B,122.0,10100,kill,0.0,5800.0,1.44474084693
122,1_44_2,44,2.0,477.905994022,1_I,training,05,1_B,123.0,00111,ignore,1.0,5900.0,1.20090464338
123,1_44_2,44,2.0,481.358974612,1_I,training,05,1_B,124.0,01100,kill,1.0,6000.0,1.34410563423
124,1_44_2,44,2.0,484.39015681,1_I,training,05,1_B,125.0,10011,ignore,1.0,6100.0,0.904834685824
125,1_44_2,44,2.0,487.343183174,1_I,training,05,1_B,126.0,11110,ignore,1.0,6200.0,0.842916534784
126,1_44_2,44,2.0,492.014868977,1_I,training,05,1_B,127.0,10101,kill,1.0,6300.0,2.53021026924
127,1_44_2,44,2.0,495.514860151,1_I,training,05,1_B,128.0,11001,kill,1.0,6400.0,1.37539087565
128,1_44_2,44,2.0,498.624059014,1_I,training,05,1_B,129.0,11111,ignore,1.0,6500.0,0.973968718454
129,1_44_2,44,2.0,502.655207139,1_I,training,05,1_B,130.0,01000,ignore,0.0,6400.0,1.88353147552
130,1_44_2,44,2.0,505.639466196,1_I,training,05,1_B,131.0,10011,ignore,1.0,6500.0,0.892110726445
131,1_44_2,44,2.0,509.608077501,1_I,training,05,1_B,132.0,10100,kill,0.0,6400.0,1.85973840223
132,1_44_2,44,2.0,512.592390749,1_I,training,05,1_B,133.0,01011,ignore,1.0,6500.0,0.874568789803
133,1_44_2,44,2.0,515.576680185,1_I,training,05,1_B,134.0,10111,ignore,1.0,6600.0,0.850988781453
134,1_44_2,44,2.0,518.373454407,1_I,training,05,1_B,135.0,00111,ignore,1.0,6700.0,0.621108947619
135,1_44_2,44,2.0,524.451370081,1_I,training,05,1_B,136.0,00001,kill,1.0,6800.0,3.95901065612
136,1_44_2,44,2.0,527.732487724,1_I,training,05,1_B,137.0,01111,ignore,1.0,6900.0,1.15707689674
137,1_44_2,44,2.0,530.498026378,1_I,training,05,1_B,138.0,11010,ignore,1.0,7000.0,0.673841084751
138,1_44_2,44,2.0,533.982309452,1_I,training,05,1_B,139.0,11011,ignore,1.0,7100.0,1.3723443343
139,1_44_2,44,2.0,537.216603301,1_I,training,05,1_B,140.0,10010,ignore,1.0,7200.0,1.07172734912
140,1_44_2,44,2.0,544.403860293,1_I,training,05,1_B,141.0,00101,kill,1.0,7300.0,5.07541103266
141,1_44_2,44,2.0,550.903656876,1_I,training,05,1_B,142.0,00000,kill,0.0,7200.0,4.33724568195
142,1_44_2,44,2.0,554.669177877,1_I,training,05,1_B,143.0,01001,kill,1.0,7300.0,1.62345060937
143,1_44_2,44,2.0,558.684661418,1_I,training,05,1_B,144.0,11100,kill,1.0,7400.0,1.89826005172
144,1_44_2,44,2.0,561.918943773,1_I,training,05,1_B,145.0,10000,ignore,1.0,7500.0,1.10372732285
145,1_44_2,44,2.0,565.106318997,1_I,training,05,1_B,146.0,00110,ignore,1.0,7600.0,1.09359914314
146,1_44_2,44,2.0,568.121869043,1_I,training,05,1_B,147.0,10110,ignore,1.0,7700.0,0.909703979306
147,1_44_2,44,2.0,572.762379217,1_I,training,05,1_B,148.0,01100,kill,1.0,7800.0,2.5024617417
148,1_44_2,44,2.0,575.840371661,1_I,training,05,1_B,149.0,01010,ignore,1.0,7900.0,0.968083363815
149,1_44_2,44,2.0,579.324639545,1_I,training,05,1_B,150.0,10001,kill,1.0,8000.0,1.30875450608
150,1_44_2,44,2.0,582.965187897,1_I,training,05,1_B,151.0,01101,kill,1.0,8100.0,1.49504346894
151,1_44_2,44,2.0,586.683815316,1_I,training,05,1_B,152.0,11001,kill,1.0,8200.0,1.56084358939
152,1_44_2,44,2.0,590.152453921,1_I,training,05,1_B,153.0,00011,ignore,1.0,8300.0,1.32366453643
153,1_44_2,44,2.0,597.824071987,1_I,training,05,1_B,154.0,11000,ignore,0.0,8200.0,5.56357689653
154,1_44_2,44,2.0,602.058287426,1_I,training,05,1_B,155.0,00100,kill,0.0,8100.0,2.04553596097
155,1_44_2,44,2.0,605.151958001,1_I,training,05,1_B,156.0,01110,ignore,1.0,8200.0,0.963522788713
156,1_44_2,44,2.0,609.12054139,1_I,training,05,1_B,157.0,11101,kill,1.0,8300.0,1.83872584699
157,1_44_2,44,2.0,613.839164703,1_I,training,05,1_B,158.0,10101,kill,1.0,8400.0,2.59124085494
158,1_44_2,44,2.0,618.29213503,1_I,training,05,1_B,159.0,00010,ignore,1.0,8500.0,2.3325603058
159,1_44_2,44,2.0,621.417057183,1_I,training,05,1_B,160.0,11110,ignore,1.0,8600.0,0.975706080398
160,1_44_2,44,2.0,626.416924993,1_I,training,05,1_B,161.0,10100,kill,0.0,8500.0,2.84860606673
161,1_44_2,44,2.0,629.43244466,1_I,training,05,1_B,162.0,01011,ignore,1.0,8600.0,0.894282428875
162,1_44_2,44,2.0,632.994801051,1_I,training,05,1_B,163.0,10011,ignore,1.0,8700.0,1.42690784469
163,1_44_2,44,2.0,636.775968163,1_I,training,05,1_B,164.0,10111,ignore,1.0,8800.0,1.65976853511
164,1_44_2,44,2.0,639.744623394,1_I,training,05,1_B,165.0,10010,ignore,1.0,8900.0,0.839869993436
165,1_44_2,44,2.0,644.228826004,1_I,training,05,1_B,166.0,10001,kill,1.0,9000.0,2.36779935933
166,1_44_2,44,2.0,647.931843028,1_I,training,05,1_B,167.0,01000,ignore,0.0,8900.0,1.56952547276
167,1_44_2,44,2.0,651.166111836,1_I,training,05,1_B,168.0,01111,ignore,1.0,9000.0,1.13975541458
168,1_44_2,44,2.0,655.603456578,1_I,training,05,1_B,169.0,11010,ignore,1.0,9100.0,2.36302900352
169,1_44_2,44,2.0,659.322226861,1_I,training,05,1_B,170.0,00011,ignore,1.0,9200.0,1.60751918098
170,1_44_2,44,2.0,663.603198766,1_I,training,05,1_B,171.0,11000,ignore,0.0,9100.0,2.17404121801
171,1_44_2,44,2.0,667.681212147,1_I,training,05,1_B,172.0,00000,ignore,1.0,9200.0,1.97135898077
172,1_44_2,44,2.0,673.056065639,1_I,training,05,1_B,173.0,11100,kill,1.0,9300.0,3.26213515707
173,1_44_2,44,2.0,676.555933243,1_I,training,05,1_B,174.0,10110,ignore,1.0,9400.0,1.38590618492
174,1_44_2,44,2.0,682.696347558,1_I,training,05,1_B,175.0,01010,ignore,1.0,9500.0,3.97838109231
175,1_44_2,44,2.0,686.930614313,1_I,training,05,1_B,176.0,00010,ignore,1.0,9600.0,2.13730373085
176,1_44_2,44,2.0,692.164796909,1_I,training,05,1_B,177.0,00101,kill,1.0,9700.0,3.13056857961
177,1_44_2,44,2.0,695.649059866,1_I,training,05,1_B,178.0,11011,ignore,1.0,9800.0,1.35249398882
178,1_44_2,44,2.0,698.820848097,1_I,training,05,1_B,179.0,00111,ignore,1.0,9900.0,1.02511169488
179,1_44_2,44,2.0,703.820714264,1_I,training,05,1_B,180.0,11101,kill,1.0,10000.0,2.88310165086
180,1_44_2,44,2.0,708.133041611,1_I,training,05,1_B,181.0,00110,ignore,1.0,10100.0,2.1922625814
181,1_44_2,44,2.0,715.132867136,1_I,training,05,1_B,182.0,10101,kill,1.0,10200.0,4.8893704403
182,1_44_2,44,2.0,719.960837924,1_I,training,05,1_B,183.0,11111,ignore,1.0,10300.0,2.69917282359
183,1_44_2,44,2.0,723.991966343,1_I,training,05,1_B,184.0,01001,kill,1.0,10400.0,1.92245257047
184,1_44_2,44,2.0,728.663679242,1_I,training,05,1_B,185.0,00100,kill,0.0,10300.0,2.52507002611
185,1_44_2,44,2.0,733.116665168,1_I,training,05,1_B,186.0,11110,ignore,1.0,10400.0,2.33952617476
186,1_44_2,44,2.0,736.741537853,1_I,training,05,1_B,187.0,01100,kill,1.0,10500.0,1.51343561272
187,1_44_2,44,2.0,740.21018549,1_I,training,05,1_B,188.0,11001,kill,1.0,10600.0,1.27259709747
188,1_44_2,44,2.0,743.3350592,1_I,training,05,1_B,189.0,01110,ignore,1.0,10700.0,0.972731792286
189,1_44_2,44,2.0,747.381819772,1_I,training,05,1_B,190.0,00001,kill,1.0,10800.0,1.95663122563
190,1_44_2,44,2.0,750.787983548,1_I,training,05,1_B,191.0,10000,kill,0.0,10700.0,1.27701932405
191,1_44_2,44,2.0,754.569119048,1_I,training,05,1_B,192.0,01101,kill,1.0,10800.0,1.66476960865
192,1_44_2,44,2.0,757.943977056,1_I,training,05,1_B,193.0,01000,ignore,0.0,10700.0,1.24930815472
193,1_44_2,44,2.0,761.443902956,1_I,training,05,1_B,194.0,01010,ignore,1.0,10800.0,1.40562351876
194,1_44_2,44,2.0,764.850017468,1_I,training,05,1_B,195.0,00101,kill,1.0,10900.0,1.30679504753
195,1_44_2,44,2.0,768.412384944,1_I,training,05,1_B,196.0,00000,ignore,1.0,11000.0,1.4247090473
196,1_44_2,44,2.0,771.412327059,1_I,training,05,1_B,197.0,00010,ignore,1.0,11100.0,0.881634417501
197,1_44_2,44,2.0,776.302799361,1_I,training,05,1_B,198.0,10011,ignore,1.0,11200.0,2.77067150763
198,1_44_2,44,2.0,779.755803351,1_I,training,05,1_B,199.0,01011,ignore,1.0,11300.0,1.33225199795
199,1_44_2,44,2.0,782.78692356,1_I,training,05,1_B,200.0,10111,ignore,1.0,11400.0,0.945256267045
200,1_44_2,44,2.0,786.989927242,1_I,training,05,1_B,201.0,10100,kill,0.0,11300.0,2.04518249485
201,1_44_2,44,2.0,790.567945754,1_I,training,05,1_B,202.0,01101,kill,1.0,11400.0,1.39941261402
202,1_44_2,44,2.0,793.833463266,1_I,training,05,1_B,203.0,00011,ignore,1.0,11500.0,1.15052648389
203,1_44_2,44,2.0,796.692770612,1_I,training,05,1_B,204.0,11110,ignore,1.0,11600.0,0.757974232689
204,1_44_2,44,2.0,800.817625849,1_I,training,05,1_B,205.0,10001,kill,1.0,11700.0,2.01327365873
205,1_44_2,44,2.0,804.067522293,1_I,training,05,1_B,206.0,00001,kill,1.0,11800.0,1.09125255503
206,1_44_2,44,2.0,807.55183164,1_I,training,05,1_B,207.0,11101,kill,1.0,11900.0,1.34939202595
207,1_44_2,44,2.0,810.801707968,1_I,training,05,1_B,208.0,11001,kill,1.0,12000.0,1.13541324131
208,1_44_2,44,2.0,813.989104951,1_I,training,05,1_B,209.0,11010,ignore,1.0,12100.0,1.10594746779
209,1_44_2,44,2.0,816.692143323,1_I,training,05,1_B,210.0,00111,ignore,1.0,12200.0,0.549212870765
210,1_44_2,44,2.0,820.816991991,1_I,training,05,1_B,211.0,10000,kill,0.0,12100.0,1.99264248564
211,1_44_2,44,2.0,824.520016405,1_I,training,05,1_B,212.0,00100,kill,0.0,12000.0,1.56824010408
212,1_44_2,44,2.0,828.004249804,1_I,training,05,1_B,213.0,01100,ignore,0.0,11900.0,1.38568080408
213,1_44_2,44,2.0,832.097902727,1_I,training,05,1_B,214.0,11000,ignore,0.0,11800.0,1.98487526259
214,1_44_2,44,2.0,835.504075534,1_I,training,05,1_B,215.0,10110,ignore,1.0,11900.0,1.25736439073
215,1_44_2,44,2.0,839.925780735,1_I,training,05,1_B,216.0,11100,kill,1.0,12000.0,2.34386834803
216,1_44_2,44,2.0,843.581943587,1_I,training,05,1_B,217.0,01001,kill,1.0,12100.0,1.54539781771
217,1_44_2,44,2.0,943.891219466,1_I,test,05,2,0.0,01110,ignore,0.0,0.0,3.22100335937
218,1_44_2,44,2.0,948.70271939,1_I,test,05,2,1.0,10101,ignore,0.0,0.0,2.66545478282
219,1_44_2,44,2.0,952.233873057,1_I,test,05,2,2.0,01111,kill,1.0,100.0,1.40843400549
220,1_44_2,44,2.0,955.702510431,1_I,test,05,2,3.0,10010,kill,0.0,0.0,1.37582028978
221,1_44_2,44,2.0,959.124286653,1_I,test,05,2,4.0,11011,ignore,1.0,100.0,1.29864274756
222,1_44_2,44,2.0,962.56168846,1_I,test,05,2,5.0,00110,kill,1.0,200.0,1.34503794732
223,1_44_2,44,2.0,966.389683469,1_I,test,05,2,6.0,11111,kill,1.0,300.0,1.69604787105
224,1_44_2,44,2.0,969.967679403,1_I,test,05,2,7.0,11011,ignore,1.0,400.0,1.44333026667
225,1_44_2,44,2.0,973.639431712,1_I,test,05,2,8.0,11101,ignore,1.0,500.0,1.59962962005
226,1_44_2,44,2.0,978.60803727,1_I,test,05,2,9.0,01011,ignore,1.0,600.0,2.84616628836
227,1_44_2,44,2.0,982.498548162,1_I,test,05,2,10.0,00000,ignore,1.0,700.0,1.78885551282
228,1_44_2,44,2.0,986.404661237,1_I,test,05,2,11.0,00111,kill,1.0,800.0,1.76607275326
229,1_44_2,44,2.0,989.685858522,1_I,test,05,2,12.0,11111,kill,1.0,900.0,1.16046951468
230,1_44_2,44,2.0,992.998203522,1_I,test,05,2,13.0,00110,kill,1.0,1000.0,1.21646823711
231,1_44_2,44,2.0,996.357449494,1_I,test,05,3,0.0,00010,ignore,1.0,1100.0,1.25576291414
232,1_44_2,44,2.0,1001.34168556,1_I,test,05,3,1.0,10101,ignore,1.0,1200.0,2.84918121892
233,1_44_2,44,2.0,1004.57596792,1_I,test,05,3,2.0,11110,kill,1.0,1300.0,1.15298884139
234,1_44_2,44,2.0,1008.48209659,1_I,test,05,3,3.0,10111,kill,0.0,1200.0,1.78276366171
235,1_44_2,44,2.0,1013.65382776,1_I,test,05,3,4.0,00001,ignore,1.0,1300.0,3.09297883268
236,1_44_2,44,2.0,1017.02870096,1_I,test,05,3,5.0,11010,ignore,0.0,1200.0,1.24823010357
237,1_44_2,44,2.0,1020.65359458,1_I,test,05,3,6.0,01000,ignore,1.0,1300.0,1.49851572965
238,1_44_2,44,2.0,1024.10660924,1_I,test,05,3,7.0,11100,ignore,0.0,1200.0,1.36456849012
239,1_44_2,44,2.0,1027.21589842,1_I,test,05,3,8.0,11000,ignore,0.0,1100.0,0.984681492539
240,1_44_2,44,2.0,1030.23140659,1_I,test,05,3,9.0,10000,kill,1.0,1200.0,0.923496137118
241,1_44_2,44,2.0,1033.45006747,1_I,test,05,3,10.0,10010,kill,1.0,1300.0,1.08060998154
242,1_44_2,44,2.0,1036.43431503,1_I,test,05,3,11.0,10110,kill,1.0,1400.0,0.87365248738
243,1_44_2,44,2.0,1039.4030105,1_I,test,05,3,12.0,01101,ignore,1.0,1500.0,0.8729685448
244,1_44_2,44,2.0,1042.37163699,1_I,test,05,3,13.0,01110,kill,0.0,1400.0,0.850644757515
245,1_44_2,44,2.0,1045.71532347,1_I,test,05,3,14.0,00100,kill,0.0,1300.0,1.23187090317
246,1_44_2,44,2.0,1049.51202175,1_I,test,05,3,15.0,11001,ignore,0.0,1200.0,1.69889694759
247,1_44_2,44,2.0,1052.18382784,1_I,test,05,3,16.0,01010,ignore,1.0,1300.0,0.585395732214
248,1_44_2,44,2.0,1055.16808895,1_I,test,05,3,17.0,10011,kill,1.0,1400.0,0.900582829099
249,1_44_2,44,2.0,1058.23049275,1_I,test,05,3,18.0,01001,ignore,1.0,1500.0,0.948595516113
250,1_44_2,44,2.0,1061.26170615,1_I,test,05,3,19.0,00101,kill,0.0,1400.0,0.903218019628
251,1_44_2,44,2.0,1064.38660039,1_I,test,05,3,20.0,10001,kill,1.0,1500.0,1.02054085654
252,1_44_2,44,2.0,1067.68334895,1_I,test,05,3,21.0,01100,ignore,1.0,1600.0,1.18733622428
253,1_44_2,44,2.0,1071.27696226,1_I,test,05,3,22.0,10100,ignore,0.0,1500.0,1.48738626786
254,1_44_2,44,2.0,1075.0268626,1_I,test,05,3,23.0,00011,kill,0.0,1400.0,1.60127584439
255,1_44_2,44,2.0,1078.32361856,1_I,test,05,3,24.0,01111,kill,0.0,1300.0,1.19386200535
256,1_44_2,44,2.0,1081.54230078,1_I,test,05,3,25.0,11101,ignore,1.0,1400.0,1.10960610901
257,1_44_2,44,2.0,1084.26093477,1_I,test,05,3,26.0,01101,ignore,1.0,1500.0,0.585982789771
258,1_44_2,44,2.0,1087.65148856,1_I,test,05,3,27.0,10110,kill,1.0,1600.0,1.33922279327
259,1_44_2,44,2.0,1090.63574064,1_I,test,05,3,28.0,01111,ignore,1.0,1700.0,0.852008126847
260,1_44_2,44,2.0,1094.02627144,1_I,test,05,3,29.0,10100,kill,1.0,1800.0,1.27041266862
261,1_44_2,44,2.0,1097.04180794,1_I,test,05,3,30.0,00100,kill,0.0,1700.0,0.907932132863
262,1_44_2,44,2.0,1100.38551454,1_I,test,05,3,31.0,10000,ignore,0.0,1600.0,1.2524585601
263,1_44_2,44,2.0,1103.72904748,1_I,test,05,3,32.0,01011,ignore,1.0,1700.0,1.2838456129
264,1_44_2,44,2.0,1106.61961257,1_I,test,05,3,33.0,00011,ignore,1.0,1800.0,0.753343046466
265,1_44_2,44,2.0,1109.60390816,1_I,test,05,3,34.0,10011,ignore,0.0,1700.0,0.87445753624
266,1_44_2,44,2.0,1112.77570994,1_I,test,05,3,35.0,00110,ignore,1.0,1800.0,1.08452356174
267,1_44_2,44,2.0,1115.74432412,1_I,test,05,3,36.0,11110,ignore,0.0,1700.0,0.902272569592
268,1_44_2,44,2.0,1121.36914795,1_I,test,05,3,37.0,01001,ignore,1.0,1800.0,3.54462232699
269,1_44_2,44,2.0,1124.85339572,1_I,test,05,3,38.0,00001,kill,0.0,1700.0,1.323017131
270,1_44_2,44,2.0,1128.1189395,1_I,test,05,3,39.0,01000,ignore,1.0,1800.0,1.16338714968
271,1_44_2,44,2.0,1131.22820939,1_I,test,05,3,40.0,10001,ignore,0.0,1700.0,1.05036953836
272,1_44_2,44,2.0,1134.25941129,1_I,test,05,3,41.0,11010,ignore,0.0,1600.0,0.958121038131
273,1_44_2,44,2.0,1138.02485388,1_I,test,05,3,42.0,11100,kill,1.0,1700.0,1.67046735118
274,1_44_2,44,2.0,1141.44663955,1_I,test,05,3,43.0,01010,ignore,1.0,1800.0,1.33432968906
275,1_44_2,44,2.0,1144.68088495,1_I,test,05,3,44.0,00101,ignore,1.0,1900.0,1.09139049303
276,1_44_2,44,2.0,1148.33705602,1_I,test,05,3,45.0,10111,ignore,1.0,2000.0,1.60103157918
277,1_44_2,44,2.0,1151.54009008,1_I,test,05,3,46.0,00010,ignore,1.0,2100.0,1.06776737906
278,1_44_2,44,2.0,1154.82122702,1_I,test,05,3,47.0,00000,ignore,1.0,2200.0,1.1559783191
279,1_44_2,44,2.0,1158.39921433,1_I,test,05,3,48.0,11001,ignore,0.0,2100.0,1.48563412685
280,1_44_2,44,2.0,1162.43037189,1_I,test,05,3,49.0,01110,kill,0.0,2000.0,1.93227121074
281,1_44_2,44,2.0,1165.33648333,1_I,test,05,3,50.0,10101,ignore,1.0,2100.0,0.794790541559
282,1_44_2,44,2.0,1168.61766625,1_I,test,05,3,51.0,00111,ignore,1.0,2200.0,1.12976845711
283,1_44_2,44,2.0,1172.53940614,1_I,test,05,3,52.0,11000,kill,1.0,2300.0,1.80200929686
284,1_44_2,44,2.0,1175.63306152,1_I,test,05,3,53.0,11111,ignore,1.0,2400.0,0.975737691189
285,1_44_2,44,2.0,1178.64860952,1_I,test,05,3,54.0,11011,ignore,0.0,2300.0,0.914138111242
286,1_44_2,44,2.0,1182.08597725,1_I,test,05,3,55.0,01100,kill,0.0,2200.0,1.34317044744
287,1_44_2,44,2.0,1185.33586794,1_I,test,05,3,56.0,10010,ignore,0.0,2100.0,1.14555332638
288,1_44_2,44,2.0,1188.38263057,1_I,test,05,3,57.0,11000,kill,1.0,2200.0,0.952626918355
289,1_44_2,44,2.0,1192.64813084,1_I,test,05,3,58.0,10000,ignore,0.0,2100.0,2.20483012894
290,1_44_2,44,2.0,1196.24177083,1_I,test,05,3,59.0,01000,ignore,1.0,2200.0,1.49563216862
291,1_44_2,44,2.0,1199.92918854,1_I,test,05,3,60.0,01100,kill,0.0,2100.0,1.56219176912
292,1_44_2,44,2.0,1203.56969913,1_I,test,05,3,61.0,11001,ignore,0.0,2000.0,1.55102987548
293,1_44_2,44,2.0,1206.83518215,1_I,test,05,3,62.0,00111,ignore,1.0,2100.0,1.12876306973
294,1_44_2,44,2.0,1209.41326594,1_I,test,05,3,63.0,11010,ignore,0.0,2000.0,0.559351724245
295,1_44_2,44,2.0,1212.88187458,1_I,test,05,3,64.0,01101,ignore,1.0,2100.0,1.3254560883
296,1_44_2,44,2.0,1217.6786217,1_I,test,05,3,65.0,11011,kill,1.0,2200.0,2.70402241164
297,1_44_2,44,2.0,1221.56908703,1_I,test,05,3,66.0,10111,ignore,1.0,2300.0,1.80060364296
298,1_44_2,44,2.0,1224.88149361,1_I,test,05,3,67.0,10101,ignore,1.0,2400.0,1.09890606135
299,1_44_2,44,2.0,1228.89700055,1_I,test,05,3,68.0,10010,kill,1.0,2500.0,1.96053084782
300,1_44_2,44,2.0,1233.41249866,1_I,test,05,3,69.0,00001,ignore,1.0,2600.0,2.3697136596
301,1_44_2,44,2.0,1238.64670835,1_I,test,05,3,70.0,00100,ignore,1.0,2700.0,3.10477663692
302,1_44_2,44,2.0,1242.02156267,1_I,test,05,3,71.0,00101,ignore,1.0,2800.0,1.26022290945
303,1_44_2,44,2.0,1245.11523324,1_I,test,05,3,72.0,01011,ignore,1.0,2900.0,0.957359094897
304,1_44_2,44,2.0,1248.30262448,1_I,test,05,3,73.0,00000,kill,0.0,2800.0,1.12860419471
305,1_44_2,44,2.0,1251.3962659,1_I,test,05,3,74.0,01110,ignore,1.0,2900.0,1.03453622658
306,1_44_2,44,2.0,1254.81804007,1_I,test,05,3,75.0,00110,kill,0.0,2800.0,1.29947612297
307,1_44_2,44,2.0,1258.03671121,1_I,test,05,3,76.0,01010,ignore,1.0,2900.0,1.160087722
308,1_44_2,44,2.0,1260.92722375,1_I,test,05,3,77.0,00011,ignore,1.0,3000.0,0.745767130278
309,1_44_2,44,2.0,1263.95840348,1_I,test,05,3,78.0,11100,ignore,0.0,2900.0,0.965266308604
310,1_44_2,44,2.0,1266.08333672,1_I,test,05,3,79.0,00010,ignore,1.0,3000.0,0.000372350492398
311,1_44_2,44,2.0,1269.81756714,1_I,test,05,3,80.0,11110,ignore,0.0,2900.0,1.63310257455
312,1_44_2,44,2.0,1272.97375032,1_I,test,05,3,81.0,11101,ignore,1.0,3000.0,1.10505046026
313,1_44_2,44,2.0,1277.2235938,1_I,test,05,3,82.0,10100,ignore,0.0,2900.0,2.15832983357
314,1_44_2,44,2.0,1281.50473197,1_I,test,05,3,83.0,01111,ignore,1.0,3000.0,2.17375056294
315,1_44_2,44,2.0,1285.3483538,1_I,test,05,3,84.0,10110,kill,1.0,3100.0,1.78870772211
316,1_44_2,44,2.0,1289.05134578,1_I,test,05,3,85.0,10011,kill,1.0,3200.0,1.58992141229
317,1_44_2,44,2.0,1292.11373891,1_I,test,05,3,86.0,11111,kill,0.0,3100.0,1.02261115812
318,1_44_2,44,2.0,1295.53554182,1_I,test,05,3,87.0,01001,ignore,1.0,3200.0,1.29084966113
319,1_44_2,44,2.0,1299.00417304,1_I,test,05,3,88.0,10001,kill,1.0,3300.0,1.34737221953
320,1_44_2,44,2.0,1302.36341449,1_I,test,05,3,89.0,00110,ignore,1.0,3400.0,1.25875978139
321,1_44_2,44,2.0,1306.00394478,1_I,test,05,3,90.0,10110,kill,1.0,3500.0,1.50935741008
322,1_44_2,44,2.0,1309.41006709,1_I,test,05,3,91.0,01010,ignore,1.0,3600.0,1.3743017402
323,1_44_2,44,2.0,1313.15997524,1_I,test,05,3,92.0,11111,ignore,1.0,3700.0,1.63592455612
324,1_44_2,44,2.0,1317.45667084,1_I,test,05,3,93.0,00010,ignore,1.0,3800.0,2.17437374711
325,1_44_2,44,2.0,1320.5972116,1_I,test,05,3,94.0,00100,ignore,1.0,3900.0,1.0281923102
326,1_44_2,44,2.0,1323.73774251,1_I,test,05,3,95.0,00000,ignore,1.0,4000.0,1.01337177534
327,1_44_2,44,2.0,1326.87829681,1_I,test,05,3,96.0,10011,kill,1.0,4100.0,1.11038365238
328,1_44_2,44,2.0,1330.19065454,1_I,test,05,4,0.0,01000,ignore,1.0,4200.0,1.21001388822
329,1_44_2,44,2.0,1333.42494182,1_I,test,05,4,1.0,10001,kill,0.0,4100.0,1.11393145056
330,1_44_2,44,2.0,1336.89356688,1_I,test,05,4,2.0,01101,ignore,1.0,4200.0,1.39085347906
331,1_44_2,44,2.0,1340.86217736,1_I,test,05,4,3.0,11000,kill,0.0,4100.0,1.92270217257
332,1_44_2,44,2.0,1344.33085332,1_I,test,05,4,4.0,01001,ignore,1.0,4200.0,1.37675260286
333,1_44_2,44,2.0,1347.44011418,1_I,test,05,4,5.0,01011,ignore,0.0,4100.0,0.94018294027
334,1_44_2,44,2.0,1350.72126754,1_I,test,05,4,6.0,00101,ignore,1.0,4200.0,1.15312595833
335,1_44_2,44,2.0,1354.20550832,1_I,test,05,4,7.0,10111,kill,1.0,4300.0,1.42243758613
336,1_44_2,44,2.0,1357.95541031,1_I,test,05,4,8.0,11100,ignore,1.0,4400.0,1.60886202382
337,1_44_2,44,2.0,1361.36155561,1_I,test,05,4,9.0,11101,ignore,1.0,4500.0,1.28027236186
338,1_44_2,44,2.0,1364.65834071,1_I,test,05,4,10.0,01111,kill,1.0,4600.0,1.23041270146
339,1_44_2,44,2.0,1367.83009035,1_I,test,05,4,11.0,11011,ignore,1.0,4700.0,1.05268328409
340,1_44_2,44,2.0,1370.98628625,1_I,test,05,4,12.0,01100,kill,0.0,4600.0,1.09234990108
341,1_44_2,44,2.0,1375.12675353,1_I,test,05,4,13.0,10101,ignore,1.0,4700.0,1.98601037737
342,1_44_2,44,2.0,1378.57978215,1_I,test,05,4,14.0,11001,kill,0.0,4600.0,1.32546758313
343,1_44_2,44,2.0,1381.92346986,1_I,test,05,4,15.0,00111,ignore,0.0,4500.0,1.22298416546
344,1_44_2,44,2.0,1385.42333829,1_I,test,05,4,16.0,01110,ignore,0.0,4400.0,1.41769884112
345,1_44_2,44,2.0,1388.84503158,1_I,test,05,4,17.0,00001,ignore,1.0,4500.0,1.36472038613
346,1_44_2,44,2.0,1392.0480874,1_I,test,05,4,18.0,00011,ignore,0.0,4400.0,1.04862191318
347,1_44_2,44,2.0,1395.43861615,1_I,test,05,4,19.0,11010,ignore,1.0,4500.0,1.27724839965
348,1_44_2,44,2.0,1398.90726995,1_I,test,05,4,20.0,10000,kill,0.0,4400.0,1.35733782945
349,1_44_2,44,2.0,1402.70399983,1_I,test,05,4,21.0,11110,ignore,1.0,4500.0,1.75344773156
350,1_44_2,44,2.0,1406.18829727,1_I,test,05,4,22.0,10100,kill,0.0,4400.0,1.34246474678
351,1_44_2,44,2.0,1409.42253734,1_I,test,05,4,23.0,10010,ignore,0.0,4300.0,1.13111622631
352,1_44_2,44,2.0,1413.78179522,1_I,test,05,4,24.0,11000,kill,0.0,4200.0,2.23174117576
353,1_44_2,44,2.0,1416.31294848,1_I,test,05,4,25.0,01011,ignore,0.0,4100.0,0.472167108603
354,1_44_2,44,2.0,1418.67225808,1_I,test,05,4,26.0,10110,ignore,0.0,4000.0,0.296586814524
355,1_44_2,44,2.0,1422.21901475,1_I,test,05,4,27.0,11101,ignore,1.0,4100.0,1.43701714003
356,1_44_2,44,2.0,1425.07825929,1_I,test,05,4,28.0,11110,ignore,1.0,4200.0,0.760707950361
357,1_44_2,44,2.0,1427.96880466,1_I,test,05,4,29.0,10001,ignore,1.0,4300.0,0.767962011218
358,1_44_2,44,2.0,1432.24995967,1_I,test,05,4,30.0,01100,kill,0.0,4200.0,2.23059990303
359,1_44_2,44,2.0,1434.7498909,1_I,test,05,4,31.0,11011,ignore,1.0,4300.0,0.378076150808
360,1_44_2,44,2.0,1438.7653416,1_I,test,05,4,32.0,10111,ignore,0.0,4200.0,1.90349882198
361,1_44_2,44,2.0,1441.87467758,1_I,test,05,4,33.0,01000,ignore,1.0,4300.0,1.04835588989
362,1_44_2,44,2.0,1446.62449335,1_I,test,05,4,34.0,01110,ignore,0.0,4200.0,2.62597700951
363,1_44_2,44,2.0,1451.56182845,1_I,test,05,4,35.0,11100,ignore,1.0,4300.0,2.89591182149
364,1_44_2,44,2.0,1454.60861776,1_I,test,05,4,36.0,01111,kill,1.0,4400.0,0.9164522675
365,1_44_2,44,2.0,1457.78036288,1_I,test,05,4,37.0,01101,ignore,1.0,4500.0,1.04532453814
366,1_44_2,44,2.0,1460.90530803,1_I,test,05,4,38.0,01010,kill,1.0,4600.0,1.05981131231
367,1_44_2,44,2.0,1463.90522017,1_I,test,05,4,39.0,10100,ignore,1.0,4700.0,0.871083392141
368,1_44_2,44,2.0,1466.53012775,1_I,test,05,4,40.0,00001,kill,0.0,4600.0,0.458788764785
369,1_44_2,44,2.0,1469.63936849,1_I,test,05,4,41.0,00110,kill,1.0,4700.0,0.997478936746
370,1_44_2,44,2.0,1472.73302798,1_I,test,05,4,42.0,00010,kill,1.0,4800.0,0.96115115829
371,1_44_2,44,2.0,1475.92046602,1_I,test,05,4,43.0,00011,kill,1.0,4900.0,1.14085029745
372,1_44_2,44,2.0,1479.62347729,1_I,test,05,4,44.0,00000,ignore,1.0,5000.0,1.6169675234
373,1_44_2,44,2.0,1484.35768678,1_I,test,05,4,45.0,11111,kill,0.0,4900.0,2.61891548711
374,1_44_2,44,2.0,1488.63878102,1_I,test,05,4,46.0,01001,ignore,1.0,5000.0,2.15458826534
375,1_44_2,44,2.0,1492.29494428,1_I,test,05,4,47.0,10011,ignore,0.0,4900.0,1.53285572301
376,1_44_2,44,2.0,1495.79479998,1_I,test,05,4,48.0,00111,kill,1.0,5000.0,1.44717077258
377,1_44_2,44,2.0,1498.77908696,1_I,test,05,4,49.0,11010,kill,0.0,4900.0,0.867703911157
378,1_44_2,44,2.0,1501.82584712,1_I,test,05,4,50.0,10101,ignore,1.0,5000.0,0.903202008969
379,1_44_2,44,2.0,1504.7477036,1_I,test,05,4,51.0,00100,ignore,1.0,5100.0,0.814412632493
380,1_44_2,44,2.0,1507.38817847,1_I,test,05,4,52.0,10010,ignore,0.0,5000.0,0.513767320765
381,1_44_2,44,2.0,1514.41923628,1_I,test,05,4,53.0,10000,ignore,1.0,5100.0,4.96405360369
382,1_44_2,44,2.0,1517.99722277,1_I,test,05,4,54.0,00101,ignore,1.0,5200.0,1.41842753144
383,1_44_2,44,2.0,1520.91903409,1_I,test,05,4,55.0,11001,ignore,1.0,5300.0,0.822680701858
384,1_44_2,44,2.0,1523.71580297,1_I,test,05,4,56.0,11010,kill,0.0,5200.0,0.732794800393
385,1_44_2,44,2.0,1526.76260213,1_I,test,05,4,57.0,00010,ignore,0.0,5100.0,0.935863346138
386,1_44_2,44,2.0,1529.91876478,1_I,test,05,4,58.0,00000,ignore,1.0,5200.0,1.07633924045
387,1_44_2,44,2.0,1532.57491983,1_I,test,05,4,59.0,00011,ignore,0.0,5100.0,0.560623134912
388,1_44_2,44,2.0,1535.44982074,1_I,test,05,4,60.0,11000,ignore,1.0,5200.0,0.744436192796
389,1_44_2,44,2.0,1540.87151363,1_I,test,05,4,61.0,00110,kill,1.0,5300.0,3.36686129883
390,1_44_2,44,2.0,1543.99643578,1_I,test,05,4,62.0,11100,ignore,1.0,5400.0,1.08750811309
391,1_44_2,44,2.0,1547.21507367,1_I,test,05,4,63.0,10101,ignore,1.0,5500.0,1.1636523519
392,1_44_2,44,2.0,1550.43371648,1_I,test,05,4,64.0,10111,kill,1.0,5600.0,1.12033694641
393,1_44_2,44,2.0,1553.62113522,1_I,test,05,4,65.0,11001,ignore,1.0,5700.0,1.05878416685
394,1_44_2,44,2.0,1556.83973411,1_I,test,05,4,66.0,10100,ignore,1.0,5800.0,1.16134106936
395,1_44_2,44,2.0,1560.01151864,1_I,test,05,4,67.0,01010,ignore,0.0,5700.0,1.12120193261
396,1_44_2,44,2.0,1564.18328019,1_I,test,05,4,68.0,01111,kill,1.0,5800.0,2.06113034443
397,1_44_2,44,2.0,1567.33942765,1_I,test,05,4,69.0,11101,ignore,1.0,5900.0,1.03871993537
398,1_44_2,44,2.0,1571.6674048,1_I,test,05,4,70.0,01011,kill,1.0,6000.0,2.18730420296
399,1_44_2,44,2.0,1575.08916747,1_I,test,05,4,71.0,01101,ignore,1.0,6100.0,1.37307056144
400,1_44_2,44,2.0,1579.58902071,1_I,test,05,4,72.0,11011,ignore,1.0,6200.0,2.37449797342
401,1_44_2,44,2.0,1582.79206421,1_I,test,05,4,73.0,00100,ignore,1.0,6300.0,1.08779425234
402,1_44_2,44,2.0,1587.27629515,1_I,test,05,4,74.0,01110,kill,1.0,6400.0,2.41044436973
403,1_44_2,44,2.0,1590.2292936,1_I,test,05,4,75.0,00001,ignore,1.0,6500.0,0.818677215639
404,1_44_2,44,2.0,1593.46360469,1_I,test,05,4,76.0,10001,ignore,1.0,6600.0,1.18981828721
405,1_44_2,44,2.0,1596.46353038,1_I,test,05,4,77.0,10000,ignore,1.0,6700.0,0.873373737673
406,1_44_2,44,2.0,1600.6508703,1_I,test,05,5,0.0,10011,ignore,1.0,6800.0,2.07139194631
407,1_44_2,44,2.0,1604.57263031,1_I,test,05,5,1.0,10110,kill,1.0,6900.0,1.83250221583
408,1_44_2,44,2.0,1608.52559879,1_I,test,05,5,2.0,01100,ignore,1.0,7000.0,1.82894374388
409,1_44_2,44,2.0,1613.33800106,1_I,test,05,5,3.0,11111,kill,1.0,7100.0,2.75236639617
410,1_44_2,44,2.0,1616.80662817,1_I,test,05,5,4.0,00101,ignore,0.0,7000.0,1.3520399429
411,1_44_2,44,2.0,1619.85337273,1_I,test,05,5,5.0,01000,ignore,1.0,7100.0,0.941809459182
412,1_44_2,44,2.0,1623.77513356,1_I,test,05,5,6.0,11110,kill,1.0,7200.0,1.88627915121
413,1_44_2,44,2.0,1627.25939323,1_I,test,05,5,7.0,10010,ignore,1.0,7300.0,1.40200757263
414,1_44_2,44,2.0,1630.3843355,1_I,test,05,5,8.0,01001,ignore,1.0,7400.0,1.00264422218
415,1_44_2,44,2.0,1634.08733815,1_I,test,05,5,9.0,00111,kill,1.0,7500.0,1.58736216976
416,1_44_2,44,2.0,1637.54032942,1_I,test,05,5,10.0,01100,ignore,1.0,7600.0,1.32579149111
417,1_44_2,44,2.0,1640.64963543,1_I,test,05,5,11.0,01000,ignore,1.0,7700.0,1.05867496594
418,1_44_2,44,2.0,1643.61826808,1_I,test,05,5,12.0,11000,ignore,1.0,7800.0,0.871380615687
419,1_44_2,44,2.0,1646.49314231,1_I,test,05,5,13.0,11010,ignore,1.0,7900.0,0.774366275473
420,1_44_2,44,2.0,1650.02430172,1_I,test,05,5,14.0,01110,kill,1.0,8000.0,1.45159833604
421,1_44_2,44,2.0,1653.43043553,1_I,test,05,6,0.0,11100,ignore,0.0,7900.0,1.28258364441
422,1_44_2,44,2.0,1657.19598527,1_I,test,05,6,1.0,11111,ignore,1.0,8000.0,1.70973780696
423,1_44_2,44,2.0,1660.75838599,1_I,test,05,6,2.0,01101,kill,0.0,7900.0,1.4303111364
424,1_44_2,44,2.0,1666.02381688,1_I,test,05,6,3.0,10001,ignore,0.0,7800.0,3.1549450157
425,1_44_2,44,2.0,1669.02371836,1_I,test,05,6,4.0,11110,ignore,0.0,7700.0,0.914311354802
426,1_44_2,44,2.0,1676.97657722,1_I,test,05,6,5.0,00010,ignore,1.0,7800.0,5.83798484078
427,1_44_2,44,2.0,1680.49209751,1_I,test,05,6,6.0,11001,kill,1.0,7900.0,1.47189369578
428,1_44_2,44,2.0,1684.38258869,1_I,test,05,6,7.0,01011,ignore,1.0,8000.0,1.83294887221
429,1_44_2,44,2.0,1687.5231274,1_I,test,05,6,8.0,00011,ignore,1.0,8100.0,1.01603529242
430,1_44_2,44,2.0,1691.21052171,1_I,test,05,6,9.0,01010,ignore,1.0,8200.0,1.64982714644
431,1_44_2,44,2.0,1696.03844775,1_I,test,05,6,10.0,01001,kill,0.0,8100.0,2.78294470534
432,1_44_2,44,2.0,1700.38210016,1_I,test,05,6,11.0,00110,ignore,1.0,8200.0,2.280708755
433,1_44_2,44,2.0,1704.67884298,1_I,test,05,6,12.0,00001,kill,0.0,8100.0,2.19500122543
434,1_44_2,44,2.0,1708.19432919,1_I,test,05,6,13.0,10101,kill,0.0,8000.0,1.37059178275
435,1_44_2,44,2.0,1711.85052037,1_I,test,05,6,14.0,00111,ignore,1.0,8100.0,1.55543403875
436,1_44_2,44,2.0,1716.25661107,1_I,test,05,6,15.0,00101,ignore,1.0,8200.0,2.29038904674
437,1_44_2,44,2.0,1720.13148406,1_I,test,05,6,16.0,10000,kill,1.0,8300.0,1.75207368845
438,1_44_2,44,2.0,1723.27198992,1_I,test,05,6,17.0,10111,ignore,1.0,8400.0,1.02776576978
439,1_44_2,44,2.0,1726.81873962,1_I,test,05,6,18.0,10100,kill,1.0,8500.0,1.42449146652
440,1_44_2,44,2.0,1729.38119536,1_I,test,05,6,19.0,01111,ignore,1.0,8600.0,0.507508794573
441,1_44_2,44,2.0,1731.92800745,1_I,test,05,6,20.0,10011,ignore,0.0,8500.0,0.42449639288
442,1_44_2,44,2.0,1734.5997692,1_I,test,05,6,21.0,11011,ignore,0.0,8400.0,0.584407587083
443,1_44_2,44,2.0,1737.52156657,1_I,test,05,6,22.0,10110,ignore,0.0,8300.0,0.852450677927
444,1_44_2,44,2.0,1740.70895246,1_I,test,05,6,23.0,10010,kill,1.0,8400.0,1.08516398817
445,1_44_2,44,2.0,1743.64637049,1_I,test,05,6,24.0,00000,ignore,1.0,8500.0,0.887131000456
446,1_44_2,44,2.0,1748.03685244,1_I,test,05,6,25.0,11101,ignore,1.0,8600.0,2.24245641303
447,1_44_2,44,2.0,1751.05236882,1_I,test,05,6,26.0,00100,ignore,1.0,8700.0,0.878986090021
448,1_44_2,44,2.0,1754.56789197,1_I,test,05,6,27.0,00011,kill,0.0,8600.0,1.42421559052
449,1_44_2,44,2.0,1757.72402342,1_I,test,05,6,28.0,10110,kill,1.0,8700.0,1.0234178491
450,1_44_2,44,2.0,1760.83330685,1_I,test,05,6,29.0,00000,ignore,1.0,8800.0,1.04990605026
451,1_44_2,44,2.0,1763.86447099,1_I,test,05,6,30.0,01011,ignore,1.0,8900.0,0.937012008406
452,1_44_2,44,2.0,1767.00508113,1_I,test,05,6,31.0,11110,kill,1.0,9000.0,1.02248799919
453,1_44_2,44,2.0,1771.12985344,1_I,test,05,6,32.0,10010,ignore,0.0,8900.0,2.05779273748
454,1_44_2,44,2.0,1774.8016312,1_I,test,05,6,33.0,11000,ignore,0.0,8800.0,1.61710464034
455,1_44_2,44,2.0,1778.55150445,1_I,test,05,6,34.0,00101,kill,0.0,8700.0,1.61452733451
456,1_44_2,44,2.0,1781.89516384,1_I,test,05,6,35.0,11010,ignore,0.0,8600.0,1.22981373854
457,1_44_2,44,2.0,1787.41057574,1_I,test,05,6,36.0,10001,ignore,0.0,8500.0,3.39989293384
458,1_44_2,44,2.0,1790.64486713,1_I,test,05,6,37.0,10011,ignore,0.0,8400.0,1.1815978393
459,1_44_2,44,2.0,1793.14477373,1_I,test,05,6,38.0,01110,kill,0.0,8300.0,0.363359479972
460,1_44_2,44,2.0,1795.66033507,1_I,test,05,6,39.0,01101,ignore,1.0,8400.0,0.379870986919
461,1_44_2,44,2.0,1808.15995923,1_I,test,05,6,40.0,00001,ignore,1.0,8500.0,10.4060003851
462,1_44_2,44,2.0,1811.59729945,1_I,test,05,6,41.0,11100,kill,1.0,8600.0,1.32007773792
463,1_44_2,44,2.0,1814.61284663,1_I,test,05,6,42.0,11101,ignore,1.0,8700.0,0.95396811908
464,1_44_2,44,2.0,1817.53464194,1_I,test,05,6,43.0,00100,kill,0.0,8600.0,0.757474207441
465,1_44_2,44,2.0,1820.23768483,1_I,test,05,6,44.0,11001,ignore,0.0,8500.0,0.58528406812
466,1_44_2,44,2.0,1822.36260534,1_I,test,05,6,45.0,10101,ignore,1.0,8600.0,0.000382613736292
467,1_44_2,44,2.0,1824.48754761,1_I,test,05,6,46.0,01100,ignore,1.0,8700.0,0.000365371486623
468,1_44_2,44,2.0,1827.97181467,1_I,test,05,6,47.0,00111,ignore,1.0,8800.0,1.43976481571
469,1_44_2,44,2.0,1830.6123581,1_I,test,05,6,48.0,01111,ignore,1.0,8900.0,0.521428627144
470,1_44_2,44,2.0,1833.25289988,1_I,test,05,6,49.0,01001,ignore,1.0,9000.0,0.516349142425
471,1_44_2,44,2.0,1835.81529609,1_I,test,05,6,50.0,11111,ignore,1.0,9100.0,0.466276006546
472,1_44_2,44,2.0,1838.90918835,1_I,test,05,6,51.0,00110,kill,0.0,9000.0,0.973655073718
473,1_44_2,44,2.0,1842.04949634,1_I,test,05,6,52.0,01000,kill,0.0,8900.0,1.09440624465
474,1_44_2,44,2.0,1844.95563815,1_I,test,05,6,53.0,11011,ignore,0.0,8800.0,0.800955056433
475,1_44_2,44,2.0,1847.53371373,1_I,test,05,6,54.0,10111,ignore,1.0,8900.0,0.443364751176
476,1_44_2,44,2.0,1850.39299644,1_I,test,05,6,55.0,00010,ignore,1.0,9000.0,0.8072201511
477,1_44_2,44,2.0,1852.89289894,1_I,test,05,6,56.0,01010,ignore,1.0,9100.0,0.41859831182
478,1_44_2,44,2.0,1855.59591392,1_I,test,05,6,57.0,10100,ignore,0.0,9000.0,0.572571193044
479,1_44_2,44,2.0,1858.33021864,1_I,test,05,6,58.0,10000,ignore,0.0,8900.0,0.649860809885
480,1_44_2,44,2.0,1861.15827564,1_I,test,05,6,59.0,11010,ignore,0.0,8800.0,0.720190305175
481,1_44_2,44,2.0,1864.1581451,1_I,test,05,6,60.0,11001,ignore,0.0,8700.0,0.946467329837
482,1_44_2,44,2.0,1867.32997027,1_I,test,05,6,61.0,01101,kill,0.0,8600.0,1.03418563417
483,1_44_2,44,2.0,1870.22045941,1_I,test,05,6,62.0,10110,kill,1.0,8700.0,0.766050995186
484,1_44_2,44,2.0,1873.67350076,1_I,test,05,6,63.0,01001,ignore,1.0,8800.0,1.33677521484
485,1_44_2,44,2.0,1876.78275258,1_I,test,05,6,64.0,11110,kill,1.0,8900.0,0.992057070203
486,1_44_2,44,2.0,1879.45455333,1_I,test,05,6,65.0,10101,kill,0.0,8800.0,0.620060044082
487,1_44_2,44,2.0,1882.50131842,1_I,test,05,6,66.0,01100,ignore,1.0,8900.0,0.896168813122
488,1_44_2,44,2.0,1885.56373372,1_I,test,05,6,67.0,00101,ignore,1.0,9000.0,0.940067581409
489,1_44_2,44,2.0,1889.17300791,1_I,test,05,6,68.0,11111,kill,0.0,8900.0,1.54163367034
490,1_44_2,44,2.0,1892.25102992,1_I,test,05,6,69.0,00011,ignore,1.0,9000.0,0.947279357702
491,1_44_2,44,2.0,1895.12595094,1_I,test,05,6,70.0,11100,ignore,0.0,8900.0,0.834654212837
492,1_44_2,44,2.0,1897.78212857,1_I,test,05,6,71.0,01110,ignore,1.0,9000.0,0.550337722307
493,1_44_2,44,2.0,1901.00072253,1_I,test,05,6,72.0,00110,ignore,1.0,9100.0,1.12031724098
494,1_44_2,44,2.0,1903.72190919,1_I,test,05,6,73.0,00010,ignore,1.0,9200.0,0.661606887377
495,1_44_2,44,2.0,1906.76525908,1_I,test,05,6,74.0,00001,kill,0.0,9100.0,0.945990294256
496,1_44_2,44,2.0,1909.39017405,1_I,test,05,6,75.0,01011,ignore,1.0,9200.0,0.491778936292
497,1_44_2,44,2.0,1912.15571271,1_I,test,05,6,76.0,01111,ignore,1.0,9300.0,0.664541354099
498,1_44_2,44,2.0,1915.35876237,1_I,test,05,6,77.0,11011,ignore,0.0,9200.0,1.08382319797
499,1_44_2,44,2.0,1918.21804878,1_I,test,05,6,78.0,10111,ignore,1.0,9300.0,0.794148062485
500,1_44_2,44,2.0,1921.62421378,1_I,test,05,6,79.0,10001,ignore,0.0,9200.0,1.21545874443
501,1_44_2,44,2.0,1924.21785542,1_I,test,05,6,80.0,01010,ignore,1.0,9300.0,0.481705767574
502,1_44_2,44,2.0,1927.09273703,1_I,test,05,6,81.0,11101,ignore,1.0,9400.0,0.813325549689
503,1_44_2,44,2.0,1931.3582607,1_I,test,05,6,82.0,10011,ignore,0.0,9300.0,2.13953865487
504,1_44_2,44,2.0,1934.28001742,1_I,test,05,6,83.0,11000,ignore,0.0,9200.0,0.884526599661
505,1_44_2,44,2.0,1937.51426611,1_I,test,05,6,84.0,00111,kill,0.0,9100.0,1.07693820336
506,1_44_2,44,2.0,1941.20168178,1_I,test,05,6,85.0,00000,kill,0.0,9000.0,1.56573340936
507,1_44_2,44,2.0,1944.37350203,1_I,test,05,6,86.0,10000,ignore,0.0,8900.0,1.0840526841
508,1_44_2,44,2.0,1947.88898495,1_I,test,05,6,87.0,01000,kill,0.0,8800.0,1.40617978658
509,1_44_2,44,2.0,1950.68577231,1_I,test,05,6,88.0,10010,ignore,0.0,8700.0,0.726659433132
510,1_44_2,44,2.0,1953.40442067,1_I,test,05,6,89.0,00100,ignore,1.0,8800.0,0.556271108928
511,1_44_2,44,2.0,1956.85745257,1_I,test,05,6,90.0,10100,ignore,0.0,8700.0,1.31296038347
512,1_44_2,44,2.0,1958.96677172,1_I,test,05,6,91.0,11101,ignore,1.0,8800.0,0.000883049513504
513,1_44_2,44,2.0,1961.98229057,1_I,test,05,6,92.0,11111,ignore,1.0,8900.0,0.904581388961
514,1_44_2,44,2.0,1965.15414243,1_I,test,05,6,93.0,00001,kill,0.0,8800.0,1.11697429714
515,1_44_2,44,2.0,1967.49772423,1_I,test,05,6,94.0,01110,ignore,1.0,8900.0,0.215290837756
516,1_44_2,44,2.0,1970.27888108,1_I,test,05,6,95.0,10000,ignore,0.0,8800.0,0.650022969141
517,1_44_2,44,2.0,1972.63819027,1_I,test,05,6,96.0,01101,ignore,1.0,8900.0,0.307343925822
518,1_44_2,44,2.0,1975.62249572,1_I,test,05,6,97.0,10001,kill,1.0,9000.0,0.89705884164
519,1_44_2,44,2.0,1978.48179567,1_I,test,05,6,98.0,10100,ignore,0.0,8900.0,0.718773156445
520,1_44_2,44,2.0,1981.30983256,1_I,test,05,6,99.0,01001,ignore,1.0,9000.0,0.712783937775
521,1_44_2,44,2.0,1984.62218577,1_I,test,05,6,100.0,10010,ignore,0.0,8900.0,1.18265413237
522,1_44_2,44,2.0,1987.26274931,1_I,test,05,6,101.0,01000,ignore,1.0,9000.0,0.592812362858
523,1_44_2,44,2.0,1989.96578727,1_I,test,05,6,102.0,00111,ignore,1.0,9100.0,0.555281732206
524,1_44_2,44,2.0,1992.66881907,1_I,test,05,6,103.0,10101,ignore,1.0,9200.0,0.568770508527
525,1_44_2,44,2.0,1996.15309681,1_I,test,05,6,104.0,11100,kill,1.0,9300.0,1.407916738
526,1_44_2,44,2.0,2000.49668887,1_I,test,05,6,105.0,10110,ignore,0.0,9200.0,2.16513436434
527,1_44_2,44,2.0,2004.21531506,1_I,test,05,6,106.0,00000,ignore,1.0,9300.0,1.61270581396
528,1_44_2,44,2.0,2007.10588055,1_I,test,05,6,107.0,00101,ignore,1.0,9400.0,0.726053901735
529,1_44_2,44,2.0,2010.35577453,1_I,test,05,6,108.0,11110,kill,1.0,9500.0,1.1347247829
530,1_44_2,44,2.0,2013.41816274,1_I,test,05,6,109.0,11000,ignore,0.0,9400.0,1.00535536072
531,1_44_2,44,2.0,2017.32426637,1_I,test,05,6,110.0,00010,ignore,1.0,9500.0,1.7848906164
532,1_44_2,44,2.0,2020.35546992,1_I,test,05,6,111.0,00110,ignore,1.0,9600.0,0.973123437678
533,1_44_2,44,2.0,2023.18346082,1_I,test,05,6,112.0,01010,ignore,1.0,9700.0,0.720295400793
534,1_44_2,44,2.0,2025.8708535,1_I,test,05,6,113.0,00011,ignore,1.0,9800.0,0.54265588944
535,1_44_2,44,2.0,2029.52699254,1_I,test,05,6,114.0,11010,kill,1.0,9900.0,1.6308380924
536,1_44_2,44,2.0,2033.51125652,1_I,test,05,6,115.0,10111,kill,0.0,9800.0,1.87935474574
537,1_44_2,44,2.0,2036.63615692,1_I,test,05,6,116.0,00100,ignore,1.0,9900.0,0.966352159818
538,1_44_2,44,2.0,2039.68293062,1_I,test,05,6,117.0,01111,ignore,1.0,10000.0,0.950933893624
539,1_44_2,44,2.0,2042.69847944,1_I,test,05,6,118.0,11001,ignore,0.0,9900.0,0.893725339991
540,1_44_2,44,2.0,2047.08895318,1_I,test,05,6,119.0,10011,kill,1.0,10000.0,2.3320816281
541,1_44_2,44,2.0,2050.99511346,1_I,test,05,6,120.0,01100,ignore,1.0,10100.0,1.81635197508
542,1_44_2,44,2.0,2054.19812454,1_I,test,05,6,121.0,01011,ignore,1.0,10200.0,1.10813107558
543,1_44_2,44,2.0,2059.79170869,1_I,test,05,6,122.0,11011,kill,1.0,10300.0,3.53936549341
544,1_44_2,44,2.0,2063.41657892,1_I,test,05,6,123.0,11001,kill,1.0,10400.0,1.49637235378
545,1_44_2,44,2.0,2067.13521249,1_I,test,05,6,124.0,00010,ignore,1.0,10500.0,1.68521399069
546,1_44_2,44,2.0,2070.33824861,1_I,test,05,6,125.0,00100,ignore,1.0,10600.0,1.02792546586
547,1_44_2,44,2.0,2073.66626353,1_I,test,05,7,0.0,10000,kill,0.0,10500.0,1.19166361848
548,1_44_2,44,2.0,2076.80677883,1_I,test,05,7,1.0,01011,ignore,0.0,10400.0,1.04872002979
549,1_44_2,44,2.0,2079.86917566,1_I,test,05,7,2.0,10011,ignore,0.0,10300.0,0.949650167066
550,1_44_2,44,2.0,2082.97843364,1_I,test,05,7,3.0,10001,ignore,1.0,10400.0,1.05557957155
551,1_44_2,44,2.0,2086.16584171,1_I,test,05,7,4.0,00001,ignore,1.0,10500.0,1.01889504273
552,1_44_2,44,2.0,2089.8844761,1_I,test,05,7,5.0,01001,ignore,1.0,10600.0,1.58746972856
553,1_44_2,44,2.0,2094.89999741,1_I,test,05,7,6.0,11100,kill,0.0,10500.0,2.93430908047
554,1_44_2,44,2.0,2098.89981062,1_I,test,05,7,7.0,00110,kill,1.0,10600.0,1.90275945789
555,1_44_2,44,2.0,2102.60285474,1_I,test,05,7,8.0,00011,kill,1.0,10700.0,1.64499274799
556,1_44_2,44,2.0,2106.54020749,1_I,test,05,7,9.0,11111,kill,0.0,10600.0,1.82407157668
557,1_44_2,44,2.0,2109.58699187,1_I,test,05,7,10.0,01101,ignore,1.0,10700.0,0.936912660203
558,1_44_2,44,2.0,2112.80566219,1_I,test,05,7,11.0,11010,kill,0.0,10600.0,1.20784423844
559,1_44_2,44,2.0,2116.88365094,1_I,test,05,7,12.0,10010,kill,1.0,10700.0,1.97607186241
560,1_44_2,44,2.0,2120.11791605,1_I,test,05,7,13.0,01110,ignore,0.0,10600.0,1.12004957557
561,1_44_2,44,2.0,2123.8365291,1_I,test,05,7,14.0,00000,ignore,1.0,10700.0,1.59522094096
562,1_44_2,44,2.0,2126.72709706,1_I,test,05,7,15.0,00101,ignore,1.0,10800.0,0.748121107921
563,1_44_2,44,2.0,2130.32070585,1_I,test,05,7,16.0,01111,kill,1.0,10900.0,1.5528386696
564,1_44_2,44,2.0,2134.52370871,1_I,test,05,7,17.0,01000,ignore,1.0,11000.0,2.02708921674
565,1_44_2,44,2.0,2137.82047821,1_I,test,05,7,18.0,01010,kill,1.0,11100.0,1.18334546449
566,1_44_2,44,2.0,2141.52346157,1_I,test,05,7,19.0,10100,ignore,1.0,11200.0,1.5898208325
567,1_44_2,44,2.0,2144.2265332,1_I,test,05,7,20.0,01100,ignore,1.0,11300.0,0.578307114849
568,1_44_2,44,2.0,2147.7108019,1_I,test,05,7,21.0,00111,ignore,0.0,11200.0,1.39845936392
569,1_44_2,44,2.0,2151.38255339,1_I,test,05,7,22.0,11110,kill,0.0,11100.0,1.52668874496
570,1_44_2,44,2.0,2155.41367524,1_I,test,05,7,23.0,10101,ignore,1.0,11200.0,1.90118261308
571,1_44_2,44,2.0,2159.06983358,1_I,test,05,7,24.0,11000,kill,0.0,11100.0,1.5614092994
572,1_44_2,44,2.0,2164.25715461,1_I,test,05,7,25.0,10111,kill,1.0,11200.0,3.04277350621
573,1_44_2,44,2.0,2167.67893124,1_I,test,05,7,26.0,10110,kill,1.0,11300.0,1.37078391068
