,unique_id,pair_id,sbj_id,wall_time,condition,block,rule_id,rule_num,trial,stimulus,choice,correct,points,reaction_time
0,1_1_1,1,1.0,59.1196551056,1_I,training,01,1_A,1.0,00000,kill,0.0,0.0,3.25670436426
1,1_1_1,1,1.0,62.7604574289,1_I,training,01,1_A,2.0,10111,kill,1.0,100.0,1.45493612975
2,1_1_1,1,1.0,67.6982046705,1_I,training,01,1_A,3.0,11010,ignore,1.0,200.0,2.81427954461
3,1_1_1,1,1.0,72.8859588912,1_I,training,01,1_A,4.0,11101,ignore,1.0,300.0,3.04386594391
4,1_1_1,1,1.0,76.5268211518,1_I,training,01,1_A,5.0,00010,kill,1.0,400.0,1.51420310394
5,1_1_1,1,1.0,79.9645010666,1_I,training,01,1_A,6.0,10000,ignore,1.0,500.0,1.31409357455
6,1_1_1,1,1.0,85.5897611373,1_I,training,01,1_A,7.0,01110,kill,1.0,600.0,3.48863571052
7,1_1_1,1,1.0,89.1524387941,1_I,training,01,1_A,8.0,01100,ignore,1.0,700.0,1.43358569976
8,1_1_1,1,1.0,93.5120383796,1_I,training,01,1_A,9.0,11000,ignore,1.0,800.0,2.24749987274
9,1_1_1,1,1.0,96.449652199,1_I,training,01,1_A,10.0,10101,ignore,1.0,900.0,0.783412620345
10,1_1_1,1,1.0,99.5592563004,1_I,training,01,1_A,11.0,11110,kill,1.0,1000.0,0.978890140548
11,1_1_1,1,1.0,102.621855546,1_I,training,01,1_A,12.0,11011,kill,0.0,900.0,0.927963081864
12,1_1_1,1,1.0,106.122035769,1_I,training,01,1_A,13.0,11100,ignore,1.0,1000.0,1.35521348377
13,1_1_1,1,1.0,109.672250968,1_I,training,01,1_A,14.0,00100,ignore,1.0,1100.0,1.40074741079
14,1_1_1,1,1.0,115.222600412,1_I,training,01,1_A,15.0,10100,ignore,1.0,1200.0,3.42501588751
15,1_1_1,1,1.0,120.007255706,1_I,training,01,1_A,16.0,10001,ignore,1.0,1300.0,2.64232169454
16,1_1_1,1,1.0,123.648032166,1_I,training,01,1_A,17.0,10110,kill,1.0,1400.0,1.52602882906
17,1_1_1,1,1.0,128.367038388,1_I,training,01,1_A,18.0,10011,ignore,1.0,1500.0,2.61456699766
18,1_1_1,1,1.0,132.804788503,1_I,training,01,1_A,19.0,01011,kill,1.0,1600.0,2.30095579578
19,1_1_1,1,1.0,135.883054392,1_I,training,01,1_A,20.0,00011,kill,1.0,1700.0,0.962864283734
20,1_1_1,1,1.0,139.226996366,1_I,training,01,1_A,21.0,01001,ignore,1.0,1800.0,1.24580766837
21,1_1_1,1,1.0,143.164673818,1_I,training,01,1_A,22.0,11001,ignore,1.0,1900.0,1.82027861845
22,1_1_1,1,1.0,147.149276482,1_I,training,01,1_A,23.0,01010,kill,1.0,2000.0,1.87633483806
23,1_1_1,1,1.0,154.930883592,1_I,training,01,1_A,24.0,11111,kill,1.0,2100.0,5.65625590137
24,1_1_1,1,1.0,158.915488719,1_I,training,01,1_A,25.0,01000,ignore,1.0,2200.0,1.85961190143
25,1_1_1,1,1.0,162.30629679,1_I,training,01,1_A,26.0,01101,ignore,1.0,2300.0,1.25590670461
26,1_1_1,1,1.0,166.025272222,1_I,training,01,1_A,27.0,00101,ignore,1.0,2400.0,1.56691104145
27,1_1_1,1,1.0,169.900430892,1_I,training,01,1_A,28.0,01111,kill,1.0,2500.0,1.73985908971
28,1_1_1,1,1.0,177.666447717,1_I,training,01,1_A,29.0,00110,kill,1.0,2600.0,5.64658422679
29,1_1_1,1,1.0,182.07294501,1_I,training,01,1_A,30.0,00111,kill,1.0,2700.0,2.26452701205
30,1_1_1,1,1.0,186.088758213,1_I,training,01,1_A,31.0,10010,kill,0.0,2600.0,1.91571122668
31,1_1_1,1,1.0,189.745175452,1_I,training,01,1_A,32.0,00001,ignore,1.0,2700.0,1.50474490492
32,1_1_1,1,1.0,193.354762311,1_I,training,01,1_A,33.0,01000,ignore,1.0,2800.0,1.49769323233
33,1_1_1,1,1.0,197.167414515,1_I,training,01,1_A,34.0,10001,ignore,1.0,2900.0,1.69297451923
34,1_1_1,1,1.0,201.80828786,1_I,training,01,1_A,35.0,10011,ignore,1.0,3000.0,2.48984554222
35,1_1_1,1,1.0,206.027239482,1_I,training,01,1_A,36.0,01010,kill,1.0,3100.0,2.13207609911
36,1_1_1,1,1.0,209.780604185,1_I,training,01,1_A,37.0,10111,kill,1.0,3200.0,1.49676461364
37,1_1_1,1,1.0,217.890411909,1_I,training,01,1_A,38.0,00110,kill,1.0,3300.0,1.67517394153
38,1_1_1,1,1.0,223.218771399,1_I,training,01,1_A,39.0,11110,kill,1.0,3400.0,3.19229591326
39,1_1_1,1,1.0,231.475032391,1_I,training,01,1_A,40.0,10000,ignore,1.0,3500.0,1.74002248062
40,1_1_1,1,1.0,239.085636543,1_I,training,01,1_A,41.0,11000,ignore,1.0,3600.0,1.1898631129
41,1_1_1,1,1.0,247.410483539,1_I,training,01,1_A,42.0,11100,ignore,1.0,3700.0,1.81059832274
42,1_1_1,1,1.0,254.973315965,1_I,training,01,1_A,43.0,11101,ignore,1.0,3800.0,1.12238841386
43,1_1_1,1,1.0,262.192469567,1_I,training,01,1_A,44.0,00000,ignore,1.0,3900.0,0.783484463085
44,1_1_1,1,1.0,269.364691799,1_I,training,01,1_A,45.0,00010,ignore,0.0,3800.0,0.734503316264
45,1_1_1,1,1.0,276.786958367,1_I,training,01,1_A,46.0,00001,ignore,1.0,3900.0,0.977116651258
46,1_1_1,1,1.0,283.474793873,1_I,training,01,1_A,47.0,00111,kill,1.0,4000.0,4.5051205398
47,1_1_1,1,1.0,287.240624317,1_I,training,01,1_A,48.0,11111,kill,1.0,4100.0,1.61485354755
48,1_1_1,1,1.0,291.725236014,1_I,training,01,1_A,49.0,01011,ignore,0.0,4000.0,2.3588832108
49,1_1_1,1,1.0,296.725479868,1_I,training,01,1_A,50.0,10100,ignore,1.0,4100.0,2.84284914339
50,1_1_1,1,1.0,300.756919892,1_I,training,01,1_A,51.0,01111,kill,1.0,4200.0,1.90725102591
51,1_1_1,1,1.0,306.851003089,1_I,training,01,1_A,52.0,11011,kill,0.0,4100.0,3.97188732103
52,1_1_1,1,1.0,310.663649956,1_I,training,01,1_A,53.0,01110,kill,1.0,4200.0,1.68246084776
53,1_1_1,1,1.0,315.726473351,1_I,training,01,1_A,54.0,01001,ignore,1.0,4300.0,2.92575114661
54,1_1_1,1,1.0,321.42986712,1_I,training,01,1_A,55.0,00011,kill,1.0,4400.0,3.541178615
55,1_1_1,1,1.0,324.789403484,1_I,training,01,1_A,56.0,11010,kill,0.0,4300.0,1.21917946562
56,1_1_1,1,1.0,328.664563385,1_I,training,01,1_A,57.0,10010,ignore,1.0,4400.0,1.73487402479
57,1_1_1,1,1.0,333.071084899,1_I,training,01,1_A,58.0,00101,ignore,1.0,4500.0,2.24072284468
58,1_1_1,1,1.0,336.602488797,1_I,training,01,1_A,59.0,00100,ignore,1.0,4600.0,1.38751849437
59,1_1_1,1,1.0,341.696523961,1_I,training,01,1_A,60.0,10101,ignore,1.0,4700.0,2.94325696382
60,1_1_1,1,1.0,344.556006545,1_I,training,01,1_A,61.0,11001,ignore,1.0,4800.0,0.728816245162
61,1_1_1,1,1.0,349.14999573,1_I,training,01,1_A,62.0,10110,kill,1.0,4900.0,2.44929175376
62,1_1_1,1,1.0,352.884573353,1_I,training,01,1_A,63.0,01101,ignore,1.0,5000.0,1.58129601014
63,1_1_1,1,1.0,358.494223844,1_I,training,01,1_A,64.0,01100,ignore,1.0,5100.0,3.38043233728
64,1_1_1,1,1.0,364.260140089,1_I,training,01,1_A,65.0,00110,kill,1.0,5200.0,3.61678098557
65,1_1_1,1,1.0,373.385598446,1_I,training,01,1_A,66.0,01000,ignore,1.0,5300.0,7.011028476
66,1_1_1,1,1.0,379.354671995,1_I,training,01,1_A,67.0,10101,ignore,1.0,5400.0,3.84997922719
67,1_1_1,1,1.0,383.761119614,1_I,training,01,1_A,68.0,01011,ignore,0.0,5300.0,2.29523382964
68,1_1_1,1,1.0,387.683196928,1_I,training,01,1_A,69.0,01001,ignore,1.0,5400.0,1.77781668689
69,1_1_1,1,1.0,394.730410743,1_I,training,01,1_A,70.0,01110,kill,1.0,5500.0,4.92899474358
70,1_1_1,1,1.0,399.94945925,1_I,training,01,1_A,71.0,00011,kill,1.0,5600.0,3.07323073917
71,1_1_1,1,1.0,403.137131775,1_I,training,01,1_A,72.0,01111,kill,1.0,5700.0,1.04870075488
72,1_1_1,1,1.0,407.324832216,1_I,training,01,1_A,73.0,11101,ignore,1.0,5800.0,2.04130505822
73,1_1_1,1,1.0,411.965703509,1_I,training,01,1_A,74.0,00101,ignore,1.0,5900.0,2.46977227084
74,1_1_1,1,1.0,416.825328958,1_I,training,01,1_A,75.0,00001,ignore,1.0,6000.0,2.73072151456
75,1_1_1,1,1.0,420.747409967,1_I,training,01,1_A,76.0,00111,kill,1.0,6100.0,1.75966510611
76,1_1_1,1,1.0,423.93505745,1_I,training,01,1_A,77.0,10010,kill,0.0,6000.0,1.05472487105
77,1_1_1,1,1.0,427.669607156,1_I,training,01,1_A,78.0,11001,ignore,1.0,6100.0,1.59339186395
78,1_1_1,1,1.0,433.076133596,1_I,training,01,1_A,79.0,11110,kill,1.0,6200.0,3.27648328568
79,1_1_1,1,1.0,436.560685355,1_I,training,01,1_A,80.0,11100,ignore,1.0,6300.0,1.35202407676
80,1_1_1,1,1.0,441.232789354,1_I,training,01,1_A,81.0,11011,kill,0.0,6200.0,2.52550252969
81,1_1_1,1,1.0,444.451765607,1_I,training,01,1_A,82.0,10011,ignore,1.0,6300.0,1.08717274607
82,1_1_1,1,1.0,447.780027391,1_I,training,01,1_A,83.0,01100,ignore,1.0,6400.0,1.19572096445
83,1_1_1,1,1.0,450.889575249,1_I,training,01,1_A,84.0,00100,ignore,1.0,6500.0,0.957941208831
84,1_1_1,1,1.0,454.967931865,1_I,training,01,1_A,85.0,00010,kill,1.0,6600.0,1.95820846381
85,1_1_1,1,1.0,459.452490192,1_I,training,01,1_A,86.0,01101,ignore,1.0,6700.0,2.37436306282
86,1_1_1,1,1.0,464.187098194,1_I,training,01,1_A,87.0,10000,ignore,1.0,6800.0,2.58364957822
87,1_1_1,1,1.0,467.702958607,1_I,training,01,1_A,88.0,10110,kill,1.0,6900.0,1.37084810557
88,1_1_1,1,1.0,474.515777897,1_I,training,01,1_A,89.0,01010,kill,1.0,7000.0,4.69653217159
89,1_1_1,1,1.0,478.469084633,1_I,training,01,1_A,90.0,10100,ignore,1.0,7100.0,1.82797030719
90,1_1_1,1,1.0,484.438130266,1_I,training,01,1_A,91.0,00000,ignore,1.0,7200.0,3.80709896563
91,1_1_1,1,1.0,488.282109188,1_I,training,01,1_A,92.0,10111,kill,1.0,7300.0,1.70743379384
92,1_1_1,1,1.0,500.032651908,1_I,training,01,1_A,93.0,11010,ignore,1.0,7400.0,9.63249894494
93,1_1_1,1,1.0,503.36099005,1_I,training,01,1_A,94.0,11111,kill,1.0,7500.0,1.20672562971
94,1_1_1,1,1.0,510.76757027,1_I,training,01,1_A,95.0,11000,ignore,1.0,7600.0,5.2931196005
95,1_1_1,1,1.0,514.267814946,1_I,training,01,1_A,96.0,10001,ignore,1.0,7700.0,1.37437784189
96,1_1_1,1,1.0,519.893097186,1_I,training,01,1_A,97.0,01011,kill,1.0,7800.0,3.48152697428
97,1_1_1,1,1.0,527.955984623,1_I,training,01,1_A,98.0,01111,kill,1.0,7900.0,5.93943739336
98,1_1_1,1,1.0,531.315550956,1_I,training,01,1_A,99.0,00000,ignore,1.0,8000.0,1.20474030698
99,1_1_1,1,1.0,535.03445783,1_I,training,01,1_A,100.0,01010,kill,1.0,8100.0,1.60299333792
100,1_1_1,1,1.0,539.019064189,1_I,training,01,1_A,101.0,10010,ignore,1.0,8200.0,1.85203105577
101,1_1_1,1,1.0,543.738033463,1_I,training,01,1_A,102.0,10111,kill,1.0,8300.0,2.55694255373
102,1_1_1,1,1.0,547.691383305,1_I,training,01,1_A,103.0,00111,kill,1.0,8400.0,1.82689307666
103,1_1_1,1,1.0,551.191560244,1_I,training,01,1_A,104.0,00100,ignore,1.0,8500.0,1.36737625397
104,1_1_1,1,1.0,555.582418399,1_I,training,01,1_A,105.0,01110,kill,1.0,8600.0,2.27263826237
105,1_1_1,1,1.0,560.770129925,1_I,training,01,1_A,106.0,10011,kill,0.0,8500.0,3.04612878488
106,1_1_1,1,1.0,568.254897622,1_I,training,01,1_A,107.0,10101,ignore,1.0,8600.0,5.31763562677
107,1_1_1,1,1.0,571.192559473,1_I,training,01,1_A,108.0,00101,ignore,1.0,8700.0,0.812177220843
108,1_1_1,1,1.0,574.567696385,1_I,training,01,1_A,109.0,10100,ignore,1.0,8800.0,1.2331678624
109,1_1_1,1,1.0,577.89602878,1_I,training,01,1_A,110.0,00001,ignore,1.0,8900.0,1.19130817825
110,1_1_1,1,1.0,582.927528331,1_I,training,01,1_A,111.0,01000,ignore,1.0,9000.0,2.91258709392
111,1_1_1,1,1.0,589.443492197,1_I,training,01,1_A,112.0,01101,ignore,1.0,9100.0,4.36932914483
112,1_1_1,1,1.0,593.912468861,1_I,training,01,1_A,113.0,10001,ignore,1.0,9200.0,2.23959511896
113,1_1_1,1,1.0,597.81886968,1_I,training,01,1_A,114.0,11111,kill,1.0,9300.0,1.69687701673
114,1_1_1,1,1.0,601.850369231,1_I,training,01,1_A,115.0,10110,kill,1.0,9400.0,1.87388725863
115,1_1_1,1,1.0,605.428662625,1_I,training,01,1_A,116.0,11001,ignore,1.0,9500.0,1.44343472328
116,1_1_1,1,1.0,609.210111681,1_I,training,01,1_A,117.0,11010,ignore,1.0,9600.0,1.65993753376
117,1_1_1,1,1.0,613.429070692,1_I,training,01,1_A,118.0,00010,kill,1.0,9700.0,2.08150250669
118,1_1_1,1,1.0,617.101169764,1_I,training,01,1_A,119.0,11000,ignore,1.0,9800.0,1.51760023909
119,1_1_1,1,1.0,620.663822378,1_I,training,01,1_A,120.0,01100,ignore,1.0,9900.0,1.42919631377
120,1_1_1,1,1.0,624.49211372,1_I,training,01,1_A,121.0,11110,kill,1.0,10000.0,1.71235851086
121,1_1_1,1,1.0,632.430064585,1_I,training,01,1_A,122.0,11100,ignore,1.0,10100.0,5.79524450342
122,1_1_1,1,1.0,638.64912787,1_I,training,01,1_A,123.0,00011,kill,1.0,10200.0,4.08619404272
123,1_1_1,1,1.0,645.587007303,1_I,training,01,1_A,124.0,11101,ignore,1.0,10300.0,4.810012086
124,1_1_1,1,1.0,650.149684549,1_I,training,01,1_A,125.0,01001,ignore,1.0,10400.0,2.42713873777
125,1_1_1,1,1.0,653.806182663,1_I,training,01,1_A,126.0,10000,ignore,1.0,10500.0,1.51963605701
126,1_1_1,1,1.0,658.212592102,1_I,training,01,1_A,127.0,11011,ignore,1.0,10600.0,2.26682597965
127,1_1_1,1,1.0,661.962821589,1_I,training,01,1_A,128.0,00110,kill,1.0,10700.0,1.60535963243
128,1_1_1,1,1.0,666.150517514,1_I,training,01,1_A,129.0,00001,ignore,1.0,10800.0,2.03928401938
129,1_1_1,1,1.0,670.556977859,1_I,training,01,1_A,130.0,00111,kill,1.0,10900.0,2.25074921712
130,1_1_1,1,1.0,674.775959039,1_I,training,01,1_A,131.0,01011,ignore,0.0,10800.0,2.10841110138
131,1_1_1,1,1.0,679.619982298,1_I,training,01,1_A,132.0,11100,ignore,1.0,10900.0,2.69395240152
132,1_1_1,1,1.0,683.279619734,1_I,training,01,1_A,133.0,01111,kill,1.0,11000.0,1.49790054994
133,1_1_1,1,1.0,693.311387772,1_I,training,01,1_A,134.0,00100,ignore,1.0,11100.0,7.89574181937
134,1_1_1,1,1.0,697.267896231,1_I,training,01,1_A,135.0,11010,ignore,1.0,11200.0,1.82993510343
135,1_1_1,1,1.0,700.396221729,1_I,training,01,1_A,136.0,10101,ignore,1.0,11300.0,0.981212097824
136,1_1_1,1,1.0,703.652756955,1_I,training,01,1_A,137.0,11011,ignore,1.0,11400.0,1.10198261324
137,1_1_1,1,1.0,706.484178998,1_I,training,01,1_A,138.0,10100,ignore,1.0,11500.0,0.692888718473
138,1_1_1,1,1.0,709.265554158,1_I,training,01,1_A,139.0,10010,ignore,1.0,11600.0,0.680428724616
139,1_1_1,1,1.0,712.078248646,1_I,training,01,1_A,140.0,01000,ignore,1.0,11700.0,0.678323116612
140,1_1_1,1,1.0,715.094004375,1_I,training,01,1_A,141.0,10000,ignore,1.0,11800.0,0.883774050893
141,1_1_1,1,1.0,717.89095504,1_I,training,01,1_A,142.0,01101,ignore,1.0,11900.0,0.629741415407
142,1_1_1,1,1.0,722.172464855,1_I,training,01,1_A,143.0,00010,kill,1.0,12000.0,2.13970333465
143,1_1_1,1,1.0,725.141387739,1_I,training,01,1_A,144.0,00101,ignore,1.0,12100.0,0.806702804246
144,1_1_1,1,1.0,728.344643159,1_I,training,01,1_A,145.0,11101,ignore,1.0,12200.0,1.07105534108
145,1_1_1,1,1.0,734.719969736,1_I,training,01,1_A,146.0,00000,ignore,1.0,12300.0,4.19943092341
146,1_1_1,1,1.0,738.360808186,1_I,training,01,1_A,147.0,11111,kill,1.0,12400.0,1.44394336986
147,1_1_1,1,1.0,742.31412108,1_I,training,01,1_A,148.0,00110,kill,1.0,12500.0,1.79745028072
148,1_1_1,1,1.0,746.142466201,1_I,training,01,1_A,149.0,01001,ignore,1.0,12600.0,1.71083421323
149,1_1_1,1,1.0,751.298919978,1_I,training,01,1_A,150.0,00011,kill,1.0,12700.0,2.99963544942
150,1_1_1,1,1.0,755.127270025,1_I,training,01,1_A,151.0,11001,ignore,1.0,12800.0,1.68436816981
151,1_1_1,1,1.0,758.033682339,1_I,training,01,1_A,152.0,10001,ignore,1.0,12900.0,0.743553038003
152,1_1_1,1,1.0,762.221372517,1_I,training,01,1_A,153.0,01110,kill,1.0,13000.0,2.05821355438
153,1_1_1,1,1.0,766.409071316,1_I,training,01,1_A,154.0,10011,ignore,1.0,13100.0,2.05119677685
154,1_1_1,1,1.0,770.690549929,1_I,training,01,1_A,155.0,01100,ignore,1.0,13200.0,2.11815872401
155,1_1_1,1,1.0,775.253256734,1_I,training,01,1_A,156.0,10110,kill,1.0,13300.0,2.41533928657
156,1_1_1,1,1.0,778.862836614,1_I,training,01,1_A,157.0,11110,kill,1.0,13400.0,1.48485185617
157,1_1_1,1,1.0,782.909948208,1_I,training,01,1_A,158.0,01010,kill,1.0,13500.0,1.92895861694
158,1_1_1,1,1.0,786.613224154,1_I,training,01,1_A,159.0,10111,kill,1.0,13600.0,1.57454197176
159,1_1_1,1,1.0,790.582190965,1_I,training,01,1_A,160.0,11000,ignore,1.0,13700.0,1.82443153921
160,1_1_1,1,1.0,793.84800622,1_I,training,01,1_A,161.0,10001,ignore,1.0,13800.0,1.14624718171
161,1_1_1,1,1.0,797.020039197,1_I,training,01,1_A,162.0,00000,ignore,1.0,13900.0,1.0382938212
162,1_1_1,1,1.0,800.363939708,1_I,training,01,1_A,163.0,00100,ignore,1.0,14000.0,1.17526015281
163,1_1_1,1,1.0,803.176586986,1_I,training,01,1_A,164.0,01100,ignore,1.0,14100.0,0.664566669238
164,1_1_1,1,1.0,807.333017773,1_I,training,01,1_A,165.0,11011,ignore,1.0,14200.0,1.99994170475
165,1_1_1,1,1.0,810.083179111,1_I,training,01,1_A,166.0,10101,ignore,1.0,14300.0,0.583731684204
166,1_1_1,1,1.0,813.567774386,1_I,training,01,1_A,167.0,01110,kill,1.0,14400.0,1.33189251013
167,1_1_1,1,1.0,817.021021185,1_I,training,01,1_A,168.0,11111,kill,1.0,14500.0,1.30669869895
168,1_1_1,1,1.0,820.224347627,1_I,training,01,1_A,169.0,11010,ignore,1.0,14600.0,1.06480173867
169,1_1_1,1,1.0,824.583897128,1_I,training,01,1_A,170.0,11000,ignore,1.0,14700.0,2.18750543952
170,1_1_1,1,1.0,827.724707662,1_I,training,01,1_A,171.0,11110,kill,1.0,14800.0,0.989668603819
171,1_1_1,1,1.0,831.459311147,1_I,training,01,1_A,172.0,10010,ignore,1.0,14900.0,1.57253776465
172,1_1_1,1,1.0,834.678195031,1_I,training,01,1_A,173.0,00011,kill,1.0,15000.0,1.08169545576
173,1_1_1,1,1.0,838.115827735,1_I,training,01,1_A,174.0,10011,ignore,1.0,15100.0,1.27828633313
174,1_1_1,1,1.0,841.522286028,1_I,training,01,1_A,175.0,00010,kill,1.0,15200.0,1.27929172092
175,1_1_1,1,1.0,1369.40849288,1_I,test,01,2,0.0,01001,ignore,1.0,100.0,2.1799196675
176,1_1_1,1,1.0,1373.38077677,1_I,test,01,2,1.0,00110,kill,0.0,0.0,1.86829255677
177,1_1_1,1,1.0,1376.93083228,1_I,test,01,2,2.0,11101,ignore,0.0,0.0,1.41098479561
178,1_1_1,1,1.0,1381.70687342,1_I,test,01,2,3.0,10111,kill,1.0,100.0,2.61293719385
179,1_1_1,1,1.0,1384.86952415,1_I,test,01,2,4.0,10100,kill,1.0,200.0,1.01436690538
180,1_1_1,1,1.0,1389.36200242,1_I,test,01,2,5.0,01010,ignore,1.0,300.0,2.3713464889
181,1_1_1,1,1.0,1393.05288036,1_I,test,01,2,6.0,01101,kill,0.0,200.0,1.58946883996
182,1_1_1,1,1.0,1398.58443328,1_I,test,01,2,7.0,11001,ignore,0.0,100.0,3.38745773594
183,1_1_1,1,1.0,1403.03775972,1_I,test,01,2,8.0,00101,kill,0.0,0.0,2.2550203705
184,1_1_1,1,1.0,1407.45987398,1_I,test,01,2,9.0,00111,ignore,1.0,100.0,2.2865531743
185,1_1_1,1,1.0,1411.46002793,1_I,test,01,2,10.0,01111,ignore,1.0,200.0,1.84905594537
186,1_1_1,1,1.0,1419.35104578,1_I,test,01,2,11.0,10000,ignore,0.0,100.0,5.70655484926
187,1_1_1,1,1.0,1431.77677353,1_I,test,01,2,12.0,00001,kill,0.0,0.0,10.2562063915
188,1_1_1,1,1.0,1436.85512563,1_I,test,01,2,13.0,01000,ignore,1.0,100.0,2.94312354159
189,1_1_1,1,1.0,1441.83976935,1_I,test,01,2,14.0,01011,ignore,1.0,200.0,2.87391312201
190,1_1_1,1,1.0,1446.02750715,1_I,test,01,2,15.0,10110,kill,1.0,300.0,2.02328977337
191,1_1_1,1,1.0,1451.09025993,1_I,test,01,2,16.0,11100,kill,0.0,200.0,2.92310979705
192,1_1_1,1,1.0,1456.07490283,1_I,test,01,2,17.0,00101,ignore,1.0,300.0,2.81404718467
193,1_1_1,1,1.0,1461.98149824,1_I,test,01,2,18.0,11100,kill,0.0,200.0,3.76314968414
194,1_1_1,1,1.0,1467.06304015,1_I,test,01,2,19.0,01011,kill,0.0,100.0,2.9678555066
195,1_1_1,1,1.0,1471.37885098,1_I,test,01,2,20.0,10100,ignore,0.0,0.0,2.14622952893
196,1_1_1,1,1.0,1475.44153808,1_I,test,01,2,21.0,10010,kill,1.0,100.0,1.9153947081
197,1_1_1,1,1.0,1478.96296322,1_I,test,01,2,22.0,00110,kill,0.0,0.0,1.32338838266
198,1_1_1,1,1.0,1485.43333856,1_I,test,01,2,23.0,10101,kill,1.0,100.0,4.31279096309
199,1_1_1,1,1.0,1492.09012117,1_I,test,01,2,24.0,10011,kill,1.0,200.0,4.52231804903
200,1_1_1,1,1.0,1500.04750693,1_I,test,01,2,25.0,01111,ignore,1.0,300.0,5.83517428638
201,1_1_1,1,1.0,1505.00985641,1_I,test,01,2,26.0,01001,kill,0.0,200.0,2.83971187367
202,1_1_1,1,1.0,1509.72800832,1_I,test,01,2,27.0,10111,kill,1.0,300.0,2.59700165361
203,1_1_1,1,1.0,1513.36881845,1_I,test,01,2,28.0,00100,kill,0.0,200.0,1.46426501185
204,1_1_1,1,1.0,1519.65358171,1_I,test,01,2,29.0,01100,kill,0.0,100.0,4.17358519071
205,1_1_1,1,1.0,1523.51949073,1_I,test,01,2,30.0,00111,ignore,1.0,200.0,1.73260707852
206,1_1_1,1,1.0,1529.28540492,1_I,test,01,2,31.0,11010,kill,0.0,100.0,3.64581571476
207,1_1_1,1,1.0,1534.39499096,1_I,test,01,2,32.0,01110,ignore,1.0,200.0,2.99088459347
208,1_1_1,1,1.0,1538.44209722,1_I,test,01,2,33.0,00001,ignore,1.0,300.0,1.92035349911
209,1_1_1,1,1.0,1544.06737207,1_I,test,01,2,34.0,11001,ignore,0.0,200.0,3.49436013984
210,1_1_1,1,1.0,1548.02073833,1_I,test,01,2,35.0,00000,ignore,1.0,300.0,1.80580210158
211,1_1_1,1,1.0,1552.8646996,1_I,test,01,2,36.0,11111,ignore,0.0,200.0,2.69830525035
212,1_1_1,1,1.0,1557.17744335,1_I,test,01,2,37.0,00011,ignore,1.0,300.0,2.20086490445
213,1_1_1,1,1.0,1560.67755789,1_I,test,01,2,38.0,11011,kill,1.0,400.0,1.33205384839
214,1_1_1,1,1.0,1566.31848132,1_I,test,01,2,39.0,01000,kill,0.0,300.0,3.41224348038
215,1_1_1,1,1.0,1571.8344029,1_I,test,01,2,40.0,10001,kill,1.0,400.0,3.33079557416
216,1_1_1,1,1.0,1578.88163519,1_I,test,01,2,41.0,11110,kill,0.0,300.0,4.91862270493
217,1_1_1,1,1.0,1583.36625838,1_I,test,01,2,42.0,01010,ignore,1.0,400.0,2.39543186927
218,1_1_1,1,1.0,1587.31954131,1_I,test,01,2,43.0,00010,ignore,1.0,500.0,1.79150334418
219,1_1_1,1,1.0,1591.47601438,1_I,test,01,2,44.0,11101,ignore,0.0,400.0,1.99713532216
220,1_1_1,1,1.0,1594.8824386,1_I,test,01,2,45.0,10110,ignore,0.0,300.0,1.24788002345
221,1_1_1,1,1.0,1598.47638919,1_I,test,01,2,46.0,10000,ignore,0.0,200.0,1.44296425598
222,1_1_1,1,1.0,1602.44535847,1_I,test,01,2,47.0,01101,ignore,1.0,300.0,1.86681505955
223,1_1_1,1,1.0,1606.13305029,1_I,test,01,2,48.0,11000,kill,0.0,200.0,1.56034420471
224,1_1_1,1,1.0,1609.3519391,1_I,test,01,2,49.0,10000,ignore,0.0,100.0,1.06714340139
225,1_1_1,1,1.0,1612.57084597,1_I,test,01,2,50.0,00110,ignore,1.0,200.0,1.10280367309
226,1_1_1,1,1.0,1615.75855257,1_I,test,01,2,51.0,11100,ignore,1.0,300.0,1.04859648028
227,1_1_1,1,1.0,1622.18075961,1_I,test,01,2,52.0,10011,ignore,0.0,200.0,4.27291537007
228,1_1_1,1,1.0,1629.39982741,1_I,test,01,2,53.0,01100,kill,0.0,100.0,5.07345324639
229,1_1_1,1,1.0,1633.65005197,1_I,test,01,2,54.0,10111,kill,1.0,200.0,2.07724079551
230,1_1_1,1,1.0,1638.36903479,1_I,test,01,2,55.0,11001,ignore,0.0,100.0,2.6000986914
231,1_1_1,1,1.0,1641.69734051,1_I,test,01,2,56.0,01101,ignore,1.0,200.0,1.14642165693
232,1_1_1,1,1.0,1645.35381152,1_I,test,01,2,57.0,01111,ignore,1.0,300.0,1.50449283954
233,1_1_1,1,1.0,1648.44769931,1_I,test,01,2,58.0,01011,ignore,1.0,400.0,0.952020135675
234,1_1_1,1,1.0,1651.80724552,1_I,test,01,2,59.0,00001,kill,0.0,300.0,1.20637955298
235,1_1_1,1,1.0,1655.13554672,1_I,test,01,2,60.0,00000,ignore,1.0,400.0,1.1811019937
236,1_1_1,1,1.0,1658.19818373,1_I,test,01,2,61.0,11010,ignore,1.0,500.0,0.907717387912
237,1_1_1,1,1.0,1662.47964223,1_I,test,01,2,62.0,01001,kill,0.0,400.0,2.1353172329
238,1_1_1,1,1.0,1665.339163,1_I,test,01,2,63.0,01110,ignore,1.0,500.0,0.750286139362
239,1_1_1,1,1.0,1668.10495198,1_I,test,01,2,64.0,00011,ignore,1.0,600.0,0.614706167311
240,1_1_1,1,1.0,1671.60514903,1_I,test,01,2,65.0,10001,kill,1.0,700.0,1.38648970637
241,1_1_1,1,1.0,1675.04280144,1_I,test,01,2,66.0,10010,ignore,0.0,600.0,1.33542922546
242,1_1_1,1,1.0,1681.04306869,1_I,test,01,2,67.0,01000,ignore,1.0,700.0,3.85734864993
243,1_1_1,1,1.0,1684.59017249,1_I,test,01,2,68.0,00111,ignore,1.0,800.0,1.39908394352
244,1_1_1,1,1.0,1687.37156448,1_I,test,01,2,69.0,01010,ignore,1.0,900.0,0.673432884105
245,1_1_1,1,1.0,1690.87175784,1_I,test,01,2,70.0,11011,kill,1.0,1000.0,1.39145260268
246,1_1_1,1,1.0,1694.51255483,1_I,test,01,2,71.0,10100,kill,1.0,1100.0,1.46679716045
247,1_1_1,1,1.0,1697.2939304,1_I,test,01,2,72.0,00101,ignore,1.0,1200.0,0.607664347444
248,1_1_1,1,1.0,1700.28163379,1_I,test,01,2,73.0,00010,ignore,1.0,1300.0,0.869475704018
249,1_1_1,1,1.0,1703.68804323,1_I,test,01,2,74.0,11110,kill,0.0,1200.0,1.28176516374
250,1_1_1,1,1.0,1707.21950748,1_I,test,01,2,75.0,10110,ignore,0.0,1100.0,1.37749047981
251,1_1_1,1,1.0,1710.95404487,1_I,test,01,2,76.0,10101,kill,1.0,1200.0,1.59150342628
252,1_1_1,1,1.0,1713.84486402,1_I,test,01,2,77.0,11101,kill,1.0,1300.0,0.722826202975
253,1_1_1,1,1.0,1717.72002516,1_I,test,01,2,78.0,00100,ignore,1.0,1400.0,1.74042521048
254,1_1_1,1,1.0,1721.14207168,1_I,test,01,2,79.0,11000,kill,0.0,1300.0,1.23007698257
255,1_1_1,1,1.0,1724.43912005,1_I,test,01,2,80.0,11111,kill,1.0,1400.0,1.15845428914
256,1_1_1,1,1.0,1727.70486798,1_I,test,01,2,81.0,01100,ignore,1.0,1500.0,1.07963172181
257,1_1_1,1,1.0,1731.14258115,1_I,test,01,2,82.0,10000,ignore,0.0,1400.0,1.27641103242
258,1_1_1,1,1.0,1734.81466216,1_I,test,01,2,83.0,00000,ignore,1.0,1500.0,1.55238895576
259,1_1_1,1,1.0,1738.1116822,1_I,test,01,2,84.0,10110,kill,1.0,1600.0,1.12239457181
260,1_1_1,1,1.0,1742.81504929,1_I,test,01,2,85.0,01011,ignore,1.0,1700.0,2.57020267041
261,1_1_1,1,1.0,1745.79958668,1_I,test,01,2,86.0,00101,ignore,1.0,1800.0,0.84128338224
262,1_1_1,1,1.0,1749.64349622,1_I,test,01,2,87.0,10001,kill,1.0,1900.0,1.57753842971
263,1_1_1,1,1.0,1752.86244415,1_I,test,01,2,88.0,01111,ignore,1.0,2000.0,1.08167287662
264,1_1_1,1,1.0,1756.33137935,1_I,test,01,2,89.0,11010,kill,0.0,1900.0,1.35710315303
265,1_1_1,1,1.0,1759.75341561,1_I,test,01,2,90.0,10111,kill,1.0,2000.0,1.25484466368
266,1_1_1,1,1.0,1765.56622381,1_I,test,01,2,91.0,11011,ignore,0.0,1900.0,3.63878292655
267,1_1_1,1,1.0,1769.25388772,1_I,test,01,2,92.0,10010,ignore,0.0,1800.0,1.54347019306
268,1_1_1,1,1.0,1773.80098535,1_I,test,01,2,93.0,11101,kill,1.0,1900.0,2.40631542821
269,1_1_1,1,1.0,1776.92613212,1_I,test,01,2,94.0,11111,kill,1.0,2000.0,0.981989230979
270,1_1_1,1,1.0,1779.72315504,1_I,test,01,2,95.0,10011,kill,1.0,2100.0,0.64957288466
271,1_1_1,1,1.0,1782.75457371,1_I,test,01,2,96.0,01001,ignore,1.0,2200.0,0.909138231997
272,1_1_1,1,1.0,1786.23912835,1_I,test,01,2,97.0,00111,ignore,1.0,2300.0,1.2784669663
273,1_1_1,1,1.0,1789.58301777,1_I,test,01,3,0.0,01000,ignore,0.0,2200.0,1.19906883602
274,1_1_1,1,1.0,1792.66134073,1_I,test,01,3,1.0,00100,kill,0.0,2100.0,0.940424307315
275,1_1_1,1,1.0,1796.92716953,1_I,test,01,3,2.0,10101,ignore,1.0,2200.0,2.10302494873
276,1_1_1,1,1.0,1800.28669563,1_I,test,01,3,3.0,11110,kill,0.0,2100.0,1.24422712815
277,1_1_1,1,1.0,1804.84945416,1_I,test,01,3,4.0,00011,ignore,0.0,2000.0,2.3757880122
278,1_1_1,1,1.0,1808.78718293,1_I,test,01,3,5.0,10100,ignore,1.0,2100.0,1.77267356795
279,1_1_1,1,1.0,1812.03731512,1_I,test,01,3,6.0,01010,kill,1.0,2200.0,1.13235238575
280,1_1_1,1,1.0,1815.70937108,1_I,test,01,3,7.0,11001,ignore,1.0,2300.0,1.51997228102
281,1_1_1,1,1.0,1819.06892674,1_I,test,01,3,8.0,00110,kill,0.0,2200.0,1.21140279719
282,1_1_1,1,1.0,1821.86593694,1_I,test,01,3,9.0,01101,ignore,1.0,2300.0,0.63105552171
283,1_1_1,1,1.0,1825.10048911,1_I,test,01,3,10.0,11000,ignore,1.0,2400.0,1.09073491426
284,1_1_1,1,1.0,1829.71010593,1_I,test,01,3,11.0,01110,ignore,1.0,2500.0,2.48020835215
285,1_1_1,1,1.0,1832.44462485,1_I,test,01,3,12.0,00001,ignore,0.0,2400.0,0.602388627336
286,1_1_1,1,1.0,1835.89790983,1_I,test,01,3,13.0,11100,ignore,1.0,2500.0,1.28351853707
287,1_1_1,1,1.0,1839.11684215,1_I,test,01,3,14.0,00010,kill,1.0,2600.0,1.06738602458
288,1_1_1,1,1.0,1842.16385727,1_I,test,01,3,15.0,10101,ignore,1.0,2700.0,0.894788568876
289,1_1_1,1,1.0,1845.35148218,1_I,test,01,3,16.0,10100,ignore,1.0,2800.0,1.05501593677
290,1_1_1,1,1.0,1848.36729948,1_I,test,01,3,17.0,11100,ignore,1.0,2900.0,0.904820688738
291,1_1_1,1,1.0,1851.7111844,1_I,test,01,3,18.0,00110,kill,0.0,2800.0,1.18410707278
292,1_1_1,1,1.0,1855.22702469,1_I,test,01,3,19.0,00100,ignore,1.0,2900.0,1.33070648917
293,1_1_1,1,1.0,1858.25841627,1_I,test,01,3,20.0,11001,ignore,1.0,3000.0,0.892160356274
294,1_1_1,1,1.0,1862.97742701,1_I,test,01,3,21.0,11010,kill,1.0,3100.0,2.61175363606
295,1_1_1,1,1.0,1866.77444583,1_I,test,01,3,22.0,01010,ignore,0.0,3000.0,1.62668953592
296,1_1_1,1,1.0,1869.88398383,1_I,test,01,3,23.0,10010,kill,1.0,3100.0,0.903316917611
297,1_1_1,1,1.0,1872.91537623,1_I,test,01,3,24.0,01101,ignore,1.0,3200.0,0.905749717964
298,1_1_1,1,1.0,1875.71241352,1_I,test,01,3,25.0,00001,ignore,0.0,3100.0,0.631564989351
299,1_1_1,1,1.0,1879.00942659,1_I,test,01,3,26.0,11111,kill,0.0,3000.0,1.19293346624
300,1_1_1,1,1.0,1882.19714797,1_I,test,01,3,27.0,01111,kill,0.0,2900.0,0.991739727309
301,1_1_1,1,1.0,1885.65047112,1_I,test,01,3,28.0,01110,ignore,1.0,3000.0,1.30275679058
302,1_1_1,1,1.0,1888.55681447,1_I,test,01,3,29.0,10110,ignore,1.0,3100.0,0.75258551749
303,1_1_1,1,1.0,1892.10388706,1_I,test,01,3,30.0,01001,ignore,0.0,3000.0,1.38847831335
304,1_1_1,1,1.0,1896.01032278,1_I,test,01,3,31.0,11000,ignore,1.0,3100.0,1.80723731421
305,1_1_1,1,1.0,1899.32302424,1_I,test,01,3,32.0,10111,ignore,1.0,3200.0,1.16645715956
306,1_1_1,1,1.0,1902.1356436,1_I,test,01,3,33.0,10000,ignore,1.0,3300.0,0.655311682531
307,1_1_1,1,1.0,1904.91707131,1_I,test,01,3,34.0,11110,ignore,1.0,3400.0,0.675554092242
308,1_1_1,1,1.0,1907.90156806,1_I,test,01,3,35.0,10011,ignore,0.0,3300.0,0.853367330685
309,1_1_1,1,1.0,1911.22990579,1_I,test,01,3,36.0,11101,ignore,1.0,3400.0,1.20961042352
310,1_1_1,1,1.0,1914.37065434,1_I,test,01,3,37.0,11011,kill,1.0,3500.0,0.996513369319
311,1_1_1,1,1.0,1917.93335991,1_I,test,01,3,38.0,00000,ignore,0.0,3400.0,1.3829702333
312,1_1_1,1,1.0,1921.57414704,1_I,test,01,3,39.0,01011,ignore,0.0,3300.0,1.51426591502
313,1_1_1,1,1.0,1924.96496373,1_I,test,01,3,40.0,01000,kill,1.0,3400.0,1.20770802783
314,1_1_1,1,1.0,1928.37138918,1_I,test,01,3,41.0,00111,kill,0.0,3300.0,1.22019757984
315,1_1_1,1,1.0,1931.4183924,1_I,test,01,3,42.0,00011,kill,1.0,3400.0,0.913553891907
316,1_1_1,1,1.0,1934.73107703,1_I,test,01,3,43.0,10001,ignore,1.0,3500.0,1.149604906
317,1_1_1,1,1.0,1938.84066553,1_I,test,01,3,44.0,01100,ignore,1.0,3600.0,2.01038435454
318,1_1_1,1,1.0,1941.80956338,1_I,test,01,3,45.0,00101,ignore,1.0,3700.0,0.784872875302
319,1_1_1,1,1.0,1945.57535195,1_I,test,01,3,46.0,00010,kill,1.0,3800.0,1.62012105707
320,1_1_1,1,1.0,1948.76304541,1_I,test,01,3,47.0,11111,ignore,1.0,3900.0,1.04854105874
321,1_1_1,1,1.0,1952.70391761,1_I,test,01,3,48.0,01000,kill,1.0,4000.0,1.7921195496
322,1_1_1,1,1.0,1956.46971028,1_I,test,01,3,49.0,01101,ignore,1.0,4100.0,1.67216557822
323,1_1_1,1,1.0,1959.95426573,1_I,test,01,3,50.0,00001,kill,1.0,4200.0,1.33194587902
324,1_1_1,1,1.0,1964.53262276,1_I,test,01,3,51.0,10011,ignore,0.0,4100.0,2.41825487011
325,1_1_1,1,1.0,1968.29843884,1_I,test,01,3,52.0,00000,kill,1.0,4200.0,1.66687507903
326,1_1_1,1,1.0,1971.9236049,1_I,test,01,3,53.0,00101,ignore,1.0,4300.0,1.47496177967
327,1_1_1,1,1.0,1975.98636343,1_I,test,01,3,54.0,00111,ignore,1.0,4400.0,1.91126477702
328,1_1_1,1,1.0,1979.12710992,1_I,test,01,3,55.0,00110,ignore,1.0,4500.0,0.967198248189
329,1_1_1,1,1.0,1982.2679028,1_I,test,01,3,56.0,10010,ignore,0.0,4400.0,0.972209587024
330,1_1_1,1,1.0,1985.25244183,1_I,test,01,3,57.0,01111,ignore,1.0,4500.0,0.87152876419
331,1_1_1,1,1.0,1988.28380591,1_I,test,01,3,58.0,10100,ignore,1.0,4600.0,0.896635132493
332,1_1_1,1,1.0,1990.94019769,1_I,test,01,3,59.0,00100,ignore,1.0,4700.0,0.465995395498
333,1_1_1,1,1.0,1993.67472113,1_I,test,01,3,60.0,10101,ignore,1.0,4800.0,0.587346810757
334,1_1_1,1,1.0,1996.67486522,1_I,test,01,3,61.0,11000,ignore,1.0,4900.0,0.850976814912
335,1_1_1,1,1.0,1999.40939522,1_I,test,01,3,62.0,11110,ignore,1.0,5000.0,0.560339688884
336,1_1_1,1,1.0,2002.15956026,1_I,test,01,3,63.0,10001,ignore,1.0,5100.0,0.551162292333
337,1_1_1,1,1.0,2005.06592331,1_I,test,01,3,64.0,10111,ignore,1.0,5200.0,0.720422139715
338,1_1_1,1,1.0,2007.63172797,1_I,test,01,3,65.0,11100,ignore,1.0,5300.0,0.380291114983
339,1_1_1,1,1.0,2010.06933399,1_I,test,01,3,66.0,11010,ignore,0.0,5200.0,0.267350636899
340,1_1_1,1,1.0,2012.9289151,1_I,test,01,3,67.0,11101,ignore,1.0,5300.0,0.67431429186
341,1_1_1,1,1.0,2017.42913022,1_I,test,01,3,68.0,10000,kill,0.0,5200.0,2.22268169644
342,1_1_1,1,1.0,2020.74397588,1_I,test,01,3,69.0,01010,ignore,0.0,5100.0,1.17196934491
343,1_1_1,1,1.0,2023.76320511,1_I,test,01,3,70.0,00010,kill,1.0,5200.0,0.903527519462
344,1_1_1,1,1.0,2027.23213292,1_I,test,01,3,71.0,01110,ignore,1.0,5300.0,1.3133562628
345,1_1_1,1,1.0,2030.84445965,1_I,test,01,3,72.0,01001,kill,1.0,5400.0,1.47486694725
346,1_1_1,1,1.0,2034.00423544,1_I,test,01,3,73.0,11011,ignore,0.0,5300.0,1.03686025069
347,1_1_1,1,1.0,2037.65395693,1_I,test,01,3,74.0,01011,ignore,0.0,5200.0,1.50359213687
348,1_1_1,1,1.0,2041.07436585,1_I,test,01,3,75.0,11001,ignore,1.0,5300.0,1.32091781355
349,1_1_1,1,1.0,2044.07451652,1_I,test,01,3,76.0,00011,kill,1.0,5400.0,0.861289326713
350,1_1_1,1,1.0,2047.2749126,1_I,test,01,3,77.0,10110,ignore,1.0,5500.0,1.04183341024
351,1_1_1,1,1.0,2050.19695132,1_I,test,01,3,78.0,01100,ignore,1.0,5600.0,0.744458256493
352,1_1_1,1,1.0,2053.47831581,1_I,test,01,3,79.0,11110,kill,0.0,5500.0,1.13874721045
353,1_1_1,1,1.0,2057.08788953,1_I,test,01,3,80.0,11010,kill,1.0,5600.0,1.47895172004
354,1_1_1,1,1.0,2060.11931026,1_I,test,01,3,81.0,10001,ignore,1.0,5700.0,0.835382835579
355,1_1_1,1,1.0,2062.90071046,1_I,test,01,3,82.0,11101,ignore,1.0,5800.0,0.60729322839
356,1_1_1,1,1.0,2065.55710348,1_I,test,01,3,83.0,00100,ignore,1.0,5900.0,0.525829311511
357,1_1_1,1,1.0,2068.97921692,1_I,test,01,3,84.0,10010,kill,1.0,6000.0,1.31053345901
358,1_1_1,1,1.0,2071.90124785,1_I,test,01,3,85.0,01100,ignore,1.0,6100.0,0.822983189621
359,1_1_1,1,1.0,2075.0576306,1_I,test,01,3,86.0,01111,kill,0.0,6000.0,0.958831237716
360,1_1_1,1,1.0,2078.22968739,1_I,test,01,3,87.0,00110,kill,0.0,5900.0,0.999123929134
361,1_1_1,1,1.0,2081.13612269,1_I,test,01,3,88.0,00001,ignore,0.0,5800.0,0.749856314524
362,1_1_1,1,1.0,2084.18451268,1_I,test,01,3,89.0,00101,ignore,1.0,5900.0,0.888290290637
363,1_1_1,1,1.0,2086.80962496,1_I,test,01,3,90.0,01001,ignore,0.0,5800.0,0.495166831151
364,1_1_1,1,1.0,2090.48173511,1_I,test,01,3,91.0,11111,ignore,1.0,5900.0,1.53656097437
365,1_1_1,1,1.0,2093.39444742,1_I,test,01,3,92.0,01011,ignore,0.0,5800.0,0.786375825373
366,1_1_1,1,1.0,2096.33210599,1_I,test,01,3,93.0,01110,ignore,1.0,5900.0,0.849693908887
367,1_1_1,1,1.0,2099.2385573,1_I,test,01,3,94.0,01000,ignore,0.0,5800.0,0.800449612376
368,1_1_1,1,1.0,2102.03552274,1_I,test,01,3,95.0,11100,ignore,1.0,5900.0,0.663129403962
369,1_1_1,1,1.0,2105.25447929,1_I,test,01,3,96.0,10100,ignore,1.0,6000.0,1.07510070299
370,1_1_1,1,1.0,2108.33274764,1_I,test,01,3,97.0,00010,kill,1.0,6100.0,0.945440161981
371,1_1_1,1,1.0,2111.92661942,1_I,test,01,3,98.0,00011,ignore,0.0,6000.0,1.43175063099
372,1_1_1,1,1.0,2114.75490912,1_I,test,01,3,99.0,01101,ignore,1.0,6100.0,0.713713670153
373,1_1_1,1,1.0,2117.94259108,1_I,test,01,3,100.0,10110,kill,0.0,6000.0,1.0209912163
374,1_1_1,1,1.0,2121.11459943,1_I,test,01,3,101.0,01010,kill,1.0,6100.0,1.07860580752
375,1_1_1,1,1.0,2124.00542638,1_I,test,01,3,102.0,00000,ignore,0.0,6000.0,0.740722434144
376,1_1_1,1,1.0,2126.88055673,1_I,test,01,3,103.0,11011,kill,1.0,6100.0,0.790770137726
377,1_1_1,1,1.0,2130.36508468,1_I,test,01,3,104.0,10101,ignore,1.0,6200.0,1.31005108635
378,1_1_1,1,1.0,2133.31834502,1_I,test,01,3,105.0,11000,ignore,1.0,6300.0,0.812038051197
379,1_1_1,1,1.0,2136.36539298,1_I,test,01,3,106.0,00111,ignore,1.0,6400.0,0.943488913228
380,1_1_1,1,1.0,2139.5217975,1_I,test,01,3,107.0,10011,kill,1.0,6500.0,1.00936911403
381,1_1_1,1,1.0,2143.25637635,1_I,test,01,3,108.0,11001,kill,0.0,6400.0,1.66213920577
382,1_1_1,1,1.0,2145.86587248,1_I,test,01,3,109.0,10111,ignore,1.0,6500.0,0.435082081356
383,1_1_1,1,1.0,2148.7566551,1_I,test,01,3,110.0,10000,ignore,1.0,6600.0,0.741414998138
384,1_1_1,1,1.0,2151.41301938,1_I,test,01,3,111.0,10111,ignore,1.0,6700.0,0.531327128308
385,1_1_1,1,1.0,2154.4913292,1_I,test,01,3,112.0,10010,kill,1.0,6800.0,0.945768175392
386,1_1_1,1,1.0,2157.24143306,1_I,test,01,3,113.0,11010,kill,1.0,6900.0,0.675645229891
387,1_1_1,1,1.0,2160.52288458,1_I,test,01,3,114.0,01101,ignore,1.0,7000.0,1.12496489969
388,1_1_1,1,1.0,2163.6167933,1_I,test,01,3,115.0,10100,ignore,1.0,7100.0,0.946681604484
389,1_1_1,1,1.0,2167.46078167,1_I,test,01,3,116.0,01000,kill,1.0,7200.0,1.74911325536
390,1_1_1,1,1.0,2170.39836182,1_I,test,01,3,117.0,11100,ignore,1.0,7300.0,0.824430718149
391,1_1_1,1,1.0,2173.3985404,1_I,test,01,3,118.0,10000,kill,0.0,7200.0,0.838334956297
392,1_1_1,1,1.0,2176.5861805,1_I,test,01,3,119.0,00010,kill,1.0,7300.0,1.05926656365
393,1_1_1,1,1.0,2179.5147294,1_I,test,01,3,120.0,00100,ignore,1.0,7400.0,0.735247196491
394,1_1_1,1,1.0,2182.68056297,1_I,test,01,3,121.0,11001,ignore,1.0,7500.0,1.07119492125
395,1_1_1,1,1.0,2185.77450946,1_I,test,01,3,122.0,11111,ignore,1.0,7600.0,0.945580973745
396,1_1_1,1,1.0,2188.50902304,1_I,test,01,3,123.0,01100,ignore,1.0,7700.0,0.573044769109
397,1_1_1,1,1.0,2192.978019,1_I,test,01,3,124.0,00000,kill,1.0,7800.0,2.31976504551
398,1_1_1,1,1.0,2195.72808468,1_I,test,01,3,125.0,11101,ignore,1.0,7900.0,0.605789457262
399,1_1_1,1,1.0,2199.21266312,1_I,test,01,3,126.0,11011,kill,1.0,8000.0,1.38333847864
400,1_1_1,1,1.0,2202.00968563,1_I,test,01,3,127.0,01110,ignore,1.0,8100.0,0.619561915304
401,1_1_1,1,1.0,2204.68168207,1_I,test,01,3,128.0,00101,ignore,1.0,8200.0,0.485342849963
402,1_1_1,1,1.0,2207.93182494,1_I,test,01,4,0.0,10011,kill,1.0,8300.0,1.11456001865
403,1_1_1,1,1.0,2211.16636315,1_I,test,01,4,1.0,00111,ignore,0.0,8200.0,1.05603446153
404,1_1_1,1,1.0,2214.1665134,1_I,test,01,4,2.0,00011,kill,1.0,8300.0,0.879532045143
405,1_1_1,1,1.0,2217.5573383,1_I,test,01,4,3.0,00110,ignore,0.0,8200.0,1.21166102051
406,1_1_1,1,1.0,2220.88574993,1_I,test,01,4,4.0,10001,ignore,0.0,8100.0,1.17217994676
407,1_1_1,1,1.0,2223.90141452,1_I,test,01,4,5.0,01111,ignore,1.0,8200.0,0.920290688035
408,1_1_1,1,1.0,2228.74541315,1_I,test,01,4,6.0,01010,kill,0.0,8100.0,2.7224575471
409,1_1_1,1,1.0,2231.9330906,1_I,test,01,4,7.0,01001,ignore,1.0,8200.0,0.994518193864
410,1_1_1,1,1.0,2236.23021123,1_I,test,01,4,8.0,01011,kill,0.0,8100.0,2.13781941281
411,1_1_1,1,1.0,2239.54286056,1_I,test,01,4,9.0,10101,ignore,0.0,8000.0,1.12465166536
412,1_1_1,1,1.0,2242.91801184,1_I,test,01,4,10.0,00001,ignore,0.0,7900.0,1.25357899992
413,1_1_1,1,1.0,2246.62134649,1_I,test,01,4,11.0,10110,ignore,0.0,7800.0,1.54927385466
414,1_1_1,1,1.0,2249.69963373,1_I,test,01,4,12.0,11110,kill,0.0,7700.0,0.92768966893
415,1_1_1,1,1.0,2252.76224488,1_I,test,01,4,13.0,11000,ignore,1.0,7800.0,0.953678266054
416,1_1_1,1,1.0,2256.57501121,1_I,test,01,4,14.0,11101,kill,0.0,7700.0,1.64957698996
417,1_1_1,1,1.0,2259.18445192,1_I,test,01,4,15.0,00110,ignore,0.0,7600.0,0.470642183758
418,1_1_1,1,1.0,2262.4346461,1_I,test,01,4,16.0,10010,ignore,1.0,7700.0,1.07692920329
419,1_1_1,1,1.0,2266.45044083,1_I,test,01,4,17.0,01000,kill,0.0,7600.0,1.85775343244
420,1_1_1,1,1.0,2270.21629672,1_I,test,01,4,18.0,00000,ignore,1.0,7700.0,1.61552517451
421,1_1_1,1,1.0,2273.46646217,1_I,test,01,4,19.0,00010,ignore,1.0,7800.0,1.09391159484
422,1_1_1,1,1.0,2276.3884857,1_I,test,01,4,20.0,01011,ignore,1.0,7900.0,0.819334399617
423,1_1_1,1,1.0,2279.87302432,1_I,test,01,4,21.0,11000,kill,0.0,7800.0,1.30106663886
424,1_1_1,1,1.0,2283.20127174,1_I,test,01,4,22.0,10100,kill,1.0,7900.0,1.15775064084
425,1_1_1,1,1.0,2286.65460229,1_I,test,01,4,23.0,11111,ignore,1.0,8000.0,1.31588512716
426,1_1_1,1,1.0,2289.85787331,1_I,test,01,4,24.0,01110,ignore,1.0,8100.0,1.03336417781
427,1_1_1,1,1.0,2292.63931128,1_I,test,01,4,25.0,10111,ignore,0.0,8000.0,0.672282579246
428,1_1_1,1,1.0,2295.70198155,1_I,test,01,4,26.0,00011,ignore,0.0,7900.0,0.884483036083
429,1_1_1,1,1.0,2299.18650169,1_I,test,01,4,27.0,00100,ignore,0.0,7800.0,1.32130453275
430,1_1_1,1,1.0,2301.85847391,1_I,test,01,4,28.0,00001,ignore,0.0,7700.0,0.559926285245
431,1_1_1,1,1.0,2304.79613084,1_I,test,01,4,29.0,01010,ignore,1.0,7800.0,0.806651488008
432,1_1_1,1,1.0,2307.82755075,1_I,test,01,4,30.0,01111,ignore,1.0,7900.0,0.876363575157
433,1_1_1,1,1.0,2310.78086487,1_I,test,01,4,31.0,10011,ignore,0.0,7800.0,0.800502160208
434,1_1_1,1,1.0,2314.79666904,1_I,test,01,4,32.0,01001,ignore,1.0,7900.0,1.84860764669
435,1_1_1,1,1.0,2317.9374336,1_I,test,01,4,33.0,11011,kill,0.0,7800.0,1.03087144009
436,1_1_1,1,1.0,2322.00016832,1_I,test,01,4,34.0,11100,kill,0.0,7700.0,1.88641704258
437,1_1_1,1,1.0,2324.96907971,1_I,test,01,4,35.0,11001,ignore,1.0,7800.0,0.79671461109
438,1_1_1,1,1.0,2328.21921395,1_I,test,01,4,36.0,10110,ignore,0.0,7700.0,1.12513732226
439,1_1_1,1,1.0,2331.20377105,1_I,test,01,4,37.0,01100,ignore,1.0,7800.0,0.823631826908
440,1_1_1,1,1.0,2335.84464029,1_I,test,01,4,38.0,00101,ignore,0.0,7700.0,2.50303176352
441,1_1_1,1,1.0,2339.17290741,1_I,test,01,4,39.0,00111,ignore,0.0,7600.0,1.15499434289
442,1_1_1,1,1.0,2342.17305643,1_I,test,01,4,40.0,10001,ignore,0.0,7500.0,0.848383086824
443,1_1_1,1,1.0,2345.64200271,1_I,test,01,4,41.0,10000,ignore,1.0,7600.0,1.32644847274
444,1_1_1,1,1.0,2348.93906135,1_I,test,01,4,42.0,10101,kill,1.0,7700.0,1.10733428138
445,1_1_1,1,1.0,2352.20485238,1_I,test,01,4,43.0,11110,kill,0.0,7600.0,1.16037803238
446,1_1_1,1,1.0,2355.42376049,1_I,test,01,4,44.0,01101,ignore,1.0,7700.0,1.0542207403
447,1_1_1,1,1.0,2359.98652271,1_I,test,01,4,45.0,11010,kill,0.0,7600.0,2.4124852825
448,1_1_1,1,1.0,2363.06474057,1_I,test,01,4,46.0,10100,ignore,0.0,7500.0,0.954006279466
449,1_1_1,1,1.0,2365.92438737,1_I,test,01,4,47.0,01000,ignore,1.0,7600.0,0.711015667464
450,1_1_1,1,1.0,2369.19004498,1_I,test,01,4,48.0,00000,ignore,1.0,7700.0,1.09016920401
451,1_1_1,1,1.0,2372.50271155,1_I,test,01,4,49.0,00110,kill,1.0,7800.0,1.1345696579
452,1_1_1,1,1.0,2375.45600063,1_I,test,01,4,50.0,01110,kill,0.0,7700.0,0.827064678171
453,1_1_1,1,1.0,2378.44053022,1_I,test,01,4,51.0,00111,kill,1.0,7800.0,0.846104235192
454,1_1_1,1,1.0,2381.6126256,1_I,test,01,4,52.0,10111,kill,1.0,7900.0,1.04813463411
455,1_1_1,1,1.0,2385.00340042,1_I,test,01,4,53.0,00101,kill,1.0,8000.0,1.19237268235
456,1_1_1,1,1.0,2388.28479652,1_I,test,01,4,54.0,11010,ignore,1.0,8100.0,1.14287508888
457,1_1_1,1,1.0,2391.34740356,1_I,test,01,4,55.0,00010,kill,0.0,8000.0,0.904754182888
458,1_1_1,1,1.0,2394.55077598,1_I,test,01,4,56.0,01101,ignore,1.0,8100.0,1.06496595065
459,1_1_1,1,1.0,2397.97275395,1_I,test,01,4,57.0,11101,kill,0.0,8000.0,1.21852384932
460,1_1_1,1,1.0,2401.12916339,1_I,test,01,4,58.0,10010,ignore,1.0,8100.0,0.982394834551
461,1_1_1,1,1.0,2404.26999979,1_I,test,01,4,59.0,01011,ignore,1.0,8200.0,0.978433220738
462,1_1_1,1,1.0,2407.87953738,1_I,test,01,4,60.0,01100,kill,0.0,8100.0,1.44514334884
463,1_1_1,1,1.0,2410.8640526,1_I,test,01,4,61.0,11000,ignore,1.0,8200.0,0.865007906807
464,1_1_1,1,1.0,2413.81732896,1_I,test,01,4,62.0,10011,ignore,0.0,8100.0,0.741628473701
465,1_1_1,1,1.0,2417.11440402,1_I,test,01,4,63.0,11001,ignore,1.0,8200.0,1.13162574778
466,1_1_1,1,1.0,2420.44270152,1_I,test,01,4,64.0,11011,kill,0.0,8100.0,1.18975596459
467,1_1_1,1,1.0,2423.59908427,1_I,test,01,4,65.0,01111,kill,0.0,8000.0,0.984261514135
468,1_1_1,1,1.0,2426.55236145,1_I,test,01,4,66.0,11111,kill,0.0,7900.0,0.834415216537
469,1_1_1,1,1.0,2429.28688611,1_I,test,01,4,67.0,10001,ignore,0.0,7800.0,0.564691306125
470,1_1_1,1,1.0,2432.02137752,1_I,test,01,4,68.0,01010,ignore,1.0,7900.0,0.557755402984
471,1_1_1,1,1.0,2434.75591204,1_I,test,01,4,69.0,11100,ignore,1.0,8000.0,0.612004880382
472,1_1_1,1,1.0,2437.6779598,1_I,test,01,4,70.0,00100,ignore,0.0,7900.0,0.739580750414
473,1_1_1,1,1.0,2440.30306428,1_I,test,01,4,71.0,10101,ignore,0.0,7800.0,0.446791215974
474,1_1_1,1,1.0,2442.72506811,1_I,test,01,4,72.0,00011,ignore,0.0,7700.0,0.231430499745
475,1_1_1,1,1.0,2445.13147303,1_I,test,01,4,73.0,01001,ignore,1.0,7800.0,0.221400022005
476,1_1_1,1,1.0,2447.88157484,1_I,test,01,4,74.0,00001,ignore,0.0,7700.0,0.617797457671
477,1_1_1,1,1.0,2450.33483929,1_I,test,01,4,75.0,10000,ignore,1.0,7800.0,0.246190282265
478,1_1_1,1,1.0,2453.25687925,1_I,test,01,4,76.0,11110,ignore,1.0,7900.0,0.757412938918
479,1_1_1,1,1.0,2455.97577176,1_I,test,01,4,77.0,10110,ignore,0.0,7800.0,0.560490763895
480,1_1_1,1,1.0,2458.78840179,1_I,test,01,4,78.0,01001,kill,0.0,7700.0,0.642427611259
481,1_1_1,1,1.0,2461.31974247,1_I,test,01,4,79.0,11001,ignore,1.0,7800.0,0.397034988644
482,1_1_1,1,1.0,2463.92930305,1_I,test,01,4,80.0,00001,ignore,0.0,7700.0,0.397102315554
483,1_1_1,1,1.0,2466.695005,1_I,test,01,4,81.0,01100,ignore,1.0,7800.0,0.581265630928
484,1_1_1,1,1.0,2469.67956866,1_I,test,01,4,82.0,10000,ignore,1.0,7900.0,0.83932392289
485,1_1_1,1,1.0,2472.61722066,1_I,test,01,4,83.0,10110,ignore,0.0,7800.0,0.76481068823
486,1_1_1,1,1.0,2475.53920684,1_I,test,01,4,84.0,11101,ignore,1.0,7900.0,0.830763552825
487,1_1_1,1,1.0,2478.25810673,1_I,test,01,4,85.0,01101,ignore,1.0,8000.0,0.577728094533
488,1_1_1,1,1.0,2481.89892507,1_I,test,01,4,86.0,10101,kill,1.0,8100.0,1.4414391373
489,1_1_1,1,1.0,2485.16472513,1_I,test,01,4,87.0,10100,ignore,0.0,8000.0,1.13657632819
490,1_1_1,1,1.0,2488.21172671,1_I,test,01,4,88.0,11011,ignore,1.0,8100.0,0.937021014208
491,1_1_1,1,1.0,2491.43069557,1_I,test,01,4,89.0,01110,ignore,1.0,8200.0,1.12017196278
492,1_1_1,1,1.0,2494.41515865,1_I,test,01,4,90.0,10011,ignore,0.0,8100.0,0.81398273147
493,1_1_1,1,1.0,2497.52477138,1_I,test,01,4,91.0,00111,ignore,0.0,8000.0,0.938220993186
494,1_1_1,1,1.0,2500.44670747,1_I,test,01,4,92.0,10010,ignore,1.0,8100.0,0.802748579976
495,1_1_1,1,1.0,2503.27505218,1_I,test,01,4,93.0,01000,ignore,1.0,8200.0,0.70365035002
496,1_1_1,1,1.0,2507.61900524,1_I,test,01,4,94.0,00101,kill,1.0,8300.0,2.15754948117
497,1_1_1,1,1.0,2510.85355864,1_I,test,01,4,95.0,11000,ignore,1.0,8400.0,1.07120066867
498,1_1_1,1,1.0,2514.21309213,1_I,test,01,4,96.0,10001,ignore,0.0,8300.0,1.16648220189
499,1_1_1,1,1.0,2517.38506106,1_I,test,01,4,97.0,01010,ignore,1.0,8400.0,1.05725127223
500,1_1_1,1,1.0,2520.07273071,1_I,test,01,4,98.0,00100,ignore,0.0,8300.0,0.475764776202
501,1_1_1,1,1.0,2523.2916577,1_I,test,01,4,99.0,00110,ignore,0.0,8200.0,1.01440508466
502,1_1_1,1,1.0,2527.24496649,1_I,test,01,4,100.0,11110,ignore,1.0,8300.0,1.84168323839
503,1_1_1,1,1.0,2531.15142807,1_I,test,01,4,101.0,11111,kill,0.0,8200.0,1.72905517358
504,1_1_1,1,1.0,2534.21407001,1_I,test,01,4,102.0,00000,ignore,1.0,8300.0,0.930841717724
505,1_1_1,1,1.0,2538.01113809,1_I,test,01,4,103.0,01111,kill,0.0,8200.0,1.48998060657
506,1_1_1,1,1.0,2540.82382437,1_I,test,01,4,104.0,00010,ignore,1.0,8300.0,0.534681568355
507,1_1_1,1,1.0,2544.41768998,1_I,test,01,4,105.0,10111,kill,1.0,8400.0,1.36112470421
508,1_1_1,1,1.0,2547.68353397,1_I,test,01,4,106.0,11100,ignore,1.0,8500.0,1.08518906546
509,1_1_1,1,1.0,2550.40242771,1_I,test,01,4,107.0,11010,ignore,1.0,8600.0,0.59731406689
510,1_1_1,1,1.0,2553.10565809,1_I,test,01,4,108.0,01011,ignore,1.0,8700.0,0.538388653607
511,1_1_1,1,1.0,2555.73081512,1_I,test,01,4,109.0,00011,ignore,0.0,8600.0,0.410693319365
512,1_1_1,1,1.0,2558.88724754,1_I,test,01,4,110.0,10111,kill,1.0,8700.0,1.04134118486
513,1_1_1,1,1.0,2561.7154691,1_I,test,01,4,111.0,00011,ignore,0.0,8600.0,0.70656552304
514,1_1_1,1,1.0,2564.93446341,1_I,test,01,4,112.0,00111,ignore,0.0,8500.0,1.01801528485
515,1_1_1,1,1.0,2568.04393697,1_I,test,01,4,113.0,10011,ignore,0.0,8400.0,0.930982118956
516,1_1_1,1,1.0,2571.01284548,1_I,test,01,4,114.0,11001,ignore,1.0,8500.0,0.789281966736
517,1_1_1,1,1.0,2574.01300066,1_I,test,01,4,115.0,11011,kill,0.0,8400.0,0.876888232408
518,1_1_1,1,1.0,2577.10688229,1_I,test,01,4,116.0,00100,ignore,0.0,8300.0,0.908343446055
519,1_1_1,1,1.0,2579.71644246,1_I,test,01,4,117.0,01101,ignore,1.0,8400.0,0.46076401262
520,1_1_1,1,1.0,2583.16969952,1_I,test,01,4,118.0,11111,kill,0.0,8300.0,1.32635897722
521,1_1_1,1,1.0,2586.01362426,1_I,test,01,4,119.0,00000,ignore,1.0,8400.0,0.642155019385
522,1_1_1,1,1.0,2588.57624854,1_I,test,01,4,120.0,00110,ignore,0.0,8300.0,0.457890303118
523,1_1_1,1,1.0,2591.263848,1_I,test,01,4,121.0,11000,ignore,1.0,8400.0,0.496270746127
524,1_1_1,1,1.0,2594.56094563,1_I,test,01,4,122.0,10100,ignore,0.0,8300.0,1.10782240147
525,1_1_1,1,1.0,2597.27980324,1_I,test,01,4,123.0,00001,ignore,0.0,8200.0,0.567795322913
526,1_1_1,1,1.0,2600.8893745,1_I,test,01,4,124.0,01100,kill,0.0,8100.0,1.40124784677
527,1_1_1,1,1.0,2603.87389588,1_I,test,01,4,125.0,00010,kill,0.0,8000.0,0.863876486321
528,1_1_1,1,1.0,2606.49907302,1_I,test,01,4,126.0,01001,ignore,1.0,8100.0,0.47009207365
529,1_1_1,1,1.0,2610.40549067,1_I,test,01,4,127.0,01111,kill,0.0,8000.0,1.73524965967
530,1_1_1,1,1.0,2612.9524709,1_I,test,01,4,128.0,11101,ignore,1.0,8100.0,0.402529521209
531,1_1_1,1,1.0,2615.97144436,1_I,test,01,4,129.0,10001,ignore,0.0,8000.0,0.823701206464
