,unique_id,pair_id,sbj_id,wall_time,condition,block,rule_id,rule_num,trial,stimulus,choice,correct,points,reaction_time
0,2_19_1,19,1.0,44.0128988503,2_ND,training,05,1_A,1.0,11001,kill,0.0,0.0,2.9795108618
1,2_19_1,19,1.0,49.3413055509,2_ND,training,05,1_A,2.0,10110,kill,0.0,0.0,3.05775540298
2,2_19_1,19,1.0,52.7789998341,2_ND,training,05,1_A,3.0,11000,ignore,0.0,0.0,1.31175889085
3,2_19_1,19,1.0,58.4198818002,2_ND,training,05,1_A,4.0,11111,ignore,1.0,100.0,3.49777656991
4,2_19_1,19,1.0,63.5295109439,2_ND,training,05,1_A,5.0,11010,ignore,0.0,0.0,2.98475168686
5,2_19_1,19,1.0,66.9046650979,2_ND,training,05,1_A,6.0,01010,ignore,0.0,0.0,1.24624488274
6,2_19_1,19,1.0,69.920468858,2_ND,training,05,1_A,7.0,01000,kill,1.0,100.0,0.899949340608
7,2_19_1,19,1.0,73.4675262616,2_ND,training,05,1_A,8.0,10100,ignore,1.0,200.0,1.37002170882
8,2_19_1,19,1.0,76.9989519171,2_ND,training,05,1_A,9.0,00011,kill,0.0,100.0,1.37295330304
9,2_19_1,19,1.0,82.5461324796,2_ND,training,05,1_A,10.0,00110,ignore,0.0,0.0,3.38692568916
10,2_19_1,19,1.0,89.2964572088,2_ND,training,05,1_A,11.0,01011,kill,0.0,0.0,4.59761252215
11,2_19_1,19,1.0,94.7498678094,2_ND,training,05,1_A,12.0,01110,ignore,0.0,0.0,3.29330187579
12,2_19_1,19,1.0,98.4689717375,2_ND,training,05,1_A,13.0,11100,ignore,1.0,100.0,1.55160361201
13,2_19_1,19,1.0,105.859787608,2_ND,training,05,1_A,14.0,00001,kill,0.0,0.0,5.23256438341
14,2_19_1,19,1.0,112.860157906,2_ND,training,05,1_A,15.0,10111,kill,0.0,0.0,4.86268923377
15,2_19_1,19,1.0,118.001021809,2_ND,training,05,1_A,16.0,01101,kill,0.0,0.0,2.97423678381
16,2_19_1,19,1.0,121.485618726,2_ND,training,05,1_A,17.0,11101,ignore,1.0,100.0,1.36577765042
17,2_19_1,19,1.0,124.954529295,2_ND,training,05,1_A,18.0,10010,ignore,0.0,0.0,1.36275204485
18,2_19_1,19,1.0,128.298422416,2_ND,training,05,1_A,19.0,10101,ignore,1.0,100.0,1.19076135238
19,2_19_1,19,1.0,132.626805305,2_ND,training,05,1_A,20.0,11110,kill,0.0,0.0,2.20347300109
20,2_19_1,19,1.0,136.423882414,2_ND,training,05,1_A,21.0,00100,ignore,0.0,0.0,1.65771205103
21,2_19_1,19,1.0,141.017841631,2_ND,training,05,1_A,22.0,10001,ignore,1.0,100.0,2.44325491117
22,2_19_1,19,1.0,148.971350348,2_ND,training,05,1_A,23.0,01111,kill,0.0,0.0,5.8202285338
23,2_19_1,19,1.0,159.690665288,2_ND,training,05,1_A,24.0,01100,ignore,0.0,0.0,8.58152878061
24,2_19_1,19,1.0,163.565878559,2_ND,training,05,1_A,25.0,00010,ignore,0.0,0.0,1.71976775501
25,2_19_1,19,1.0,168.831754983,2_ND,training,05,1_A,26.0,01001,ignore,1.0,100.0,3.12058741907
26,2_19_1,19,1.0,173.972652959,2_ND,training,05,1_A,27.0,10011,ignore,1.0,200.0,3.0270843015
27,2_19_1,19,1.0,180.707368109,2_ND,training,05,1_A,28.0,00101,kill,0.0,100.0,4.56817834734
28,2_19_1,19,1.0,184.72317269,2_ND,training,05,1_A,29.0,11011,kill,0.0,0.0,1.89358817937
29,2_19_1,19,1.0,187.629600604,2_ND,training,05,1_A,30.0,10000,ignore,0.0,0.0,0.765873550212
30,2_19_1,19,1.0,190.832869161,2_ND,training,05,1_A,31.0,00000,ignore,0.0,0.0,1.06700792651
31,2_19_1,19,1.0,199.83331007,2_ND,training,05,1_A,32.0,00111,ignore,1.0,100.0,6.85843860689
32,2_19_1,19,1.0,204.021031038,2_ND,training,05,1_A,33.0,01111,ignore,1.0,200.0,2.04750693385
33,2_19_1,19,1.0,209.47444287,2_ND,training,05,1_A,34.0,11100,ignore,1.0,300.0,3.30011051466
34,2_19_1,19,1.0,213.771561032,2_ND,training,05,1_A,35.0,11011,kill,0.0,200.0,2.15168875592
35,2_19_1,19,1.0,216.943573482,2_ND,training,05,1_A,36.0,01101,ignore,1.0,300.0,1.02379883048
36,2_19_1,19,1.0,220.209388737,2_ND,training,05,1_A,37.0,11000,ignore,0.0,200.0,1.12956817178
37,2_19_1,19,1.0,223.678277137,2_ND,training,05,1_A,38.0,10011,ignore,1.0,300.0,1.30232080779
38,2_19_1,19,1.0,227.787872207,2_ND,training,05,1_A,39.0,11110,kill,0.0,200.0,1.9777673412
39,2_19_1,19,1.0,231.319336452,2_ND,training,05,1_A,40.0,10000,kill,1.0,300.0,1.36969287435
40,2_19_1,19,1.0,234.631953761,2_ND,training,05,1_A,41.0,00011,ignore,1.0,400.0,1.16850734602
41,2_19_1,19,1.0,237.944698334,2_ND,training,05,1_A,42.0,01001,ignore,1.0,500.0,1.16385398928
42,2_19_1,19,1.0,241.022951086,2_ND,training,05,1_A,43.0,01011,ignore,1.0,600.0,0.942329166181
43,2_19_1,19,1.0,245.195036201,2_ND,training,05,1_A,44.0,11111,ignore,1.0,700.0,2.03833076889
44,2_19_1,19,1.0,250.023393227,2_ND,training,05,1_A,45.0,00010,kill,1.0,800.0,2.678211863
45,2_19_1,19,1.0,253.19540732,2_ND,training,05,1_A,46.0,10111,ignore,1.0,900.0,1.04787066337
46,2_19_1,19,1.0,257.617629551,2_ND,training,05,1_A,47.0,00110,ignore,0.0,800.0,2.2619763896
47,2_19_1,19,1.0,261.039593148,2_ND,training,05,1_A,48.0,10110,kill,0.0,700.0,1.2654576834
48,2_19_1,19,1.0,264.38351008,2_ND,training,05,1_A,49.0,01100,ignore,0.0,600.0,1.20298159677
49,2_19_1,19,1.0,267.930571589,2_ND,training,05,1_A,50.0,01010,ignore,0.0,500.0,1.41643252776
50,2_19_1,19,1.0,270.883841788,2_ND,training,05,1_A,51.0,11001,ignore,1.0,600.0,0.812045851264
51,2_19_1,19,1.0,273.899626254,2_ND,training,05,1_A,52.0,10001,ignore,1.0,700.0,0.850716128407
52,2_19_1,19,1.0,277.181035488,2_ND,training,05,1_A,53.0,00001,ignore,1.0,800.0,1.12563160029
53,2_19_1,19,1.0,280.71242009,2_ND,training,05,1_A,54.0,10101,kill,0.0,700.0,1.36835783102
54,2_19_1,19,1.0,286.244001337,2_ND,training,05,1_A,55.0,00101,kill,0.0,600.0,3.33769329802
55,2_19_1,19,1.0,289.087889121,2_ND,training,05,1_A,56.0,11101,ignore,1.0,700.0,0.690816773924
56,2_19_1,19,1.0,292.306777521,2_ND,training,05,1_A,57.0,00111,ignore,1.0,800.0,1.05246161956
57,2_19_1,19,1.0,296.822644092,2_ND,training,05,1_A,58.0,00100,ignore,0.0,700.0,2.34373629856
58,2_19_1,19,1.0,299.666516276,2_ND,training,05,1_A,59.0,10010,ignore,0.0,600.0,0.694012749416
59,2_19_1,19,1.0,302.963624585,2_ND,training,05,1_A,60.0,10100,ignore,1.0,700.0,1.12486390933
60,2_19_1,19,1.0,314.417297925,2_ND,training,05,1_A,61.0,00000,kill,1.0,800.0,9.29714033063
61,2_19_1,19,1.0,322.21455772,2_ND,training,05,1_A,62.0,01000,kill,1.0,900.0,5.65836725679
62,2_19_1,19,1.0,327.233577982,2_ND,training,05,1_A,63.0,11010,ignore,0.0,800.0,2.897080968
63,2_19_1,19,1.0,334.905854814,2_ND,training,05,1_A,64.0,01110,ignore,0.0,700.0,5.52567166802
64,2_19_1,19,1.0,339.765476157,2_ND,training,05,1_A,65.0,11111,kill,0.0,600.0,2.70232105411
65,2_19_1,19,1.0,343.265642832,2_ND,training,05,1_A,66.0,00101,kill,0.0,500.0,1.36436132217
66,2_19_1,19,1.0,350.641026473,2_ND,training,05,1_A,67.0,00100,kill,1.0,600.0,5.23119485557
67,2_19_1,19,1.0,354.859970705,2_ND,training,05,1_A,68.0,10111,ignore,1.0,700.0,2.09399862719
68,2_19_1,19,1.0,360.422771931,2_ND,training,05,1_A,69.0,00010,ignore,0.0,600.0,3.40832374062
69,2_19_1,19,1.0,363.282307884,2_ND,training,05,1_A,70.0,01001,ignore,1.0,700.0,0.732809059249
70,2_19_1,19,1.0,371.04828612,2_ND,training,05,1_A,71.0,01101,kill,0.0,600.0,5.60331601444
71,2_19_1,19,1.0,375.829799629,2_ND,training,05,1_A,72.0,10001,ignore,1.0,700.0,2.62424975656
72,2_19_1,19,1.0,381.173817551,2_ND,training,05,1_A,73.0,10101,kill,0.0,600.0,3.17273169899
73,2_19_1,19,1.0,388.689815902,2_ND,training,05,1_A,74.0,11100,ignore,1.0,700.0,5.36333253417
74,2_19_1,19,1.0,394.346381753,2_ND,training,05,1_A,75.0,00001,ignore,1.0,800.0,3.50242417923
75,2_19_1,19,1.0,402.799958619,2_ND,training,05,1_A,76.0,11011,ignore,1.0,900.0,6.31527590074
76,2_19_1,19,1.0,412.925429291,2_ND,training,05,1_A,77.0,01010,kill,1.0,1000.0,7.99085339319
77,2_19_1,19,1.0,419.144516388,2_ND,training,05,1_A,78.0,00111,ignore,1.0,1100.0,4.04678070641
78,2_19_1,19,1.0,423.61349182,2_ND,training,05,1_A,79.0,10100,ignore,1.0,1200.0,2.3128940061
79,2_19_1,19,1.0,427.129276696,2_ND,training,05,1_A,80.0,01111,kill,0.0,1100.0,1.37563529506
80,2_19_1,19,1.0,431.082638032,2_ND,training,05,1_A,81.0,01100,ignore,0.0,1000.0,1.79210805476
81,2_19_1,19,1.0,435.082824413,2_ND,training,05,1_A,82.0,11000,ignore,0.0,900.0,1.85290835823
82,2_19_1,19,1.0,438.223590199,2_ND,training,05,1_A,83.0,01011,ignore,1.0,1000.0,0.998281932247
83,2_19_1,19,1.0,441.958162484,2_ND,training,05,1_A,84.0,10110,kill,0.0,900.0,1.57435846488
84,2_19_1,19,1.0,459.099649572,2_ND,training,05,1_A,85.0,11101,kill,0.0,800.0,15.0050257074
85,2_19_1,19,1.0,462.865476321,2_ND,training,05,1_A,86.0,11110,kill,0.0,700.0,1.66701219602
86,2_19_1,19,1.0,469.709578402,2_ND,training,05,1_A,87.0,10000,ignore,0.0,600.0,4.70888173289
87,2_19_1,19,1.0,476.319282673,2_ND,training,05,1_A,88.0,00011,ignore,1.0,700.0,4.45646699586
88,2_19_1,19,1.0,481.882086773,2_ND,training,05,1_A,89.0,00110,ignore,0.0,600.0,3.39198506
89,2_19_1,19,1.0,485.038483075,2_ND,training,05,1_A,90.0,11010,ignore,0.0,500.0,1.03010580177
90,2_19_1,19,1.0,488.382433671,2_ND,training,05,1_A,91.0,00000,ignore,0.0,400.0,1.20645098519
91,2_19_1,19,1.0,491.195070275,2_ND,training,05,1_A,92.0,11001,ignore,1.0,500.0,0.664020253906
92,2_19_1,19,1.0,495.914019022,2_ND,training,05,1_A,93.0,01110,ignore,0.0,400.0,2.57609746966
93,2_19_1,19,1.0,499.211067805,2_ND,training,05,1_A,94.0,10010,kill,1.0,500.0,1.16090351069
94,2_19_1,19,1.0,502.211255827,2_ND,training,05,1_A,95.0,10011,kill,0.0,400.0,0.872693027064
95,2_19_1,19,1.0,506.664610185,2_ND,training,05,1_A,96.0,01000,kill,1.0,500.0,2.28617671836
96,2_19_1,19,1.0,514.649361462,2_ND,training,05,1_A,97.0,11101,ignore,1.0,600.0,5.81668648158
97,2_19_1,19,1.0,522.212216878,2_ND,training,05,1_A,98.0,00100,ignore,0.0,500.0,5.39995508803
98,2_19_1,19,1.0,531.181426312,2_ND,training,05,1_A,99.0,11100,kill,0.0,400.0,6.82060581081
99,2_19_1,19,1.0,535.962935305,2_ND,training,05,1_A,100.0,11111,kill,0.0,300.0,2.63875090522
100,2_19_1,19,1.0,539.291219668,2_ND,training,05,1_A,101.0,01100,ignore,0.0,200.0,1.1622931545
101,2_19_1,19,1.0,542.119515525,2_ND,training,05,1_A,102.0,11011,ignore,1.0,300.0,0.686777159426
102,2_19_1,19,1.0,548.963648396,2_ND,training,05,1_A,103.0,10010,ignore,0.0,200.0,4.71236466881
103,2_19_1,19,1.0,552.791963959,2_ND,training,05,1_A,104.0,11000,kill,1.0,300.0,1.69489826247
104,2_19_1,19,1.0,563.698741644,2_ND,training,05,1_A,105.0,10111,ignore,1.0,400.0,8.76543756743
105,2_19_1,19,1.0,567.105169968,2_ND,training,05,1_A,106.0,01001,kill,0.0,300.0,1.28299429035
106,2_19_1,19,1.0,570.41782874,2_ND,training,05,1_A,107.0,01010,kill,1.0,400.0,1.16660453981
107,2_19_1,19,1.0,573.339881012,2_ND,training,05,1_A,108.0,10001,ignore,1.0,500.0,0.782525465173
108,2_19_1,19,1.0,576.652512279,2_ND,training,05,1_A,109.0,00001,ignore,1.0,600.0,1.17535211152
109,2_19_1,19,1.0,580.137051311,2_ND,training,05,1_A,110.0,11110,kill,0.0,500.0,1.3393350072
110,2_19_1,19,1.0,583.199745389,2_ND,training,05,1_A,111.0,01000,ignore,0.0,400.0,0.93011590081
111,2_19_1,19,1.0,586.793671353,2_ND,training,05,1_A,112.0,11010,kill,1.0,500.0,1.45302634453
112,2_19_1,19,1.0,590.543836386,2_ND,training,05,1_A,113.0,00111,ignore,1.0,600.0,1.60831380579
113,2_19_1,19,1.0,594.24716488,2_ND,training,05,1_A,114.0,00101,ignore,1.0,700.0,1.528840138
114,2_19_1,19,1.0,597.325480443,2_ND,training,05,1_A,115.0,01011,kill,0.0,600.0,0.939964513793
115,2_19_1,19,1.0,602.560122519,2_ND,training,05,1_A,116.0,00010,kill,1.0,700.0,3.08893391946
116,2_19_1,19,1.0,605.872769796,2_ND,training,05,1_A,117.0,10110,kill,0.0,600.0,1.15550340001
117,2_19_1,19,1.0,609.544785531,2_ND,training,05,1_A,118.0,00011,ignore,1.0,700.0,1.54201650659
118,2_19_1,19,1.0,612.544977659,2_ND,training,05,1_A,119.0,00110,ignore,0.0,600.0,0.862027048996
119,2_19_1,19,1.0,616.982712995,2_ND,training,05,1_A,120.0,10011,ignore,1.0,700.0,2.28088416652
120,2_19_1,19,1.0,627.076973951,2_ND,training,05,1_A,121.0,10101,ignore,1.0,800.0,7.9345052868
121,2_19_1,19,1.0,630.639661461,2_ND,training,05,1_A,122.0,00000,ignore,0.0,700.0,1.38720033368
122,2_19_1,19,1.0,634.124219377,2_ND,training,05,1_A,123.0,01110,kill,1.0,800.0,1.35056464286
123,2_19_1,19,1.0,637.546231007,2_ND,training,05,1_A,124.0,10100,ignore,1.0,900.0,1.24956689093
124,2_19_1,19,1.0,640.624532612,2_ND,training,05,1_A,125.0,10000,ignore,0.0,800.0,0.915606952076
125,2_19_1,19,1.0,643.530912904,2_ND,training,05,1_A,126.0,11001,kill,0.0,700.0,0.772341449236
126,2_19_1,19,1.0,654.84402367,2_ND,training,05,1_A,127.0,01101,ignore,1.0,800.0,9.18016475387
127,2_19_1,19,1.0,657.953563318,2_ND,training,05,1_A,128.0,01111,ignore,1.0,900.0,0.982327918169
128,2_19_1,19,1.0,660.859944431,2_ND,training,05,1_A,129.0,00010,kill,1.0,1000.0,0.735911023385
129,2_19_1,19,1.0,664.000717196,2_ND,training,05,1_A,130.0,10111,kill,0.0,900.0,0.965680108511
130,2_19_1,19,1.0,668.469720955,2_ND,training,05,1_A,131.0,10101,kill,0.0,800.0,2.32824084641
131,2_19_1,19,1.0,671.626110689,2_ND,training,05,1_A,132.0,11100,ignore,1.0,900.0,0.993698365597
132,2_19_1,19,1.0,676.704498505,2_ND,training,05,1_A,133.0,11101,ignore,1.0,1000.0,2.91712919706
133,2_19_1,19,1.0,680.392179651,2_ND,training,05,1_A,134.0,00100,kill,1.0,1100.0,1.52639666387
134,2_19_1,19,1.0,684.126752758,2_ND,training,05,1_A,135.0,01000,ignore,0.0,1000.0,1.59435168293
135,2_19_1,19,1.0,687.705035889,2_ND,training,05,1_A,136.0,01111,ignore,1.0,1100.0,1.45988794175
136,2_19_1,19,1.0,690.689601195,2_ND,training,05,1_A,137.0,00110,kill,1.0,1200.0,0.801098660195
137,2_19_1,19,1.0,694.017845736,2_ND,training,05,1_A,138.0,11011,ignore,1.0,1300.0,1.13537922292
138,2_19_1,19,1.0,697.049269749,2_ND,training,05,1_A,139.0,00111,kill,0.0,1200.0,0.884818028502
139,2_19_1,19,1.0,700.018152812,2_ND,training,05,1_A,140.0,01001,ignore,1.0,1300.0,0.803483018019
140,2_19_1,19,1.0,703.049575184,2_ND,training,05,1_A,141.0,00000,kill,1.0,1400.0,0.895881810076
141,2_19_1,19,1.0,706.018486984,2_ND,training,05,1_A,142.0,10000,kill,1.0,1500.0,0.830756163283
142,2_19_1,19,1.0,709.143667822,2_ND,training,05,1_A,143.0,00101,kill,0.0,1400.0,0.956831956963
143,2_19_1,19,1.0,712.268795702,2_ND,training,05,1_A,144.0,10010,kill,1.0,1500.0,0.994363013553
144,2_19_1,19,1.0,715.050187694,2_ND,training,05,1_A,145.0,01110,ignore,0.0,1400.0,0.632531787334
145,2_19_1,19,1.0,717.831604318,2_ND,training,05,1_A,146.0,01101,ignore,1.0,1500.0,0.644694968054
146,2_19_1,19,1.0,721.097413005,2_ND,training,05,1_A,147.0,00011,kill,0.0,1400.0,1.11623580182
147,2_19_1,19,1.0,724.019406981,2_ND,training,05,1_A,148.0,11111,ignore,1.0,1500.0,0.778744073999
148,2_19_1,19,1.0,726.863293534,2_ND,training,05,1_A,149.0,10110,kill,0.0,1400.0,0.7051151208
149,2_19_1,19,1.0,730.316601502,2_ND,training,05,1_A,150.0,10011,kill,0.0,1300.0,1.30822587028
150,2_19_1,19,1.0,733.863710222,2_ND,training,05,1_A,151.0,10100,kill,0.0,1200.0,1.38408482205
151,2_19_1,19,1.0,736.926269235,2_ND,training,05,1_A,152.0,01010,ignore,0.0,1100.0,0.930435703624
152,2_19_1,19,1.0,740.285846652,2_ND,training,05,1_A,153.0,10001,ignore,1.0,1200.0,1.20338432663
153,2_19_1,19,1.0,744.161023385,2_ND,training,05,1_A,154.0,11001,kill,0.0,1100.0,1.74567424614
154,2_19_1,19,1.0,748.192527863,2_ND,training,05,1_A,155.0,01011,kill,0.0,1000.0,1.86655683623
155,2_19_1,19,1.0,752.755220709,2_ND,training,05,1_A,156.0,11110,ignore,1.0,1100.0,2.37234079239
156,2_19_1,19,1.0,757.36484739,2_ND,training,05,1_A,157.0,11000,ignore,0.0,1000.0,2.34751933186
157,2_19_1,19,1.0,760.740035618,2_ND,training,05,1_A,158.0,00001,ignore,1.0,1100.0,1.22455001815
158,2_19_1,19,1.0,765.474624324,2_ND,training,05,1_A,159.0,11010,ignore,0.0,1000.0,2.62698511747
159,2_19_1,19,1.0,769.943613304,2_ND,training,05,1_A,160.0,01100,ignore,0.0,900.0,2.2853872693
160,2_19_1,19,1.0,773.506289319,2_ND,training,05,1_A,161.0,11000,kill,1.0,1000.0,1.43099320327
161,2_19_1,19,1.0,776.959610013,2_ND,training,05,1_A,162.0,01100,ignore,0.0,900.0,1.30871111666
162,2_19_1,19,1.0,781.053551987,2_ND,training,05,1_A,163.0,00001,ignore,1.0,1000.0,1.93591299393
163,2_19_1,19,1.0,784.366188591,2_ND,training,05,1_A,164.0,01000,kill,1.0,1100.0,1.18881790371
164,2_19_1,19,1.0,787.538306137,2_ND,training,05,1_A,165.0,11010,kill,1.0,1200.0,1.04471040398
165,2_19_1,19,1.0,790.835306066,2_ND,training,05,1_A,166.0,01001,ignore,1.0,1300.0,1.15098141285
166,2_19_1,19,1.0,794.038589813,2_ND,training,05,1_A,167.0,00110,ignore,0.0,1200.0,1.0728046091
167,2_19_1,19,1.0,797.820041743,2_ND,training,05,1_A,168.0,10000,ignore,0.0,1100.0,1.64078179678
168,2_19_1,19,1.0,800.476430656,2_ND,training,05,1_A,169.0,10111,kill,0.0,1000.0,0.4855353885
169,2_19_1,19,1.0,803.554726103,2_ND,training,05,1_A,170.0,00111,kill,0.0,900.0,0.926076696844
170,2_19_1,19,1.0,806.414214435,2_ND,training,05,1_A,171.0,10110,ignore,1.0,1000.0,0.71483113262
171,2_19_1,19,1.0,809.492518092,2_ND,training,05,1_A,172.0,10010,ignore,0.0,900.0,0.953392126692
172,2_19_1,19,1.0,813.258344842,2_ND,training,05,1_A,173.0,00011,ignore,1.0,1000.0,1.6050767773
173,2_19_1,19,1.0,819.602420238,2_ND,training,05,1_A,174.0,11111,kill,0.0,900.0,4.19821164952
174,2_19_1,19,1.0,830.399804013,2_ND,training,05,1_A,175.0,10100,ignore,1.0,1000.0,8.66551294073
175,2_19_1,19,1.0,836.071973697,2_ND,training,05,1_A,176.0,00100,kill,1.0,1100.0,3.49767557954
176,2_19_1,19,1.0,841.197257167,2_ND,training,05,1_A,177.0,10101,ignore,1.0,1200.0,2.9664646312
177,2_19_1,19,1.0,950.812182968,2_ND,test,05,2,0.0,11011,ignore,1.0,100.0,7.57975200708
178,2_19_1,19,1.0,954.928094451,2_ND,test,05,2,1.0,01010,kill,0.0,0.0,1.96676390752
179,2_19_1,19,1.0,959.740859141,2_ND,test,05,2,2.0,11001,ignore,1.0,100.0,2.69305580415
180,2_19_1,19,1.0,965.53800604,2_ND,test,05,2,3.0,10011,ignore,1.0,200.0,3.63340457396
181,2_19_1,19,1.0,969.022529472,2_ND,test,05,2,4.0,11101,ignore,1.0,300.0,1.35375897623
182,2_19_1,19,1.0,974.913445923,2_ND,test,05,2,5.0,00000,kill,0.0,200.0,3.74076061343
183,2_19_1,19,1.0,985.601502704,2_ND,test,05,2,6.0,00010,ignore,1.0,300.0,8.54647937744
184,2_19_1,19,1.0,990.023594797,2_ND,test,05,2,7.0,11100,kill,0.0,200.0,2.29764651403
185,2_19_1,19,1.0,993.851947308,2_ND,test,05,2,8.0,10001,ignore,1.0,300.0,1.69566636397
186,2_19_1,19,1.0,996.914596227,2_ND,test,05,2,9.0,01101,ignore,1.0,400.0,0.925474449436
187,2_19_1,19,1.0,999.570944498,2_ND,test,05,2,10.0,01111,ignore,0.0,300.0,0.504643093489
188,2_19_1,19,1.0,1017.36877575,2_ND,test,05,2,11.0,00101,kill,1.0,400.0,15.6439921408
189,2_19_1,19,1.0,1026.07232306,2_ND,test,05,2,12.0,11110,ignore,0.0,300.0,6.592816301
190,2_19_1,19,1.0,1037.83855418,2_ND,test,05,2,13.0,01011,ignore,1.0,400.0,9.64692948245
191,2_19_1,19,1.0,1050.21415827,2_ND,test,05,2,14.0,01110,kill,1.0,500.0,10.2355575571
192,2_19_1,19,1.0,1057.55833753,2_ND,test,05,2,15.0,10100,ignore,0.0,400.0,5.18606858477
193,2_19_1,19,1.0,1063.96488532,2_ND,test,05,2,16.0,00101,kill,1.0,500.0,4.24776835931
194,2_19_1,19,1.0,1068.46508689,2_ND,test,05,2,17.0,01001,ignore,1.0,600.0,2.37157022771
195,2_19_1,19,1.0,1072.66842524,2_ND,test,05,2,18.0,00000,ignore,1.0,700.0,2.00810837662
196,2_19_1,19,1.0,1076.6529926,2_ND,test,05,2,19.0,00110,kill,1.0,800.0,1.81498647714
197,2_19_1,19,1.0,1081.21575195,2_ND,test,05,2,20.0,00010,ignore,1.0,900.0,2.42670398657
198,2_19_1,19,1.0,1084.90341586,2_ND,test,05,2,21.0,11100,kill,0.0,800.0,1.564778749
199,2_19_1,19,1.0,1091.62253703,2_ND,test,05,2,22.0,10000,ignore,1.0,900.0,4.58452236485
200,2_19_1,19,1.0,1098.12284287,2_ND,test,05,2,23.0,11011,ignore,1.0,1000.0,4.33206123793
201,2_19_1,19,1.0,1104.0293882,2_ND,test,05,2,24.0,10010,ignore,1.0,1100.0,3.74113337461
202,2_19_1,19,1.0,1108.96714447,2_ND,test,05,2,25.0,11110,kill,1.0,1200.0,2.80836627152
203,2_19_1,19,1.0,1113.26427905,2_ND,test,05,2,26.0,10011,ignore,1.0,1300.0,2.15320935877
204,2_19_1,19,1.0,1118.26449335,2_ND,test,05,2,27.0,10111,kill,1.0,1400.0,2.73033766908
205,2_19_1,19,1.0,1122.53036936,2_ND,test,05,2,28.0,10101,kill,1.0,1500.0,2.10955606936
206,2_19_1,19,1.0,1127.10869437,2_ND,test,05,2,29.0,11010,ignore,1.0,1600.0,2.4392321284
207,2_19_1,19,1.0,1132.10893986,2_ND,test,05,2,30.0,11001,ignore,1.0,1700.0,2.87877461743
208,2_19_1,19,1.0,1136.70295696,2_ND,test,05,2,31.0,00011,ignore,1.0,1800.0,2.46451789829
209,2_19_1,19,1.0,1140.29686774,2_ND,test,05,3,0.0,11111,kill,0.0,1700.0,1.4480014582
210,2_19_1,19,1.0,1147.68788231,2_ND,test,05,3,1.0,01111,kill,0.0,1600.0,5.23592292875
211,2_19_1,19,1.0,1158.48529359,2_ND,test,05,3,2.0,11101,kill,0.0,1500.0,8.65675633735
212,2_19_1,19,1.0,1168.62642885,2_ND,test,05,3,3.0,10001,ignore,0.0,1400.0,8.04502404884
213,2_19_1,19,1.0,1181.67395959,2_ND,test,05,3,4.0,00100,ignore,1.0,1500.0,10.894317691
214,2_19_1,19,1.0,1187.11178607,2_ND,test,05,3,5.0,01000,kill,0.0,1400.0,3.26939138117
215,2_19_1,19,1.0,1196.64350197,2_ND,test,05,3,6.0,01101,ignore,1.0,1500.0,7.38081495117
216,2_19_1,19,1.0,1202.11254965,2_ND,test,05,3,7.0,01110,ignore,1.0,1600.0,3.31708797985
217,2_19_1,19,1.0,1205.972093,2_ND,test,05,3,8.0,10110,ignore,0.0,1500.0,1.72837123072
218,2_19_1,19,1.0,1212.22239145,2_ND,test,05,3,9.0,00111,ignore,1.0,1600.0,4.01699306533
219,2_19_1,19,1.0,1219.37902545,2_ND,test,05,3,10.0,11000,kill,1.0,1700.0,5.00466977794
220,2_19_1,19,1.0,1223.92616003,2_ND,test,05,3,11.0,00001,kill,0.0,1600.0,2.39240995847
221,2_19_1,19,1.0,1232.02027238,2_ND,test,05,3,12.0,01010,ignore,1.0,1700.0,5.94679408968
222,2_19_1,19,1.0,1238.30185198,2_ND,test,05,3,13.0,01100,kill,0.0,1600.0,4.14419001624
223,2_19_1,19,1.0,1249.13056494,2_ND,test,05,3,14.0,01011,ignore,1.0,1700.0,8.69053679251
224,2_19_1,19,1.0,1260.06859668,2_ND,test,05,3,15.0,11011,ignore,0.0,1600.0,8.78338388325
225,2_19_1,19,1.0,1267.80333564,2_ND,test,05,3,16.0,10100,kill,1.0,1700.0,5.5808990277
226,2_19_1,19,1.0,1274.24120522,2_ND,test,05,3,17.0,01111,ignore,1.0,1800.0,4.30649343399
227,2_19_1,19,1.0,1278.67891428,2_ND,test,05,3,18.0,00101,ignore,1.0,1900.0,2.25782511097
228,2_19_1,19,1.0,1283.03852495,2_ND,test,05,3,19.0,01010,ignore,1.0,2000.0,2.19861971627
229,2_19_1,19,1.0,1296.07040465,2_ND,test,05,3,20.0,00011,ignore,1.0,2100.0,10.8664053507
230,2_19_1,19,1.0,1300.50813917,2_ND,test,05,3,21.0,01100,ignore,1.0,2200.0,2.31137627695
231,2_19_1,19,1.0,1304.0395755,2_ND,test,05,3,22.0,01011,ignore,1.0,2300.0,1.40379600604
232,2_19_1,19,1.0,1309.0554433,2_ND,test,05,3,23.0,10010,kill,1.0,2400.0,2.87837558234
233,2_19_1,19,1.0,1313.11815503,2_ND,test,05,3,24.0,01001,ignore,1.0,2500.0,1.92841507532
234,2_19_1,19,1.0,1316.60276796,2_ND,test,05,3,25.0,00010,ignore,1.0,2600.0,1.34206954705
235,2_19_1,19,1.0,1320.86854503,2_ND,test,05,4,0.0,11010,kill,0.0,2500.0,2.15786353657
236,2_19_1,19,1.0,1327.69702358,2_ND,test,05,4,1.0,00000,ignore,1.0,2600.0,4.6519395897
237,2_19_1,19,1.0,1334.25989418,2_ND,test,05,4,2.0,10111,ignore,0.0,2500.0,4.40749611228
238,2_19_1,19,1.0,1338.55699223,2_ND,test,05,4,3.0,10000,kill,0.0,2400.0,2.15168711379
239,2_19_1,19,1.0,1345.24478791,2_ND,test,05,4,4.0,01110,ignore,0.0,2300.0,4.54467797211
240,2_19_1,19,1.0,1351.4638902,2_ND,test,05,4,5.0,11100,kill,0.0,2200.0,4.090018129
241,2_19_1,19,1.0,1356.69849245,2_ND,test,05,4,6.0,10101,kill,0.0,2100.0,3.04742893317
242,2_19_1,19,1.0,1360.2455905,2_ND,test,05,4,7.0,11001,ignore,1.0,2200.0,1.39818241979
243,2_19_1,19,1.0,1364.8395452,2_ND,test,05,4,8.0,00111,kill,1.0,2300.0,2.45814318956
244,2_19_1,19,1.0,1368.35537893,2_ND,test,05,4,9.0,00110,kill,1.0,2400.0,1.34838144471
245,2_19_1,19,1.0,1371.93368587,2_ND,test,05,4,10.0,11000,ignore,1.0,2500.0,1.450460943
246,2_19_1,19,1.0,1375.12129681,2_ND,test,05,4,11.0,11101,ignore,1.0,2600.0,1.03638075173
247,2_19_1,19,1.0,1378.12150126,2_ND,test,05,4,12.0,11110,kill,0.0,2500.0,0.857795306492
248,2_19_1,19,1.0,1381.74665993,2_ND,test,05,4,13.0,11111,kill,0.0,2400.0,1.48791605156
249,2_19_1,19,1.0,1386.35630796,2_ND,test,05,4,14.0,10110,ignore,0.0,2300.0,2.46118809003
250,2_19_1,19,1.0,1392.29407039,2_ND,test,05,4,15.0,01000,ignore,1.0,2400.0,3.77099080577
251,2_19_1,19,1.0,1395.74735455,2_ND,test,05,4,16.0,10011,kill,1.0,2500.0,1.32331325568
252,2_19_1,19,1.0,1398.99752492,2_ND,test,05,4,17.0,01101,ignore,1.0,2600.0,1.08521123407
253,2_19_1,19,1.0,1402.20081975,2_ND,test,05,4,18.0,00100,kill,0.0,2500.0,1.0478259156
254,2_19_1,19,1.0,1405.06034256,2_ND,test,05,4,19.0,10001,kill,0.0,2400.0,0.695265276227
255,2_19_1,19,1.0,1408.98241659,2_ND,test,05,4,20.0,00001,ignore,1.0,2500.0,1.76263857438
256,2_19_1,19,1.0,1413.92021556,2_ND,test,05,4,21.0,01110,kill,1.0,2600.0,2.80593141851
257,2_19_1,19,1.0,1417.87351901,2_ND,test,05,4,22.0,10101,ignore,1.0,2700.0,1.78645095235
258,2_19_1,19,1.0,1421.60804737,2_ND,test,05,4,23.0,01010,kill,1.0,2800.0,1.60246621749
259,2_19_1,19,1.0,1424.90511134,2_ND,test,05,4,24.0,10100,ignore,1.0,2900.0,1.10100596254
260,2_19_1,19,1.0,1429.40536464,2_ND,test,05,4,25.0,10000,kill,0.0,2800.0,2.35322733998
261,2_19_1,19,1.0,1436.9526154,2_ND,test,05,4,26.0,00011,ignore,0.0,2700.0,5.36992359217
262,2_19_1,19,1.0,1441.51533699,2_ND,test,05,4,27.0,00010,kill,1.0,2800.0,2.41166914901
263,2_19_1,19,1.0,1444.49985221,2_ND,test,05,4,28.0,00100,kill,0.0,2700.0,0.878889976335
264,2_19_1,19,1.0,1449.26575162,2_ND,test,05,4,29.0,10011,ignore,0.0,2600.0,2.62286544964
265,2_19_1,19,1.0,1453.32846828,2_ND,test,05,4,30.0,10111,ignore,0.0,2500.0,1.90680806412
266,2_19_1,19,1.0,1458.51621429,2_ND,test,05,4,31.0,00110,kill,1.0,2600.0,2.99190188663
267,2_19_1,19,1.0,1465.04776762,2_ND,test,05,4,32.0,11001,ignore,1.0,2700.0,4.40456616018
268,2_19_1,19,1.0,1468.43857323,2_ND,test,05,4,33.0,01000,ignore,1.0,2800.0,1.2602287637
269,2_19_1,19,1.0,1471.82934722,2_ND,test,05,4,34.0,11000,ignore,1.0,2900.0,1.24734961878
270,2_19_1,19,1.0,1475.23580305,2_ND,test,05,4,35.0,11111,kill,0.0,2800.0,1.25733781194
271,2_19_1,19,1.0,1478.28283459,2_ND,test,05,4,36.0,11010,ignore,1.0,2900.0,0.84708499119
272,2_19_1,19,1.0,1481.73612655,2_ND,test,05,4,37.0,00101,kill,0.0,2800.0,1.24674285555
273,2_19_1,19,1.0,1487.17392429,2_ND,test,05,4,38.0,11110,kill,0.0,2700.0,3.28365524353
274,2_19_1,19,1.0,1490.51781289,2_ND,test,05,4,39.0,10010,ignore,0.0,2600.0,1.20747813107
275,2_19_1,19,1.0,1502.72159092,2_ND,test,05,4,40.0,11011,kill,0.0,2500.0,10.0576347072
276,2_19_1,19,1.0,1510.73757367,2_ND,test,05,4,41.0,10001,ignore,1.0,2600.0,5.89514614044
277,2_19_1,19,1.0,1515.80037777,2_ND,test,05,4,42.0,10110,kill,1.0,2700.0,2.86620501208
278,2_19_1,19,1.0,1519.37866377,2_ND,test,05,4,43.0,01001,ignore,1.0,2800.0,1.41326939467
279,2_19_1,19,1.0,1522.76946158,2_ND,test,05,4,44.0,00000,ignore,1.0,2900.0,1.22605543139
280,2_19_1,19,1.0,1526.11338139,2_ND,test,05,4,45.0,11101,ignore,1.0,3000.0,1.16458883786
281,2_19_1,19,1.0,1529.30105597,2_ND,test,05,4,46.0,01100,ignore,1.0,3100.0,1.04938264509
282,2_19_1,19,1.0,1532.39498727,2_ND,test,05,4,47.0,00111,kill,1.0,3200.0,0.897357665166
283,2_19_1,19,1.0,1535.58260806,2_ND,test,05,4,48.0,00001,ignore,1.0,3300.0,0.979883212447
284,2_19_1,19,1.0,1538.45776632,2_ND,test,05,4,49.0,01011,kill,1.0,3400.0,0.74030944104
285,2_19_1,19,1.0,1541.6642054,2_ND,test,05,4,50.0,01111,kill,1.0,3500.0,1.07328123435
286,2_19_1,19,1.0,1545.18312221,2_ND,test,05,5,0.0,11100,ignore,1.0,3600.0,1.38707183781
287,2_19_1,19,1.0,1548.90212392,2_ND,test,05,5,1.0,01101,ignore,1.0,3700.0,1.56745006724
288,2_19_1,19,1.0,1552.5585194,2_ND,test,05,5,2.0,00011,kill,0.0,3600.0,1.48315677809
289,2_19_1,19,1.0,1556.88682798,2_ND,test,05,5,3.0,00010,kill,0.0,3500.0,2.20866620468
290,2_19_1,19,1.0,1565.82482811,2_ND,test,05,5,4.0,00111,ignore,0.0,3400.0,6.7778634873
291,2_19_1,19,1.0,1572.02823337,2_ND,test,05,5,5.0,11100,ignore,1.0,3500.0,4.04782386295
292,2_19_1,19,1.0,1575.9190825,2_ND,test,05,5,6.0,01000,kill,0.0,3400.0,1.75508153945
293,2_19_1,19,1.0,1580.51307743,2_ND,test,05,5,7.0,00110,kill,1.0,3500.0,2.43364194236
294,2_19_1,19,1.0,1584.27889145,2_ND,test,05,5,8.0,10001,kill,0.0,3400.0,1.63176614901
295,2_19_1,19,1.0,1589.20098765,2_ND,test,05,5,9.0,10000,ignore,1.0,3500.0,2.7290966371
296,2_19_1,19,1.0,1594.7169039,2_ND,test,05,5,10.0,11101,kill,0.0,3400.0,3.35883230509
297,2_19_1,19,1.0,1600.48283821,2_ND,test,05,5,11.0,10111,kill,1.0,3500.0,3.61416098356
298,2_19_1,19,1.0,1607.68635267,2_ND,test,05,5,12.0,00101,ignore,0.0,3400.0,5.02459690066
299,2_19_1,19,1.0,1620.32760699,2_ND,test,05,5,13.0,11000,ignore,1.0,3500.0,10.5406527262
300,2_19_1,19,1.0,1624.76529676,2_ND,test,05,5,14.0,10101,ignore,0.0,3400.0,2.22983230673
301,2_19_1,19,1.0,1629.49991256,2_ND,test,05,5,15.0,11110,kill,1.0,3500.0,2.58596701967
302,2_19_1,19,1.0,1634.42207034,2_ND,test,05,5,16.0,01011,ignore,1.0,3600.0,2.79015680601
303,2_19_1,19,1.0,1639.39106383,2_ND,test,05,5,17.0,00001,ignore,1.0,3700.0,2.79133543744
304,2_19_1,19,1.0,1644.64136352,2_ND,test,05,5,18.0,10100,ignore,0.0,3600.0,3.09465670666
305,2_19_1,19,1.0,1650.57911733,2_ND,test,05,5,19.0,01110,ignore,0.0,3500.0,3.80764373884
306,2_19_1,19,1.0,1653.79804883,2_ND,test,05,5,20.0,11010,ignore,1.0,3600.0,1.08036082297
307,2_19_1,19,1.0,1657.70447428,2_ND,test,05,5,21.0,10110,kill,1.0,3700.0,1.78962845399
308,2_19_1,19,1.0,1661.84536035,2_ND,test,05,5,22.0,01100,kill,0.0,3600.0,2.00129809563
309,2_19_1,19,1.0,1667.09559148,2_ND,test,05,5,23.0,01101,kill,0.0,3500.0,3.08714072473
310,2_19_1,19,1.0,1672.29901892,2_ND,test,05,5,24.0,10011,ignore,1.0,3600.0,3.08042814987
311,2_19_1,19,1.0,1677.50239011,2_ND,test,05,5,25.0,11111,kill,1.0,3700.0,3.05429299357
312,2_19_1,19,1.0,1681.4400614,2_ND,test,05,5,26.0,01111,ignore,0.0,3600.0,1.80917624707
313,2_19_1,19,1.0,1686.19031675,2_ND,test,05,5,27.0,10010,ignore,1.0,3700.0,2.56977161399
314,2_19_1,19,1.0,1695.95644606,2_ND,test,05,5,28.0,11011,kill,0.0,3600.0,7.61974419059
315,2_19_1,19,1.0,1704.644392,2_ND,test,05,5,29.0,11001,ignore,1.0,3700.0,6.55747172681
316,2_19_1,19,1.0,1709.97275108,2_ND,test,05,5,30.0,00000,kill,0.0,3600.0,3.1579078738
317,2_19_1,19,1.0,1715.37930051,2_ND,test,05,5,31.0,01010,ignore,1.0,3700.0,3.32373979628
318,2_19_1,19,1.0,1721.22335497,2_ND,test,05,5,32.0,00100,ignore,0.0,3600.0,3.65143997478
319,2_19_1,19,1.0,1725.192307,2_ND,test,05,5,33.0,01001,ignore,1.0,3700.0,1.74202709826
320,2_19_1,19,1.0,1733.1301852,2_ND,test,05,5,34.0,10100,kill,1.0,3800.0,5.6769815048
321,2_19_1,19,1.0,1740.02119402,2_ND,test,05,5,35.0,00011,ignore,1.0,3900.0,4.71514518802
322,2_19_1,19,1.0,1744.7089622,2_ND,test,05,5,36.0,11110,kill,1.0,4000.0,2.58654340369
323,2_19_1,19,1.0,1748.94348727,2_ND,test,05,5,37.0,10001,ignore,1.0,4100.0,2.04991838665
324,2_19_1,19,1.0,1752.42803944,2_ND,test,05,5,38.0,00000,ignore,1.0,4200.0,1.29903656837
325,2_19_1,19,1.0,1756.41265032,2_ND,test,05,5,39.0,00101,ignore,0.0,4100.0,1.8352157499
326,2_19_1,19,1.0,1760.22531442,2_ND,test,05,5,40.0,10111,kill,1.0,4200.0,1.65396268119
327,2_19_1,19,1.0,1764.11614302,2_ND,test,05,5,41.0,01010,ignore,1.0,4300.0,1.73284436482
328,2_19_1,19,1.0,1770.71026522,2_ND,test,05,5,42.0,01110,kill,1.0,4400.0,4.46479993234
329,2_19_1,19,1.0,1775.1479751,2_ND,test,05,5,43.0,00100,kill,1.0,4500.0,2.24583230017
330,2_19_1,19,1.0,1778.88252029,2_ND,test,05,5,44.0,10101,kill,1.0,4600.0,1.52194898263
331,2_19_1,19,1.0,1782.36707534,2_ND,test,05,5,45.0,11100,kill,0.0,4500.0,1.37856360505
332,2_19_1,19,1.0,1786.27350776,2_ND,test,05,5,46.0,01000,ignore,1.0,4600.0,1.74348447951
333,2_19_1,19,1.0,1790.33625767,2_ND,test,05,5,47.0,01001,ignore,1.0,4700.0,1.92864127731
334,2_19_1,19,1.0,1794.05517481,2_ND,test,05,5,48.0,10011,ignore,1.0,4800.0,1.51418011426
335,2_19_1,19,1.0,1798.32099746,2_ND,test,05,5,49.0,01101,kill,0.0,4700.0,2.14719509532
336,2_19_1,19,1.0,1802.38374983,2_ND,test,05,5,50.0,10000,ignore,1.0,4800.0,1.88128952377
337,2_19_1,19,1.0,1807.04024014,2_ND,test,05,5,51.0,11111,kill,1.0,4900.0,2.49913911874
338,2_19_1,19,1.0,1813.55618595,2_ND,test,05,5,52.0,11101,kill,0.0,4800.0,4.3708965481
339,2_19_1,19,1.0,1822.82227749,2_ND,test,05,5,53.0,01011,ignore,1.0,4900.0,7.09632551082
340,2_19_1,19,1.0,1827.69753469,2_ND,test,05,5,54.0,00111,ignore,0.0,4800.0,2.75594159965
341,2_19_1,19,1.0,1833.369651,2_ND,test,05,5,55.0,11010,ignore,1.0,4900.0,3.4991674453
342,2_19_1,19,1.0,1840.4638356,2_ND,test,05,5,56.0,11001,kill,0.0,4800.0,4.94833398745
343,2_19_1,19,1.0,1846.93287836,2_ND,test,05,5,57.0,11000,ignore,1.0,4900.0,4.35204747696
344,2_19_1,19,1.0,1853.02693733,2_ND,test,05,5,58.0,01111,kill,1.0,5000.0,3.93566010749
345,2_19_1,19,1.0,1862.24616606,2_ND,test,05,5,59.0,01100,kill,0.0,4900.0,7.08578926021
346,2_19_1,19,1.0,1866.1838275,2_ND,test,05,5,60.0,00110,ignore,0.0,4800.0,1.78482525383
347,2_19_1,19,1.0,1870.59034368,2_ND,test,05,5,61.0,00001,ignore,1.0,4900.0,2.23491630937
348,2_19_1,19,1.0,1875.49681018,2_ND,test,05,5,62.0,00010,ignore,1.0,5000.0,2.80953012386
349,2_19_1,19,1.0,1880.84086916,2_ND,test,05,5,63.0,10010,kill,0.0,4900.0,3.24220444719
350,2_19_1,19,1.0,1884.77853347,2_ND,test,05,5,64.0,11011,ignore,1.0,5000.0,1.79143437515
351,2_19_1,19,1.0,1890.76324123,2_ND,test,05,5,65.0,10110,ignore,0.0,4900.0,3.8340100235
352,2_19_1,19,1.0,1894.71655084,2_ND,test,05,5,66.0,01000,ignore,1.0,5000.0,1.77906346629
353,2_19_1,19,1.0,1898.6074324,2_ND,test,05,5,67.0,10011,kill,0.0,4900.0,1.76039708097
354,2_19_1,19,1.0,1903.65451936,2_ND,test,05,5,68.0,00001,ignore,1.0,5000.0,2.85584528933
355,2_19_1,19,1.0,1909.60797881,2_ND,test,05,5,69.0,10111,kill,1.0,5100.0,3.78566109276
356,2_19_1,19,1.0,1914.5456653,2_ND,test,05,5,70.0,00111,kill,1.0,5200.0,2.78208907186
357,2_19_1,19,1.0,1918.81152982,2_ND,test,05,5,71.0,10001,ignore,1.0,5300.0,2.10770950574
358,2_19_1,19,1.0,1922.82734548,2_ND,test,05,5,72.0,11110,ignore,0.0,5200.0,1.93693192921
359,2_19_1,19,1.0,1926.78066289,2_ND,test,05,5,73.0,00010,ignore,1.0,5300.0,1.77772144395
360,2_19_1,19,1.0,1939.03128608,2_ND,test,05,5,74.0,11111,kill,1.0,5400.0,10.0889495196
361,2_19_1,19,1.0,1942.98462771,2_ND,test,05,5,75.0,10110,kill,1.0,5500.0,1.79543622089
362,2_19_1,19,1.0,1947.64113403,2_ND,test,05,5,76.0,01001,ignore,1.0,5600.0,2.47728620012
363,2_19_1,19,1.0,1952.29763707,2_ND,test,05,5,77.0,10010,ignore,1.0,5700.0,2.53904673309
364,2_19_1,19,1.0,1956.1102979,2_ND,test,05,5,78.0,00000,ignore,1.0,5800.0,1.68297277858
365,2_19_1,19,1.0,1959.43858021,2_ND,test,05,5,79.0,01010,ignore,1.0,5900.0,1.19348973429
366,2_19_1,19,1.0,1962.70440531,2_ND,test,05,5,80.0,11001,ignore,1.0,6000.0,1.11628999177
367,2_19_1,19,1.0,1966.3451945,2_ND,test,05,6,0.0,11100,ignore,0.0,5900.0,1.48247858265
368,2_19_1,19,1.0,1971.20481995,2_ND,test,05,6,1.0,00110,kill,0.0,5800.0,2.75674418566
369,2_19_1,19,1.0,1983.23668775,2_ND,test,05,6,2.0,10100,ignore,0.0,5700.0,9.89189638553
370,2_19_1,19,1.0,1988.29948076,2_ND,test,05,6,3.0,01101,kill,0.0,5600.0,2.89911103849
371,2_19_1,19,1.0,1992.19025599,2_ND,test,05,6,4.0,00011,ignore,1.0,5700.0,1.74800071925
372,2_19_1,19,1.0,1995.70606714,2_ND,test,05,6,5.0,10000,ignore,0.0,5600.0,1.3922937785
373,2_19_1,19,1.0,2002.28455471,2_ND,test,05,6,6.0,01110,ignore,1.0,5700.0,4.42182442785
374,2_19_1,19,1.0,2006.0346984,2_ND,test,05,6,7.0,11010,ignore,0.0,5600.0,1.62225293899
375,2_19_1,19,1.0,2011.08187363,2_ND,test,05,6,8.0,11011,kill,1.0,5700.0,2.90434242137
376,2_19_1,19,1.0,2015.33208505,2_ND,test,05,6,9.0,11101,ignore,1.0,5800.0,2.12339174901
377,2_19_1,19,1.0,2020.03542216,2_ND,test,05,6,10.0,00101,ignore,1.0,5900.0,2.50148981311
378,2_19_1,19,1.0,2023.31689134,2_ND,test,05,6,11.0,01011,kill,0.0,5800.0,1.13450643629
379,2_19_1,19,1.0,2027.16080416,2_ND,test,05,6,12.0,01111,ignore,1.0,5900.0,1.72729728443
380,2_19_1,19,1.0,2031.98918705,2_ND,test,05,6,13.0,11000,ignore,0.0,5800.0,2.67962860179
381,2_19_1,19,1.0,2039.25516241,2_ND,test,05,6,14.0,01100,ignore,1.0,5900.0,5.1524745102
382,2_19_1,19,1.0,2047.84937493,2_ND,test,05,6,15.0,00100,ignore,1.0,6000.0,6.40511955453
383,2_19_1,19,1.0,2052.83400181,2_ND,test,05,6,16.0,10101,kill,0.0,5900.0,2.82027122891
384,2_19_1,19,1.0,2056.67795733,2_ND,test,05,6,17.0,01110,ignore,1.0,6000.0,1.71371777546
385,2_19_1,19,1.0,2060.72503444,2_ND,test,05,6,18.0,01100,ignore,1.0,6100.0,1.8890702975
386,2_19_1,19,1.0,2064.16269014,2_ND,test,05,6,19.0,11111,ignore,1.0,6200.0,1.33446119589
387,2_19_1,19,1.0,2067.63159208,2_ND,test,05,6,20.0,00110,ignore,1.0,6300.0,1.31849076061
388,2_19_1,19,1.0,2071.36618038,2_ND,test,05,6,21.0,10001,kill,1.0,6400.0,1.57327384481
389,2_19_1,19,1.0,2075.33510614,2_ND,test,05,6,22.0,10111,ignore,1.0,6500.0,1.84988193159
390,2_19_1,19,1.0,2078.80406351,2_ND,test,05,6,23.0,11011,kill,1.0,6600.0,1.34090897895
391,2_19_1,19,1.0,2084.78875567,2_ND,test,05,6,24.0,10100,ignore,0.0,6500.0,3.80897385581
392,2_19_1,19,1.0,2098.41440656,2_ND,test,05,6,25.0,11000,ignore,0.0,6400.0,11.4907634871
393,2_19_1,19,1.0,2103.88347436,2_ND,test,05,6,26.0,00011,kill,0.0,6300.0,3.30978177871
394,2_19_1,19,1.0,2109.08681641,2_ND,test,05,6,27.0,01111,ignore,1.0,6400.0,3.04327108605
395,2_19_1,19,1.0,2112.96202106,2_ND,test,05,6,28.0,11010,ignore,0.0,6300.0,1.69493110487
396,2_19_1,19,1.0,2119.47798164,2_ND,test,05,6,29.0,01000,ignore,1.0,6400.0,4.35296665348
397,2_19_1,19,1.0,2124.35326839,2_ND,test,05,6,30.0,10110,kill,1.0,6500.0,2.68617244884
398,2_19_1,19,1.0,2128.68159381,2_ND,test,05,6,31.0,01001,ignore,1.0,6600.0,2.21052015784
399,2_19_1,19,1.0,2133.32248029,2_ND,test,05,6,32.0,10000,ignore,0.0,6500.0,2.54080092747
400,2_19_1,19,1.0,2137.80706735,2_ND,test,05,6,33.0,00010,ignore,1.0,6600.0,2.29750447067
401,2_19_1,19,1.0,2143.18230977,2_ND,test,05,6,34.0,11100,kill,1.0,6700.0,3.21619942887
402,2_19_1,19,1.0,2146.40130039,2_ND,test,05,6,35.0,01011,ignore,1.0,6800.0,1.10949448987
403,2_19_1,19,1.0,2150.21394603,2_ND,test,05,6,36.0,00111,ignore,1.0,6900.0,1.63913434017
404,2_19_1,19,1.0,2153.41722444,2_ND,test,05,6,37.0,01101,ignore,1.0,7000.0,1.10055479015
405,2_19_1,19,1.0,2156.94866446,2_ND,test,05,6,38.0,00000,ignore,1.0,7100.0,1.38008461843
406,2_19_1,19,1.0,2161.96456798,2_ND,test,05,6,39.0,10010,kill,1.0,7200.0,2.85109217382
407,2_19_1,19,1.0,2165.5897246,2_ND,test,05,6,40.0,11001,kill,1.0,7300.0,1.5175193647
408,2_19_1,19,1.0,2168.80863599,2_ND,test,05,6,41.0,10011,kill,1.0,7400.0,1.11664263698
409,2_19_1,19,1.0,2172.40258207,2_ND,test,05,6,42.0,11101,kill,0.0,7300.0,1.4897835522
410,2_19_1,19,1.0,2175.87146636,2_ND,test,05,6,43.0,10101,ignore,1.0,7400.0,1.31433989251
411,2_19_1,19,1.0,2179.77790906,2_ND,test,05,6,44.0,11110,ignore,0.0,7300.0,1.76491578389
412,2_19_1,19,1.0,2183.82504241,2_ND,test,05,6,45.0,00100,ignore,1.0,7400.0,1.93997888234
413,2_19_1,19,1.0,2187.46581394,2_ND,test,05,6,46.0,01010,ignore,1.0,7500.0,1.56308859728
414,2_19_1,19,1.0,2190.68475243,2_ND,test,05,6,47.0,00101,ignore,1.0,7600.0,1.04201363288
415,2_19_1,19,1.0,2194.51307866,2_ND,test,05,6,48.0,00001,ignore,1.0,7700.0,1.67820159975
