"","unique_id","pair_id","sbj_id","wall_time","condition","block","rule_id","rule_num","trial","stimulus","choice","correct","points","reaction_time"
"0","3_2_2",2,"2.0","28.6976544841","1_I","training","02","1_B","1.0","00001","kill","0.0","0.0","6.05800978865"
"1","3_2_2",2,"2.0","31.416566566","1_I","training","02","1_B","2.0","10011","kill","0.0","0.0","0.0100550847701"
"2","3_2_2",2,"2.0","37.4168867786","1_I","training","02","1_B","3.0","11001","kill","0.0","0.0","3.37536670496"
"3","3_2_2",2,"2.0","42.0889341109","1_I","training","02","1_B","4.0","11100","ignore","1.0","100.0","2.00285728126"
"4","3_2_2",2,"2.0","46.6829115696","1_I","training","02","1_B","5.0","11000","ignore","1.0","200.0","1.91367603193"
"5","3_2_2",2,"2.0","51.2612482871","1_I","training","02","1_B","6.0","00111","ignore","0.0","100.0","1.90421539303"
"6","3_2_2",2,"2.0","55.2458337473","1_I","training","02","1_B","7.0","11110","kill","0.0","0.0","1.36364323066"
"7","3_2_2",2,"2.0","60.7929530248","1_I","training","02","1_B","8.0","01111","ignore","0.0","0.0","2.83510531298"
"8","3_2_2",2,"2.0","66.0744888299","1_I","training","02","1_B","9.0","11111","kill","0.0","0.0","2.62830711833"
"9","3_2_2",2,"2.0","70.5278100499","1_I","training","02","1_B","10.0","00101","ignore","0.0","0.0","1.7971564304"
"10","3_2_2",2,"2.0","74.7467828901","1_I","training","02","1_B","11.0","01001","ignore","0.0","0.0","1.54568653161"
"11","3_2_2",2,"2.0","79.7001279208","1_I","training","02","1_B","12.0","11101","ignore","1.0","100.0","2.24649469884"
"12","3_2_2",2,"2.0","83.450318201","1_I","training","02","1_B","13.0","10100","ignore","1.0","200.0","0.995716951807"
"13","3_2_2",2,"2.0","87.4974288574","1_I","training","02","1_B","14.0","10001","ignore","1.0","300.0","1.36984262784"
"14","3_2_2",2,"2.0","94.4352431686","1_I","training","02","1_B","15.0","01000","kill","1.0","400.0","4.22055091339"
"15","3_2_2",2,"2.0","100.248019814","1_I","training","02","1_B","16.0","00110","ignore","0.0","300.0","3.18920251474"
"16","3_2_2",2,"2.0","104.404478953","1_I","training","02","1_B","17.0","00011","kill","0.0","200.0","1.51624914507"
"17","3_2_2",2,"2.0","108.904685859","1_I","training","02","1_B","18.0","11010","ignore","1.0","300.0","1.88724412759"
"18","3_2_2",2,"2.0","113.9518076","1_I","training","02","1_B","19.0","00000","ignore","1.0","400.0","2.40125547953"
"19","3_2_2",2,"2.0","117.748845387","1_I","training","02","1_B","20.0","00010","ignore","1.0","500.0","1.14733020729"
"20","3_2_2",2,"2.0","122.155298574","1_I","training","02","1_B","21.0","10111","kill","0.0","400.0","1.74490595193"
"21","3_2_2",2,"2.0","126.358656946","1_I","training","02","1_B","22.0","11011","ignore","1.0","500.0","1.55627735662"
"22","3_2_2",2,"2.0","130.718249899","1_I","training","02","1_B","23.0","10110","ignore","1.0","600.0","1.69145960272"
"23","3_2_2",2,"2.0","136.874791554","1_I","training","02","1_B","24.0","01101","ignore","0.0","500.0","3.52726199381"
"24","3_2_2",2,"2.0","140.84371862","1_I","training","02","1_B","25.0","10010","ignore","1.0","600.0","1.33552282089"
"25","3_2_2",2,"2.0","144.562657387","1_I","training","02","1_B","26.0","01110","ignore","0.0","500.0","0.929737975814"
"26","3_2_2",2,"2.0","148.98475624","1_I","training","02","1_B","27.0","01010","ignore","0.0","400.0","1.7905038093"
"27","3_2_2",2,"2.0","156.828852958","1_I","training","02","1_B","28.0","00100","ignore","0.0","300.0","5.11634923202"
"28","3_2_2",2,"2.0","164.07923126","1_I","training","02","1_B","29.0","10101","kill","0.0","200.0","4.61202718358"
"29","3_2_2",2,"2.0","168.641977731","1_I","training","02","1_B","30.0","01011","ignore","0.0","100.0","1.92591102525"
"30","3_2_2",2,"2.0","172.157738347","1_I","training","02","1_B","31.0","01100","ignore","0.0","0.0","0.870570906144"
"31","3_2_2",2,"2.0","176.032929346","1_I","training","02","1_B","32.0","10000","ignore","1.0","100.0","1.25436576977"
"32","3_2_2",2,"2.0","179.955016704","1_I","training","02","1_B","33.0","00011","ignore","1.0","200.0","1.25996907896"
"33","3_2_2",2,"2.0","183.877048642","1_I","training","02","1_B","34.0","01000","ignore","0.0","100.0","1.255199554"
"34","3_2_2",2,"2.0","189.174181672","1_I","training","02","1_B","35.0","10111","ignore","1.0","200.0","2.61841419248"
"35","3_2_2",2,"2.0","194.361925167","1_I","training","02","1_B","36.0","01010","ignore","0.0","100.0","2.59967724216"
"36","3_2_2",2,"2.0","198.04961242","1_I","training","02","1_B","37.0","10100","ignore","1.0","200.0","0.982333298575"
"37","3_2_2",2,"2.0","203.065451036","1_I","training","02","1_B","38.0","00000","ignore","1.0","300.0","2.33969420522"
"38","3_2_2",2,"2.0","206.612551429","1_I","training","02","1_B","39.0","00110","ignore","0.0","200.0","0.89928945655"
"39","3_2_2",2,"2.0","209.972046265","1_I","training","02","1_B","40.0","01110","ignore","0.0","100.0","0.719949899051"
"40","3_2_2",2,"2.0","214.691060158","1_I","training","02","1_B","41.0","10010","ignore","1.0","200.0","2.09445161958"
"41","3_2_2",2,"2.0","219.128765269","1_I","training","02","1_B","42.0","11000","kill","0.0","100.0","1.80268214963"
"42","3_2_2",2,"2.0","228.785520809","1_I","training","02","1_B","43.0","00010","ignore","1.0","200.0","7.04570213171"
"43","3_2_2",2,"2.0","233.676354602","1_I","training","02","1_B","44.0","11111","ignore","1.0","300.0","2.26504526902"
"44","3_2_2",2,"2.0","239.848542746","1_I","training","02","1_B","45.0","11100","ignore","1.0","400.0","3.53387930943"
"45","3_2_2",2,"2.0","244.004999011","1_I","training","02","1_B","46.0","00111","ignore","0.0","300.0","1.52529350765"
"46","3_2_2",2,"2.0","247.692633715","1_I","training","02","1_B","47.0","00100","ignore","0.0","200.0","1.04290601926"
"47","3_2_2",2,"2.0","253.84919015","1_I","training","02","1_B","48.0","10011","ignore","1.0","300.0","3.51852675951"
"48","3_2_2",2,"2.0","262.068331307","1_I","training","02","1_B","49.0","11001","ignore","1.0","400.0","5.60634012649"
"49","3_2_2",2,"2.0","267.365476242","1_I","training","02","1_B","50.0","00101","ignore","0.0","300.0","2.6579764537"
"50","3_2_2",2,"2.0","271.959488185","1_I","training","02","1_B","51.0","11101","ignore","1.0","400.0","1.93315686064"
"51","3_2_2",2,"2.0","276.037759629","1_I","training","02","1_B","52.0","01100","kill","1.0","500.0","1.3783188184"
"52","3_2_2",2,"2.0","280.491098912","1_I","training","02","1_B","53.0","11011","kill","0.0","400.0","1.82006969139"
"53","3_2_2",2,"2.0","284.210029468","1_I","training","02","1_B","54.0","01011","kill","1.0","500.0","1.12212619495"
"54","3_2_2",2,"2.0","290.179075587","1_I","training","02","1_B","55.0","01101","ignore","0.0","400.0","3.30976500504"
"55","3_2_2",2,"2.0","295.991869885","1_I","training","02","1_B","56.0","10001","ignore","1.0","500.0","2.90321493406"
"56","3_2_2",2,"2.0","302.02337839","1_I","training","02","1_B","57.0","00001","kill","0.0","400.0","3.40677791453"
"57","3_2_2",2,"2.0","306.648599152","1_I","training","02","1_B","58.0","10000","kill","0.0","300.0","1.95639813423"
"58","3_2_2",2,"2.0","310.4925567","1_I","training","02","1_B","59.0","10110","kill","0.0","200.0","1.21577481996"
"59","3_2_2",2,"2.0","314.242727685","1_I","training","02","1_B","60.0","11010","kill","0.0","100.0","1.12640185362"
"60","3_2_2",2,"2.0","319.258597502","1_I","training","02","1_B","61.0","10101","ignore","1.0","200.0","2.3670978315"
"61","3_2_2",2,"2.0","323.290078912","1_I","training","02","1_B","62.0","01111","ignore","0.0","100.0","1.41382464339"
"62","3_2_2",2,"2.0","330.837321759","1_I","training","02","1_B","63.0","01001","kill","1.0","200.0","4.92683512584"
"63","3_2_2",2,"2.0","337.025135043","1_I","training","02","1_B","64.0","11110","kill","0.0","100.0","3.57838105458"
"64","3_2_2",2,"2.0","359.213697544","1_I","training","02","1_B","65.0","11011","ignore","1.0","200.0","19.5550835385"
"65","3_2_2",2,"2.0","366.557774145","1_I","training","02","1_B","66.0","00111","kill","1.0","300.0","4.67726228118"
"66","3_2_2",2,"2.0","372.651848489","1_I","training","02","1_B","67.0","10010","ignore","1.0","400.0","3.4534817368"
"67","3_2_2",2,"2.0","377.198932461","1_I","training","02","1_B","68.0","10110","ignore","1.0","500.0","1.9202728211"
"68","3_2_2",2,"2.0","381.386612734","1_I","training","02","1_B","69.0","01000","kill","1.0","600.0","1.54225040458"
"69","3_2_2",2,"2.0","386.121236579","1_I","training","02","1_B","70.0","01100","kill","1.0","700.0","1.4912676394"
"70","3_2_2",2,"2.0","396.934267341","1_I","training","02","1_B","71.0","01011","kill","1.0","800.0","8.13818567566"
"71","3_2_2",2,"2.0","401.856345669","1_I","training","02","1_B","72.0","10101","ignore","1.0","900.0","2.26170315311"
"72","3_2_2",2,"2.0","408.528578971","1_I","training","02","1_B","73.0","00110","kill","1.0","1000.0","4.02580338456"
"73","3_2_2",2,"2.0","413.372648593","1_I","training","02","1_B","74.0","10011","ignore","1.0","1100.0","2.16627447471"
"74","3_2_2",2,"2.0","417.59154097","1_I","training","02","1_B","75.0","11000","ignore","1.0","1200.0","1.50176445329"
"75","3_2_2",2,"2.0","422.201118117","1_I","training","02","1_B","76.0","00101","kill","1.0","1300.0","1.9612317017"
"76","3_2_2",2,"2.0","427.357584645","1_I","training","02","1_B","77.0","11111","ignore","1.0","1400.0","2.51828783168"
"77","3_2_2",2,"2.0","432.576599359","1_I","training","02","1_B","78.0","00011","kill","0.0","1300.0","2.5185337385"
"78","3_2_2",2,"2.0","440.123843027","1_I","training","02","1_B","79.0","01101","kill","1.0","1400.0","4.88036694717"
"79","3_2_2",2,"2.0","451.718170667","1_I","training","02","1_B","80.0","01111","ignore","0.0","1300.0","8.91435915204"
"80","3_2_2",2,"2.0","455.97374996","1_I","training","02","1_B","81.0","11001","ignore","1.0","1400.0","1.55021918139"
"81","3_2_2",2,"2.0","462.536555137","1_I","training","02","1_B","82.0","11010","ignore","1.0","1500.0","3.47032245404"
"82","3_2_2",2,"2.0","466.677403503","1_I","training","02","1_B","83.0","10001","ignore","1.0","1600.0","1.47721687668"
"83","3_2_2",2,"2.0","471.240105637","1_I","training","02","1_B","84.0","10100","ignore","1.0","1700.0","1.87305871138"
"84","3_2_2",2,"2.0","475.740326502","1_I","training","02","1_B","85.0","01110","kill","1.0","1800.0","1.86735851737"
"85","3_2_2",2,"2.0","481.068664246","1_I","training","02","1_B","86.0","01001","kill","1.0","1900.0","2.6965998353"
"86","3_2_2",2,"2.0","486.709587328","1_I","training","02","1_B","87.0","11110","ignore","1.0","2000.0","3.04708397205"
"87","3_2_2",2,"2.0","492.178630164","1_I","training","02","1_B","88.0","10111","ignore","1.0","2100.0","2.83085305446"
"88","3_2_2",2,"2.0","504.179192178","1_I","training","02","1_B","89.0","11100","ignore","1.0","2200.0","9.33491893285"
"89","3_2_2",2,"2.0","538.399585858","1_I","training","02","1_B","90.0","10000","","","2100.0",""
"90","3_2_2",2,"2.0","548.884489479","1_I","training","02","1_B","91.0","00010","ignore","1.0","2200.0","7.83435404506"
"91","3_2_2",2,"2.0","553.837854625","1_I","training","02","1_B","92.0","01010","ignore","0.0","2100.0","2.29652380534"
"92","3_2_2",2,"2.0","560.041277041","1_I","training","02","1_B","93.0","00001","kill","0.0","2000.0","3.54478090482"
"93","3_2_2",2,"2.0","565.041525821","1_I","training","02","1_B","94.0","00100","ignore","0.0","1900.0","2.30462600405"
"94","3_2_2",2,"2.0","572.276266256","1_I","training","02","1_B","95.0","00000","kill","0.0","1800.0","4.60439504048"
"95","3_2_2",2,"2.0","579.714158978","1_I","training","02","1_B","96.0","11101","ignore","1.0","1900.0","4.69393180786"
"96","3_2_2",2,"2.0","583.776814312","1_I","training","02","1_B","97.0","11101","ignore","1.0","2000.0","1.40788839525"
"97","3_2_2",2,"2.0","591.683432531","1_I","training","02","1_B","98.0","01101","kill","1.0","2100.0","5.27693418647"
"98","3_2_2",2,"2.0","596.496170176","1_I","training","02","1_B","99.0","11011","ignore","1.0","2200.0","2.12617072584"
"99","3_2_2",2,"2.0","601.808950926","1_I","training","02","1_B","100.0","00100","kill","1.0","2300.0","2.67781690575"
"100","3_2_2",2,"2.0","613.559495903","1_I","training","02","1_B","101.0","00000","kill","0.0","2200.0","8.81232054755"
"101","3_2_2",2,"2.0","618.059804211","1_I","training","02","1_B","102.0","11010","ignore","1.0","2300.0","1.71118962249"
"102","3_2_2",2,"2.0","624.192546683","1_I","training","02","1_B","103.0","01001","kill","1.0","2400.0","3.4185067257"
"103","3_2_2",2,"2.0","630.946027763","1_I","training","02","1_B","104.0","00101","kill","1.0","2500.0","4.1176280296"
"104","3_2_2",2,"2.0","635.321213014","1_I","training","02","1_B","105.0","10100","ignore","1.0","2600.0","1.72675031057"
"105","3_2_2",2,"2.0","639.149553221","1_I","training","02","1_B","106.0","11111","ignore","1.0","2700.0","1.15024660472"
"106","3_2_2",2,"2.0","642.69661133","1_I","training","02","1_B","107.0","10101","ignore","1.0","2800.0","0.826708354511"
"107","3_2_2",2,"2.0","648.228088635","1_I","training","02","1_B","108.0","01110","kill","1.0","2900.0","2.93675884136"
"108","3_2_2",2,"2.0","652.11891668","1_I","training","02","1_B","109.0","11100","ignore","1.0","3000.0","1.27382894574"
"109","3_2_2",2,"2.0","656.509786188","1_I","training","02","1_B","110.0","00110","kill","1.0","3100.0","1.73741010443"
"110","3_2_2",2,"2.0","660.681824079","1_I","training","02","1_B","111.0","11001","ignore","1.0","3200.0","1.55596863887"
"111","3_2_2",2,"2.0","665.510209444","1_I","training","02","1_B","112.0","00011","kill","0.0","3100.0","2.18003991983"
"112","3_2_2",2,"2.0","669.276031844","1_I","training","02","1_B","113.0","10011","ignore","1.0","3200.0","1.17891260743"
"113","3_2_2",2,"2.0","673.838745883","1_I","training","02","1_B","114.0","01011","ignore","0.0","3100.0","1.81957500404"
"114","3_2_2",2,"2.0","677.635814461","1_I","training","02","1_B","115.0","11110","ignore","1.0","3200.0","1.15084761906"
"115","3_2_2",2,"2.0","681.339101812","1_I","training","02","1_B","116.0","01000","kill","1.0","3300.0","1.0560285761"
"116","3_2_2",2,"2.0","688.417544856","1_I","training","02","1_B","117.0","01100","kill","1.0","3400.0","4.44286053265"
"117","3_2_2",2,"2.0","692.214632729","1_I","training","02","1_B","118.0","11000","ignore","1.0","3500.0","1.18513253105"
"118","3_2_2",2,"2.0","697.402377045","1_I","training","02","1_B","119.0","01111","kill","1.0","3600.0","2.54057749924"
"119","3_2_2",2,"2.0","701.199427969","1_I","training","02","1_B","120.0","10001","ignore","1.0","3700.0","1.15829256097"
"120","3_2_2",2,"2.0","706.871556586","1_I","training","02","1_B","121.0","01010","kill","1.0","3800.0","2.9908587526"
"121","3_2_2",2,"2.0","710.793634503","1_I","training","02","1_B","122.0","10010","ignore","1.0","3900.0","1.282499727"
"122","3_2_2",2,"2.0","714.746927396","1_I","training","02","1_B","123.0","00001","kill","0.0","3800.0","1.28948077124"
"123","3_2_2",2,"2.0","719.215909473","1_I","training","02","1_B","124.0","10110","ignore","1.0","3900.0","1.81343061774"
"124","3_2_2",2,"2.0","723.153612942","1_I","training","02","1_B","125.0","10000","ignore","1.0","4000.0","1.30029492397"
"125","3_2_2",2,"2.0","727.560119497","1_I","training","02","1_B","126.0","00111","kill","1.0","4100.0","1.78012851197"
"126","3_2_2",2,"2.0","732.607209216","1_I","training","02","1_B","127.0","00010","kill","0.0","4000.0","2.31438468694"
"127","3_2_2",2,"2.0","736.31050601","1_I","training","02","1_B","128.0","10111","ignore","1.0","4100.0","1.05173074886"
"128","3_2_2",2,"2.0","741.185725335","1_I","training","02","1_B","129.0","01101","kill","1.0","4200.0","2.22243113583"
"129","3_2_2",2,"2.0","745.874080518","1_I","training","02","1_B","130.0","00001","ignore","1.0","4300.0","2.04300249355"
"130","3_2_2",2,"2.0","749.611807551","1_I","training","02","1_B","131.0","00000","ignore","1.0","4400.0","1.11132805284"
"131","3_2_2",2,"2.0","753.283855704","1_I","training","02","1_B","132.0","01001","ignore","0.0","4300.0","1.07602051331"
"132","3_2_2",2,"2.0","757.752866518","1_I","training","02","1_B","133.0","00100","ignore","0.0","4200.0","1.81107828704"
"133","3_2_2",2,"2.0","761.690491165","1_I","training","02","1_B","134.0","01000","kill","1.0","4300.0","1.2869063444"
"134","3_2_2",2,"2.0","765.409458668","1_I","training","02","1_B","135.0","11110","ignore","1.0","4400.0","1.06669575948"
"135","3_2_2",2,"2.0","769.894003076","1_I","training","02","1_B","136.0","00110","kill","1.0","4500.0","1.88241302329"
"136","3_2_2",2,"2.0","773.550432246","1_I","training","02","1_B","137.0","11001","ignore","1.0","4600.0","1.0215761683"
"137","3_2_2",2,"2.0","777.34751396","1_I","training","02","1_B","138.0","10010","ignore","1.0","4700.0","1.13997311857"
"138","3_2_2",2,"2.0","784.847961847","1_I","training","02","1_B","139.0","00011","kill","0.0","4600.0","4.86725177985"
"139","3_2_2",2,"2.0","788.879408773","1_I","training","02","1_B","140.0","01011","ignore","0.0","4500.0","1.39043804257"
"140","3_2_2",2,"2.0","793.723318289","1_I","training","02","1_B","141.0","01100","kill","1.0","4600.0","2.20696281675"
"141","3_2_2",2,"2.0","799.145543996","1_I","training","02","1_B","142.0","01110","kill","1.0","4700.0","2.7411007594"
"142","3_2_2",2,"2.0","804.27078159","1_I","training","02","1_B","143.0","11101","ignore","1.0","4800.0","2.46427577362"
"143","3_2_2",2,"2.0","807.973972056","1_I","training","02","1_B","144.0","11011","ignore","1.0","4900.0","1.05287078767"
"144","3_2_2",2,"2.0","811.349172907","1_I","training","02","1_B","145.0","11010","ignore","1.0","5000.0","0.752903465766"
"145","3_2_2",2,"2.0","815.114971908","1_I","training","02","1_B","146.0","10100","ignore","1.0","5100.0","1.1615312236"
"146","3_2_2",2,"2.0","818.318240785","1_I","training","02","1_B","147.0","11000","ignore","1.0","5200.0","0.589985064958"
"147","3_2_2",2,"2.0","823.021617221","1_I","training","02","1_B","148.0","01010","kill","1.0","5300.0","2.05748636428"
"148","3_2_2",2,"2.0","829.475034915","1_I","training","02","1_B","149.0","00010","kill","0.0","5200.0","3.85543675761"
"149","3_2_2",2,"2.0","833.693999956","1_I","training","02","1_B","150.0","00101","kill","1.0","5300.0","1.58158810648"
"150","3_2_2",2,"2.0","837.444209941","1_I","training","02","1_B","151.0","10101","ignore","1.0","5400.0","1.11422638699"
"151","3_2_2",2,"2.0","841.116227305","1_I","training","02","1_B","152.0","10111","ignore","1.0","5500.0","1.05868798242"
