,unique_id,pair_id,sbj_id,wall_time,condition,block,rule_id,rule_num,trial,stimulus,choice,correct,points,reaction_time
0,1_7_1,7,1.0,51.5184485613,1_I,training,02,1_A,1.0,00101,ignore,1.0,100.0,6.80009368274
1,1_7_1,7,1.0,60.028411897,1_I,training,02,1_A,2.0,10110,kill,0.0,0.0,6.26188389334
2,1_7_1,7,1.0,64.3104552316,1_I,training,02,1_A,3.0,01001,kill,1.0,100.0,2.15395867039
3,1_7_1,7,1.0,69.2394591526,1_I,training,02,1_A,4.0,11010,ignore,1.0,200.0,2.80774717648
4,1_7_1,7,1.0,76.464103542,1_I,training,02,1_A,5.0,00010,kill,0.0,100.0,5.11717813801
5,1_7_1,7,1.0,83.4238975549,1_I,training,02,1_A,6.0,11111,ignore,1.0,200.0,4.84931776224
6,1_7_1,7,1.0,87.0898767222,1_I,training,02,1_A,7.0,01010,ignore,1.0,300.0,1.53785468174
7,1_7_1,7,1.0,89.9337726268,1_I,training,02,1_A,8.0,00111,ignore,1.0,400.0,0.708701287131
8,1_7_1,7,1.0,93.5902201298,1_I,training,02,1_A,9.0,11100,kill,0.0,300.0,1.51453416649
9,1_7_1,7,1.0,98.0278970935,1_I,training,02,1_A,10.0,00100,kill,0.0,200.0,2.27372437323
10,1_7_1,7,1.0,101.934349831,1_I,training,02,1_A,11.0,00001,kill,1.0,300.0,1.75404217201
11,1_7_1,7,1.0,106.872080368,1_I,training,02,1_A,12.0,01100,ignore,1.0,400.0,2.79731727453
12,1_7_1,7,1.0,111.762921916,1_I,training,02,1_A,13.0,01000,kill,1.0,500.0,2.74777544552
13,1_7_1,7,1.0,115.716250506,1_I,training,02,1_A,14.0,11011,ignore,0.0,400.0,1.8262640909
14,1_7_1,7,1.0,119.169591207,1_I,training,02,1_A,15.0,11110,ignore,1.0,500.0,1.32841793175
15,1_7_1,7,1.0,123.57603676,1_I,training,02,1_A,16.0,10101,kill,0.0,400.0,2.21343078747
16,1_7_1,7,1.0,128.951289903,1_I,training,02,1_A,17.0,10000,ignore,0.0,300.0,3.25538521792
17,1_7_1,7,1.0,133.43588911,1_I,training,02,1_A,18.0,10100,kill,0.0,200.0,2.35224216618
18,1_7_1,7,1.0,146.23339687,1_I,training,02,1_A,19.0,10111,ignore,1.0,300.0,10.6495699092
19,1_7_1,7,1.0,153.358707999,1_I,training,02,1_A,20.0,01101,ignore,1.0,400.0,4.99621984818
20,1_7_1,7,1.0,160.124671525,1_I,training,02,1_A,21.0,00000,ignore,0.0,300.0,4.63812353724
21,1_7_1,7,1.0,164.234275402,1_I,training,02,1_A,22.0,10001,kill,1.0,400.0,1.96683417622
22,1_7_1,7,1.0,167.703327051,1_I,training,02,1_A,23.0,10011,ignore,0.0,300.0,1.32115361957
23,1_7_1,7,1.0,177.53181662,1_I,training,02,1_A,24.0,00110,ignore,1.0,400.0,7.69794829879
24,1_7_1,7,1.0,184.188388103,1_I,training,02,1_A,25.0,11101,kill,0.0,300.0,4.52522229123
25,1_7_1,7,1.0,188.985501344,1_I,training,02,1_A,26.0,01011,kill,1.0,400.0,2.67693003066
26,1_7_1,7,1.0,193.516933298,1_I,training,02,1_A,27.0,10010,ignore,1.0,500.0,2.40928969847
27,1_7_1,7,1.0,196.985844957,1_I,training,02,1_A,28.0,00011,kill,1.0,600.0,1.34585433361
28,1_7_1,7,1.0,206.798891243,1_I,training,02,1_A,29.0,11001,kill,1.0,700.0,7.68886246906
29,1_7_1,7,1.0,210.127122384,1_I,training,02,1_A,30.0,01110,ignore,1.0,800.0,1.20598091615
30,1_7_1,7,1.0,213.580440095,1_I,training,02,1_A,31.0,01111,ignore,1.0,900.0,1.33221039944
31,1_7_1,7,1.0,219.924461417,1_I,training,02,1_A,32.0,11000,kill,1.0,1000.0,4.23177240596
32,1_7_1,7,1.0,223.70594089,1_I,training,02,1_A,33.0,11100,kill,0.0,900.0,1.58809892601
33,1_7_1,7,1.0,227.034212673,1_I,training,02,1_A,34.0,10010,ignore,1.0,1000.0,1.17614612536
34,1_7_1,7,1.0,230.534389816,1_I,training,02,1_A,35.0,01010,kill,0.0,900.0,1.37904930495
35,1_7_1,7,1.0,233.909560853,1_I,training,02,1_A,36.0,10101,ignore,1.0,1000.0,1.17604759839
36,1_7_1,7,1.0,238.722278716,1_I,training,02,1_A,37.0,01110,ignore,1.0,1100.0,2.68014118916
37,1_7_1,7,1.0,243.410002377,1_I,training,02,1_A,38.0,11010,kill,0.0,1000.0,2.47919623331
38,1_7_1,7,1.0,246.53518378,1_I,training,02,1_A,39.0,00000,ignore,0.0,900.0,0.964923163323
39,1_7_1,7,1.0,249.707170014,1_I,training,02,1_A,40.0,00010,ignore,1.0,1000.0,1.02617246081
40,1_7_1,7,1.0,252.75740071,1_I,training,02,1_A,41.0,10011,ignore,0.0,900.0,0.939681782485
41,1_7_1,7,1.0,257.616973079,1_I,training,02,1_A,42.0,00111,ignore,1.0,1000.0,2.70804813536
42,1_7_1,7,1.0,270.930127129,1_I,training,02,1_A,43.0,01001,kill,1.0,1100.0,11.174355808
43,1_7_1,7,1.0,278.789881361,1_I,training,02,1_A,44.0,10000,ignore,0.0,1000.0,5.7165653823
44,1_7_1,7,1.0,281.883800153,1_I,training,02,1_A,45.0,10110,ignore,1.0,1100.0,0.949017213898
45,1_7_1,7,1.0,284.821453101,1_I,training,02,1_A,46.0,11000,kill,1.0,1200.0,0.81558540832
46,1_7_1,7,1.0,289.118544379,1_I,training,02,1_A,47.0,00001,kill,1.0,1300.0,2.1797698656
47,1_7_1,7,1.0,293.259349697,1_I,training,02,1_A,48.0,01011,kill,1.0,1400.0,1.9977798587
48,1_7_1,7,1.0,296.275104983,1_I,training,02,1_A,49.0,10111,ignore,1.0,1500.0,0.889017977479
49,1_7_1,7,1.0,300.337823974,1_I,training,02,1_A,50.0,00100,ignore,1.0,1600.0,1.92322367143
50,1_7_1,7,1.0,303.525511714,1_I,training,02,1_A,51.0,11001,kill,1.0,1700.0,1.05435035619
51,1_7_1,7,1.0,307.978811773,1_I,training,02,1_A,52.0,01100,kill,0.0,1600.0,2.29722839498
52,1_7_1,7,1.0,311.603979833,1_I,training,02,1_A,53.0,00101,kill,0.0,1500.0,1.48151120683
53,1_7_1,7,1.0,314.838502784,1_I,training,02,1_A,54.0,01101,ignore,1.0,1600.0,1.12674346571
54,1_7_1,7,1.0,318.807456932,1_I,training,02,1_A,55.0,01000,kill,1.0,1700.0,1.81548647081
55,1_7_1,7,1.0,322.245108033,1_I,training,02,1_A,56.0,11011,kill,1.0,1800.0,1.30645175195
56,1_7_1,7,1.0,326.026561642,1_I,training,02,1_A,57.0,11101,ignore,1.0,1900.0,1.66023052851
57,1_7_1,7,1.0,329.323601194,1_I,training,02,1_A,58.0,01111,ignore,1.0,2000.0,1.17336848557
58,1_7_1,7,1.0,333.011285034,1_I,training,02,1_A,59.0,10100,ignore,1.0,2100.0,1.57986494414
59,1_7_1,7,1.0,336.105223942,1_I,training,02,1_A,60.0,10001,kill,1.0,2200.0,0.956146461998
60,1_7_1,7,1.0,340.402304136,1_I,training,02,1_A,61.0,00011,kill,1.0,2300.0,2.17044182372
61,1_7_1,7,1.0,343.480541948,1_I,training,02,1_A,62.0,11111,ignore,1.0,2400.0,0.955199781929
62,1_7_1,7,1.0,349.902748533,1_I,training,02,1_A,63.0,11110,ignore,1.0,2500.0,4.30013781461
63,1_7_1,7,1.0,354.434184182,1_I,training,02,1_A,64.0,00110,kill,0.0,2400.0,2.40478701546
64,1_7_1,7,1.0,357.731243029,1_I,training,02,1_A,65.0,00011,kill,1.0,2500.0,1.17735841775
65,1_7_1,7,1.0,361.887698537,1_I,training,02,1_A,66.0,10000,kill,1.0,2600.0,2.01404584214
66,1_7_1,7,1.0,368.403637534,1_I,training,02,1_A,67.0,00000,ignore,0.0,2500.0,4.36800443043
67,1_7_1,7,1.0,371.560066768,1_I,training,02,1_A,68.0,11011,kill,1.0,2600.0,1.00716455361
68,1_7_1,7,1.0,374.700792855,1_I,training,02,1_A,69.0,11111,ignore,1.0,2700.0,1.00533195177
69,1_7_1,7,1.0,379.966695828,1_I,training,02,1_A,70.0,00010,kill,0.0,2600.0,3.00790145331
70,1_7_1,7,1.0,383.232474,1_I,training,02,1_A,71.0,01111,ignore,1.0,2700.0,1.04085749673
71,1_7_1,7,1.0,386.763966302,1_I,training,02,1_A,72.0,11100,ignore,1.0,2800.0,1.41658438979
72,1_7_1,7,1.0,391.029789222,1_I,training,02,1_A,73.0,01000,kill,1.0,2900.0,2.1217058633
73,1_7_1,7,1.0,395.045571602,1_I,training,02,1_A,74.0,00001,kill,1.0,3000.0,1.86779526586
74,1_7_1,7,1.0,398.280101122,1_I,training,02,1_A,75.0,10101,ignore,1.0,3100.0,1.06918112995
75,1_7_1,7,1.0,401.639667127,1_I,training,02,1_A,76.0,10110,ignore,1.0,3200.0,1.20964406718
76,1_7_1,7,1.0,407.639957781,1_I,training,02,1_A,77.0,10100,ignore,1.0,3300.0,3.87148058546
77,1_7_1,7,1.0,411.015074628,1_I,training,02,1_A,78.0,01001,kill,1.0,3400.0,1.24071947686
78,1_7_1,7,1.0,414.093386335,1_I,training,02,1_A,79.0,11101,ignore,1.0,3500.0,0.9572064481
79,1_7_1,7,1.0,417.093523042,1_I,training,02,1_A,80.0,10011,kill,1.0,3600.0,0.878748181869
80,1_7_1,7,1.0,420.24996336,1_I,training,02,1_A,81.0,11010,kill,0.0,3500.0,1.05310932677
81,1_7_1,7,1.0,424.359511815,1_I,training,02,1_A,82.0,10001,kill,1.0,3600.0,1.97906630086
82,1_7_1,7,1.0,427.328403153,1_I,training,02,1_A,83.0,01110,ignore,1.0,3700.0,0.821653028208
83,1_7_1,7,1.0,430.516038756,1_I,training,02,1_A,84.0,01011,kill,1.0,3800.0,1.07550943581
84,1_7_1,7,1.0,434.516230473,1_I,training,02,1_A,85.0,01010,ignore,1.0,3900.0,1.8932722904
85,1_7_1,7,1.0,437.813265508,1_I,training,02,1_A,86.0,00110,ignore,1.0,4000.0,1.15888584048
86,1_7_1,7,1.0,443.626037971,1_I,training,02,1_A,87.0,00101,kill,0.0,3900.0,3.66515113012
87,1_7_1,7,1.0,447.641884805,1_I,training,02,1_A,88.0,10010,ignore,1.0,4000.0,1.88241543819
88,1_7_1,7,1.0,450.673283711,1_I,training,02,1_A,89.0,11110,ignore,1.0,4100.0,0.913892755845
89,1_7_1,7,1.0,453.829684619,1_I,training,02,1_A,90.0,10111,ignore,1.0,4200.0,1.01692406156
90,1_7_1,7,1.0,457.970508822,1_I,training,02,1_A,91.0,11000,kill,1.0,4300.0,2.00048729803
91,1_7_1,7,1.0,461.267556584,1_I,training,02,1_A,92.0,01100,ignore,1.0,4400.0,1.16030093424
92,1_7_1,7,1.0,464.470858798,1_I,training,02,1_A,93.0,11001,kill,1.0,4500.0,1.05659225553
93,1_7_1,7,1.0,467.861604898,1_I,training,02,1_A,94.0,00100,ignore,1.0,4600.0,1.22232818434
94,1_7_1,7,1.0,472.377475747,1_I,training,02,1_A,95.0,01101,ignore,1.0,4700.0,2.38831125166
95,1_7_1,7,1.0,475.67452392,1_I,training,02,1_A,96.0,00111,ignore,1.0,4800.0,1.14519100071
96,1_7_1,7,1.0,478.862156649,1_I,training,02,1_A,97.0,00001,kill,1.0,4900.0,1.02213860201
97,1_7_1,7,1.0,482.424824119,1_I,training,02,1_A,98.0,01000,ignore,0.0,4800.0,1.44441908287
98,1_7_1,7,1.0,485.893772725,1_I,training,02,1_A,99.0,10010,ignore,1.0,4900.0,1.34061187718
99,1_7_1,7,1.0,489.175146898,1_I,training,02,1_A,100.0,01001,kill,1.0,5000.0,1.15361793125
100,1_7_1,7,1.0,492.940973307,1_I,training,02,1_A,101.0,01011,kill,1.0,5100.0,1.62314456248
101,1_7_1,7,1.0,496.753664896,1_I,training,02,1_A,102.0,01101,ignore,1.0,5200.0,1.66445815703
102,1_7_1,7,1.0,500.378816124,1_I,training,02,1_A,103.0,10110,ignore,1.0,5300.0,1.46959067377
103,1_7_1,7,1.0,506.566617992,1_I,training,02,1_A,104.0,10000,kill,1.0,5400.0,3.98849738554
104,1_7_1,7,1.0,509.848075091,1_I,training,02,1_A,105.0,10111,ignore,1.0,5500.0,1.16106698152
105,1_7_1,7,1.0,512.576375447,1_I,training,02,1_A,106.0,01111,ignore,1.0,5600.0,0.605174062282
106,1_7_1,7,1.0,515.457831479,1_I,training,02,1_A,107.0,01100,ignore,1.0,5700.0,0.756444998751
107,1_7_1,7,1.0,518.854932569,1_I,training,02,1_A,108.0,01110,ignore,1.0,5800.0,1.30739227409
108,1_7_1,7,1.0,522.511380893,1_I,training,02,1_A,109.0,11101,ignore,1.0,5900.0,1.53396779235
109,1_7_1,7,1.0,525.230236206,1_I,training,02,1_A,110.0,10101,ignore,1.0,6000.0,0.578439997684
110,1_7_1,7,1.0,528.042876068,1_I,training,02,1_A,111.0,11110,ignore,1.0,6100.0,0.685292918661
111,1_7_1,7,1.0,530.699291139,1_I,training,02,1_A,112.0,00111,ignore,1.0,6200.0,0.48930592258
112,1_7_1,7,1.0,536.324555674,1_I,training,02,1_A,113.0,11000,kill,1.0,6300.0,3.50266371797
113,1_7_1,7,1.0,539.559104488,1_I,training,02,1_A,114.0,00110,ignore,1.0,6400.0,1.1024623124
114,1_7_1,7,1.0,543.309309034,1_I,training,02,1_A,115.0,10100,ignore,1.0,6500.0,1.58693056024
115,1_7_1,7,1.0,546.715676176,1_I,training,02,1_A,116.0,00000,kill,1.0,6600.0,1.25036773143
116,1_7_1,7,1.0,550.184612056,1_I,training,02,1_A,117.0,00011,kill,1.0,6700.0,1.34588060747
117,1_7_1,7,1.0,553.63789282,1_I,training,02,1_A,118.0,01010,ignore,1.0,6800.0,1.3442183752
118,1_7_1,7,1.0,556.77869978,1_I,training,02,1_A,119.0,11011,kill,1.0,6900.0,0.989474034239
119,1_7_1,7,1.0,560.388217651,1_I,training,02,1_A,120.0,00101,ignore,1.0,7000.0,1.45303814103
120,1_7_1,7,1.0,564.200915808,1_I,training,02,1_A,121.0,11001,kill,1.0,7100.0,1.6961588025
121,1_7_1,7,1.0,568.247957926,1_I,training,02,1_A,122.0,00010,ignore,1.0,7200.0,1.89642761695
122,1_7_1,7,1.0,571.638795163,1_I,training,02,1_A,123.0,11100,ignore,1.0,7300.0,1.27894548215
123,1_7_1,7,1.0,574.779571744,1_I,training,02,1_A,124.0,10011,kill,1.0,7400.0,1.01049312343
124,1_7_1,7,1.0,577.717211966,1_I,training,02,1_A,125.0,11111,ignore,1.0,7500.0,0.808699603964
125,1_7_1,7,1.0,581.311137941,1_I,training,02,1_A,126.0,11010,ignore,1.0,7600.0,1.492551155
126,1_7_1,7,1.0,584.092520119,1_I,training,02,1_A,127.0,00100,ignore,1.0,7700.0,0.632743143036
127,1_7_1,7,1.0,587.373918102,1_I,training,02,1_A,128.0,10001,kill,1.0,7800.0,1.14641519844
128,1_7_1,7,1.0,590.32719086,1_I,training,02,1_A,129.0,10101,ignore,1.0,7900.0,0.809191007276
129,1_7_1,7,1.0,593.546110011,1_I,training,02,1_A,130.0,11110,ignore,1.0,8000.0,1.09830611594
130,1_7_1,7,1.0,596.765006172,1_I,training,02,1_A,131.0,10010,ignore,1.0,8100.0,1.11757388805
131,1_7_1,7,1.0,600.655840741,1_I,training,02,1_A,132.0,11100,ignore,1.0,8200.0,1.7813054086
132,1_7_1,7,1.0,603.874716786,1_I,training,02,1_A,133.0,11011,kill,1.0,8300.0,1.08090912487
133,1_7_1,7,1.0,607.281156181,1_I,training,02,1_A,134.0,10001,kill,1.0,8400.0,1.25808690983
134,1_7_1,7,1.0,610.703152165,1_I,training,02,1_A,135.0,01001,kill,1.0,8500.0,1.26772818541
135,1_7_1,7,1.0,614.734663557,1_I,training,02,1_A,136.0,01011,kill,1.0,8600.0,1.91289311752
136,1_7_1,7,1.0,620.500527325,1_I,training,02,1_A,137.0,00100,ignore,1.0,8700.0,3.59219313259
137,1_7_1,7,1.0,623.844465719,1_I,training,02,1_A,138.0,11101,ignore,1.0,8800.0,1.20819859426
138,1_7_1,7,1.0,627.172739966,1_I,training,02,1_A,139.0,00010,ignore,1.0,8900.0,1.19219206521
139,1_7_1,7,1.0,629.876001742,1_I,training,02,1_A,140.0,01110,ignore,1.0,9000.0,0.571789837024
140,1_7_1,7,1.0,632.766743121,1_I,training,02,1_A,141.0,01111,ignore,1.0,9100.0,0.765769345875
141,1_7_1,7,1.0,636.298209559,1_I,training,02,1_A,142.0,01000,kill,1.0,9200.0,1.38594537253
142,1_7_1,7,1.0,639.501449373,1_I,training,02,1_A,143.0,11010,ignore,1.0,9300.0,1.06442268732
143,1_7_1,7,1.0,642.267207224,1_I,training,02,1_A,144.0,11111,ignore,1.0,9400.0,0.632677458379
144,1_7_1,7,1.0,645.001741464,1_I,training,02,1_A,145.0,00110,ignore,1.0,9500.0,0.588590329331
145,1_7_1,7,1.0,648.220629415,1_I,training,02,1_A,146.0,00101,ignore,1.0,9600.0,1.05712142752
146,1_7_1,7,1.0,650.986378645,1_I,training,02,1_A,147.0,00111,ignore,1.0,9700.0,0.611337335446
147,1_7_1,7,1.0,654.408436209,1_I,training,02,1_A,148.0,11001,kill,1.0,9800.0,1.27531271027
148,1_7_1,7,1.0,657.54922059,1_I,training,02,1_A,149.0,10111,ignore,1.0,9900.0,1.00770686253
149,1_7_1,7,1.0,660.54935278,1_I,training,02,1_A,150.0,00001,kill,1.0,10000.0,0.874690922912
150,1_7_1,7,1.0,664.346415527,1_I,training,02,1_A,151.0,10011,kill,1.0,10100.0,1.58651838903
151,1_7_1,7,1.0,667.534102035,1_I,training,02,1_A,152.0,01010,ignore,1.0,10200.0,1.05936373739
152,1_7_1,7,1.0,670.299849623,1_I,training,02,1_A,153.0,10110,ignore,1.0,10300.0,0.598104340894
153,1_7_1,7,1.0,673.581268543,1_I,training,02,1_A,154.0,00000,kill,1.0,10400.0,1.15189124592
154,1_7_1,7,1.0,676.503259806,1_I,training,02,1_A,155.0,01100,ignore,1.0,10500.0,0.776230448038
155,1_7_1,7,1.0,679.315902542,1_I,training,02,1_A,156.0,10100,ignore,1.0,10600.0,0.664333356188
156,1_7_1,7,1.0,682.050415845,1_I,training,02,1_A,157.0,01101,ignore,1.0,10700.0,0.60169811251
157,1_7_1,7,1.0,685.23811467,1_I,training,02,1_A,158.0,11000,kill,1.0,10800.0,1.06994758775
158,1_7_1,7,1.0,688.378850198,1_I,training,02,1_A,159.0,10000,kill,1.0,10900.0,0.997016685134
159,1_7_1,7,1.0,691.488401527,1_I,training,02,1_A,160.0,00011,kill,1.0,11000.0,0.94650600748
160,1_7_1,7,1.0,694.472890507,1_I,training,02,1_A,161.0,01011,kill,1.0,11100.0,0.837243280766
161,1_7_1,7,1.0,697.441825771,1_I,training,02,1_A,162.0,10100,ignore,1.0,11200.0,0.817236966832
162,1_7_1,7,1.0,700.129452958,1_I,training,02,1_A,163.0,11101,ignore,1.0,11300.0,0.541051882254
163,1_7_1,7,1.0,702.754571344,1_I,training,02,1_A,164.0,00101,ignore,1.0,11400.0,0.467347132311
164,1_7_1,7,1.0,705.520341921,1_I,training,02,1_A,165.0,10111,ignore,1.0,11500.0,0.614067353865
165,1_7_1,7,1.0,708.457985017,1_I,training,02,1_A,166.0,00010,ignore,1.0,11600.0,0.768847082432
166,1_7_1,7,1.0,711.754993778,1_I,training,02,1_A,167.0,10011,kill,1.0,11700.0,1.16624580593
167,1_7_1,7,1.0,714.911404539,1_I,training,02,1_A,168.0,11011,kill,1.0,11800.0,1.02338127355
168,1_7_1,7,1.0,718.067812837,1_I,training,02,1_A,169.0,10001,kill,1.0,11900.0,1.01482174212
169,1_7_1,7,1.0,721.474192705,1_I,training,02,1_A,170.0,11010,ignore,1.0,12000.0,1.29033027475
170,1_7_1,7,1.0,724.615006644,1_I,training,02,1_A,171.0,10000,kill,1.0,12100.0,0.980164055632
171,1_7_1,7,1.0,727.505806729,1_I,training,02,1_A,172.0,10110,ignore,1.0,12200.0,0.793799040268
172,1_7_1,7,1.0,730.349666096,1_I,training,02,1_A,173.0,01100,ignore,1.0,12300.0,0.721425636148
173,1_7_1,7,1.0,733.224806959,1_I,training,02,1_A,174.0,10010,ignore,1.0,12400.0,0.739940087384
174,1_7_1,7,1.0,735.974922831,1_I,training,02,1_A,175.0,11111,ignore,1.0,12500.0,0.597284924839
175,1_7_1,7,1.0,738.990711369,1_I,training,02,1_A,176.0,00001,kill,1.0,12600.0,0.847382117601
176,1_7_1,7,1.0,742.178358877,1_I,training,02,1_A,177.0,00110,ignore,1.0,12700.0,1.04668742028
177,1_7_1,7,1.0,744.975365381,1_I,training,02,1_A,178.0,01101,ignore,1.0,12800.0,0.624339612648
178,1_7_1,7,1.0,748.194288637,1_I,training,02,1_A,179.0,01010,ignore,1.0,12900.0,1.07038110646
179,1_7_1,7,1.0,751.756956518,1_I,training,02,1_A,180.0,01000,kill,1.0,13000.0,1.39839015124
180,1_7_1,7,1.0,755.022748238,1_I,training,02,1_A,181.0,01001,kill,1.0,13100.0,1.11253915935
181,1_7_1,7,1.0,758.351022484,1_I,training,02,1_A,182.0,00000,kill,1.0,13200.0,1.18858392508
182,1_7_1,7,1.0,761.710592595,1_I,training,02,1_A,183.0,10101,ignore,1.0,13300.0,1.18174984739
183,1_7_1,7,1.0,764.898210545,1_I,training,02,1_A,184.0,11000,kill,1.0,13400.0,1.05530401526
184,1_7_1,7,1.0,767.945230904,1_I,training,02,1_A,185.0,11100,ignore,1.0,13500.0,0.919168875655
185,1_7_1,7,1.0,771.195397887,1_I,training,02,1_A,186.0,00011,kill,1.0,13600.0,1.09096831906
186,1_7_1,7,1.0,774.195557583,1_I,training,02,1_A,187.0,01110,ignore,1.0,13700.0,0.86203020591
187,1_7_1,7,1.0,777.305078532,1_I,training,02,1_A,188.0,00111,ignore,1.0,13800.0,0.960365879942
188,1_7_1,7,1.0,780.070863889,1_I,training,02,1_A,189.0,00100,ignore,1.0,13900.0,0.598821535204
189,1_7_1,7,1.0,782.883455308,1_I,training,02,1_A,190.0,01111,ignore,1.0,14000.0,0.670286438457
190,1_7_1,7,1.0,785.94613571,1_I,training,02,1_A,191.0,11001,kill,1.0,14100.0,0.932713051254
191,1_7_1,7,1.0,788.94626708,1_I,training,02,1_A,192.0,11110,ignore,1.0,14200.0,0.877317488008
192,1_7_1,7,1.0,792.024522134,1_I,training,02,1_A,193.0,01010,ignore,1.0,14300.0,0.907034456937
193,1_7_1,7,1.0,794.837160764,1_I,training,02,1_A,194.0,00100,ignore,1.0,14400.0,0.647549695572
194,1_7_1,7,1.0,797.634221869,1_I,training,02,1_A,195.0,11100,ignore,1.0,14500.0,0.682817428271
195,1_7_1,7,1.0,800.290609435,1_I,training,02,1_A,196.0,11101,ignore,1.0,14600.0,0.484206740806
196,1_7_1,7,1.0,803.321977141,1_I,training,02,1_A,197.0,11011,kill,1.0,14700.0,0.888750312515
197,1_7_1,7,1.0,806.259630089,1_I,training,02,1_A,198.0,01001,kill,1.0,14800.0,0.788225697397
198,1_7_1,7,1.0,809.244121942,1_I,training,02,1_A,199.0,01011,kill,1.0,14900.0,0.850106799138
199,1_7_1,7,1.0,812.338017333,1_I,training,02,1_A,200.0,11110,ignore,1.0,15000.0,0.970238693928
200,1_7_1,7,1.0,815.306934124,1_I,training,02,1_A,201.0,01110,ignore,1.0,15100.0,0.810519068873
201,1_7_1,7,1.0,818.30708684,1_I,training,02,1_A,202.0,11111,ignore,1.0,15200.0,0.850853551547
202,1_7_1,7,1.0,822.135385103,1_I,training,02,1_A,203.0,10101,ignore,1.0,15300.0,1.66808846574
203,1_7_1,7,1.0,825.198066736,1_I,training,02,1_A,204.0,00000,kill,1.0,15400.0,0.904720304483
204,1_7_1,7,1.0,828.229443474,1_I,training,02,1_A,205.0,00110,ignore,1.0,15500.0,0.888359078297
205,1_7_1,7,1.0,831.167070559,1_I,training,02,1_A,206.0,10100,ignore,1.0,15600.0,0.78290236674
206,1_7_1,7,1.0,834.407986269,1_I,training,02,1_A,207.0,10010,ignore,1.0,15700.0,1.10767233703
207,1_7_1,7,1.0,838.439422123,1_I,training,02,1_A,208.0,00001,kill,1.0,15800.0,1.89020974341
208,1_7_1,7,1.0,842.095840068,1_I,training,02,1_A,209.0,11010,ignore,1.0,15900.0,1.54004033859
209,1_7_1,7,1.0,926.459343868,1_I,test,02,2,0.0,00011,kill,1.0,100.0,4.73445213457
210,1_7_1,7,1.0,929.994228782,1_I,test,02,2,1.0,11000,kill,0.0,0.0,1.42140687496
211,1_7_1,7,1.0,934.175298793,1_I,test,02,2,2.0,11001,kill,0.0,0.0,1.98566760856
212,1_7_1,7,1.0,937.821610333,1_I,test,02,2,3.0,00111,ignore,0.0,0.0,1.53713543478
213,1_7_1,7,1.0,941.045908647,1_I,test,02,2,4.0,01101,ignore,1.0,100.0,1.12640354763
214,1_7_1,7,1.0,946.205540418,1_I,test,02,2,5.0,10111,ignore,0.0,0.0,3.04427309873
215,1_7_1,7,1.0,949.818858146,1_I,test,02,2,6.0,10001,ignore,1.0,100.0,1.46932136668
216,1_7_1,7,1.0,952.963784356,1_I,test,02,2,7.0,10011,ignore,0.0,0.0,1.01326460529
217,1_7_1,7,1.0,956.835170519,1_I,test,02,2,8.0,01000,ignore,1.0,100.0,1.74271608506
218,1_7_1,7,1.0,960.185232776,1_I,test,02,2,9.0,10000,ignore,1.0,200.0,1.18025921627
219,1_7_1,7,1.0,964.452698633,1_I,test,02,2,10.0,10110,kill,1.0,300.0,2.15946427596
220,1_7_1,7,1.0,967.612290173,1_I,test,02,2,11.0,01111,kill,0.0,200.0,1.06498757534
221,1_7_1,7,1.0,971.931258547,1_I,test,02,2,12.0,01100,kill,0.0,100.0,2.18461739305
222,1_7_1,7,1.0,975.637791419,1_I,test,02,2,13.0,00101,kill,0.0,0.0,1.57569807392
223,1_7_1,7,1.0,979.966077161,1_I,test,02,2,14.0,00010,ignore,0.0,0.0,2.16735218182
224,1_7_1,7,1.0,986.403912999,1_I,test,02,2,15.0,11000,ignore,1.0,100.0,4.28878832751
225,1_7_1,7,1.0,993.63866133,1_I,test,02,2,16.0,10110,ignore,0.0,0.0,5.09562495048
226,1_7_1,7,1.0,997.201301295,1_I,test,02,2,17.0,11111,kill,1.0,100.0,1.41444553326
227,1_7_1,7,1.0,1000.74835019,1_I,test,02,2,18.0,10101,ignore,1.0,200.0,1.39837455114
228,1_7_1,7,1.0,1006.4517733,1_I,test,02,2,19.0,01011,ignore,1.0,300.0,3.56202170796
229,1_7_1,7,1.0,1011.78018507,1_I,test,02,2,20.0,11011,ignore,0.0,200.0,3.18570447407
230,1_7_1,7,1.0,1015.53033092,1_I,test,02,2,21.0,00111,ignore,0.0,100.0,1.60681494704
231,1_7_1,7,1.0,1021.9525219,1_I,test,02,2,22.0,00101,kill,0.0,0.0,4.2931481464
232,1_7_1,7,1.0,1028.48411068,1_I,test,02,2,23.0,00011,ignore,0.0,0.0,4.38181586046
233,1_7_1,7,1.0,1034.01563131,1_I,test,02,2,24.0,01100,kill,0.0,0.0,3.38146034228
234,1_7_1,7,1.0,1038.31269097,1_I,test,02,2,25.0,11010,kill,1.0,100.0,2.1667322829
235,1_7_1,7,1.0,1043.67234565,1_I,test,02,2,26.0,01110,kill,0.0,0.0,3.25409164077
236,1_7_1,7,1.0,1054.48536731,1_I,test,02,2,27.0,10111,ignore,0.0,0.0,8.65399089693
237,1_7_1,7,1.0,1058.89182107,1_I,test,02,2,28.0,10000,ignore,1.0,100.0,2.25853931288
238,1_7_1,7,1.0,1063.5795435,1_I,test,02,2,29.0,11110,ignore,0.0,0.0,2.53276863689
239,1_7_1,7,1.0,1070.73617964,1_I,test,02,2,30.0,10100,ignore,1.0,100.0,4.98303036971
240,1_7_1,7,1.0,1075.01763058,1_I,test,02,2,31.0,01000,ignore,1.0,200.0,2.17869838469
241,1_7_1,7,1.0,1078.29901338,1_I,test,02,2,32.0,00000,ignore,1.0,300.0,1.12214800312
242,1_7_1,7,1.0,1088.04950858,1_I,test,02,2,33.0,01111,kill,0.0,200.0,7.47270576846
243,1_7_1,7,1.0,1092.48718061,1_I,test,02,2,34.0,01010,kill,0.0,100.0,2.3129069113
244,1_7_1,7,1.0,1095.9717441,1_I,test,02,2,35.0,10010,kill,1.0,200.0,1.36027704145
245,1_7_1,7,1.0,1102.76897311,1_I,test,02,2,36.0,10011,kill,1.0,300.0,4.67803271178
246,1_7_1,7,1.0,1105.83163833,1_I,test,02,2,37.0,11100,ignore,1.0,400.0,0.917006618962
247,1_7_1,7,1.0,1109.06613049,1_I,test,02,2,38.0,00110,kill,1.0,500.0,1.0878298242
248,1_7_1,7,1.0,1112.3163143,1_I,test,02,2,39.0,11101,ignore,1.0,600.0,1.13989640709
249,1_7_1,7,1.0,1115.98836561,1_I,test,02,2,40.0,10001,ignore,1.0,700.0,1.5341632042
250,1_7_1,7,1.0,1119.69167459,1_I,test,02,2,41.0,00010,kill,1.0,800.0,1.55331972293
251,1_7_1,7,1.0,1122.69181212,1_I,test,02,2,42.0,11001,ignore,1.0,900.0,0.871589375674
252,1_7_1,7,1.0,1125.48881247,1_I,test,02,2,43.0,00001,ignore,1.0,1000.0,0.639523030888
253,1_7_1,7,1.0,1128.14519798,1_I,test,02,2,44.0,01101,ignore,1.0,1100.0,0.526342214584
254,1_7_1,7,1.0,1130.87974905,1_I,test,02,3,0.0,00100,ignore,0.0,1000.0,0.590007886261
255,1_7_1,7,1.0,1133.97363049,1_I,test,02,3,1.0,01001,ignore,1.0,1100.0,0.937310566485
256,1_7_1,7,1.0,1137.4425598,1_I,test,02,3,2.0,11100,kill,1.0,1200.0,1.31893717304
257,1_7_1,7,1.0,1141.44278928,1_I,test,02,3,3.0,11110,kill,0.0,1100.0,1.87225935914
258,1_7_1,7,1.0,1144.41161945,1_I,test,02,3,4.0,01100,ignore,0.0,1000.0,0.852787143544
259,1_7_1,7,1.0,1150.59940408,1_I,test,02,3,5.0,00010,ignore,0.0,900.0,3.9809145028
260,1_7_1,7,1.0,1154.00586441,1_I,test,02,3,6.0,00011,kill,0.0,800.0,1.27736330305
261,1_7_1,7,1.0,1157.47476704,1_I,test,02,3,7.0,11111,kill,0.0,700.0,1.34824648659
262,1_7_1,7,1.0,1160.59992545,1_I,test,02,3,8.0,01101,ignore,1.0,800.0,0.975969679963
263,1_7_1,7,1.0,1163.64694375,1_I,test,02,3,9.0,10000,ignore,0.0,700.0,0.935845388176
264,1_7_1,7,1.0,1166.83459537,1_I,test,02,3,10.0,00100,ignore,0.0,600.0,0.994833491455
265,1_7_1,7,1.0,1170.27226782,1_I,test,02,3,11.0,00000,kill,1.0,700.0,1.27226535287
266,1_7_1,7,1.0,1173.67867765,1_I,test,02,3,12.0,01001,ignore,1.0,800.0,1.29304346148
267,1_7_1,7,1.0,1178.538296,1_I,test,02,3,13.0,10010,ignore,0.0,700.0,2.67097407468
268,1_7_1,7,1.0,1183.17916392,1_I,test,02,3,14.0,11000,ignore,0.0,600.0,2.51544266735
269,1_7_1,7,1.0,1188.55440311,1_I,test,02,3,15.0,01110,ignore,1.0,700.0,3.22015525389
270,1_7_1,7,1.0,1191.69520145,1_I,test,02,3,16.0,11001,ignore,1.0,800.0,0.968649125305
271,1_7_1,7,1.0,1195.99223443,1_I,test,02,3,17.0,00101,ignore,1.0,900.0,2.17392557354
272,1_7_1,7,1.0,1201.77380833,1_I,test,02,3,18.0,01000,kill,1.0,1000.0,3.65111883544
273,1_7_1,7,1.0,1208.71164971,1_I,test,02,3,19.0,01011,kill,0.0,900.0,4.79289792892
274,1_7_1,7,1.0,1214.64942951,1_I,test,02,3,20.0,01010,ignore,0.0,800.0,3.796060645
275,1_7_1,7,1.0,1217.82148307,1_I,test,02,3,21.0,10100,ignore,0.0,700.0,0.997359887449
276,1_7_1,7,1.0,1223.58737968,1_I,test,02,3,22.0,11011,kill,0.0,600.0,3.67135915096
277,1_7_1,7,1.0,1229.3063951,1_I,test,02,3,23.0,00111,ignore,1.0,700.0,3.53285156377
278,1_7_1,7,1.0,1236.41615621,1_I,test,02,3,24.0,10101,kill,0.0,600.0,4.95176324295
279,1_7_1,7,1.0,1240.63507905,1_I,test,02,3,25.0,10110,ignore,1.0,700.0,2.06755543477
280,1_7_1,7,1.0,1245.69779846,1_I,test,02,3,26.0,11101,ignore,1.0,800.0,2.91236681923
281,1_7_1,7,1.0,1248.47920239,1_I,test,02,3,27.0,00110,ignore,1.0,900.0,0.674833048084
282,1_7_1,7,1.0,1253.74506883,1_I,test,02,3,28.0,10111,ignore,1.0,1000.0,3.09085624462
283,1_7_1,7,1.0,1257.0265288,1_I,test,02,3,29.0,01111,ignore,1.0,1100.0,1.120078526
284,1_7_1,7,1.0,1262.19860987,1_I,test,02,3,30.0,10011,ignore,1.0,1200.0,3.03872233496
285,1_7_1,7,1.0,1265.40195313,1_I,test,02,3,31.0,10001,ignore,1.0,1300.0,1.04502559854
286,1_7_1,7,1.0,1268.41769118,1_I,test,02,3,32.0,00001,ignore,1.0,1400.0,0.884823601809
287,1_7_1,7,1.0,1273.2460387,1_I,test,02,3,33.0,11010,ignore,0.0,1300.0,2.71483171797
288,1_7_1,7,1.0,1276.07442933,1_I,test,02,3,34.0,10111,ignore,1.0,1400.0,0.687547133872
289,1_7_1,7,1.0,1278.79319269,1_I,test,02,3,35.0,11101,ignore,1.0,1500.0,0.584637344764
290,1_7_1,7,1.0,1281.40269003,1_I,test,02,3,36.0,00001,ignore,1.0,1600.0,0.473617964097
291,1_7_1,7,1.0,1284.59034083,1_I,test,02,3,37.0,10010,kill,1.0,1700.0,1.04116826725
292,1_7_1,7,1.0,1287.27800865,1_I,test,02,3,38.0,00111,ignore,1.0,1800.0,0.521039410381
293,1_7_1,7,1.0,1291.90318041,1_I,test,02,3,39.0,11110,ignore,1.0,1900.0,2.48894958333
294,1_7_1,7,1.0,1295.52838254,1_I,test,02,3,40.0,01110,ignore,1.0,2000.0,1.48444074238
295,1_7_1,7,1.0,1298.24725551,1_I,test,02,3,41.0,00010,ignore,0.0,1900.0,0.493879216596
296,1_7_1,7,1.0,1302.74750614,1_I,test,02,3,42.0,11001,ignore,1.0,2000.0,2.3633913151
297,1_7_1,7,1.0,1305.37262576,1_I,test,02,3,43.0,01101,ignore,1.0,2100.0,0.520330426651
298,1_7_1,7,1.0,1307.99776015,1_I,test,02,3,44.0,00101,ignore,1.0,2200.0,0.393595171521
299,1_7_1,7,1.0,1311.16172342,1_I,test,02,3,45.0,11010,kill,1.0,2300.0,1.05120980869
300,1_7_1,7,1.0,1313.6863488,1_I,test,02,3,46.0,10001,ignore,1.0,2400.0,0.356670543428
301,1_7_1,7,1.0,1316.61215306,1_I,test,02,3,47.0,11100,ignore,0.0,2300.0,0.800439348226
302,1_7_1,7,1.0,1319.67483921,1_I,test,02,3,48.0,01100,kill,1.0,2400.0,0.933944227982
303,1_7_1,7,1.0,1322.72633803,1_I,test,02,3,49.0,00000,ignore,0.0,2300.0,0.886162337159
304,1_7_1,7,1.0,1325.90687887,1_I,test,02,3,50.0,01000,kill,1.0,2400.0,1.09115141503
305,1_7_1,7,1.0,1328.95703279,1_I,test,02,3,51.0,00100,kill,1.0,2500.0,0.939381275195
306,1_7_1,7,1.0,1331.86727882,1_I,test,02,3,52.0,00011,ignore,1.0,2600.0,0.73861859426
307,1_7_1,7,1.0,1336.23895584,1_I,test,02,3,53.0,10110,ignore,1.0,2700.0,2.21831977835
308,1_7_1,7,1.0,1339.30161408,1_I,test,02,3,54.0,00110,ignore,1.0,2800.0,0.898644063484
309,1_7_1,7,1.0,1342.1923337,1_I,test,02,3,55.0,10011,ignore,1.0,2900.0,0.763198612738
310,1_7_1,7,1.0,1345.16127307,1_I,test,02,3,56.0,01011,ignore,1.0,3000.0,0.815111657754
311,1_7_1,7,1.0,1349.91145627,1_I,test,02,3,57.0,01111,ignore,1.0,3100.0,2.58968069458
312,1_7_1,7,1.0,1352.55221253,1_I,test,02,3,58.0,11111,ignore,1.0,3200.0,0.437264792494
313,1_7_1,7,1.0,1355.34924941,1_I,test,02,3,59.0,10101,ignore,1.0,3300.0,0.539842463568
314,1_7_1,7,1.0,1357.86502132,1_I,test,02,4,0.0,11011,ignore,0.0,3200.0,0.403862914485
315,1_7_1,7,1.0,1362.64648971,1_I,test,02,4,1.0,11000,kill,0.0,3100.0,2.66160867465
316,1_7_1,7,1.0,1365.70913357,1_I,test,02,4,2.0,01001,ignore,1.0,3200.0,0.909864644455
317,1_7_1,7,1.0,1368.83425873,1_I,test,02,4,3.0,10000,ignore,0.0,3100.0,1.0410024135
318,1_7_1,7,1.0,1372.00631599,1_I,test,02,4,4.0,10100,ignore,0.0,3000.0,0.984583401241
319,1_7_1,7,1.0,1375.91276544,1_I,test,02,4,5.0,01010,kill,0.0,2900.0,1.75166849284
320,1_7_1,7,1.0,1379.49104862,1_I,test,02,4,6.0,01001,ignore,1.0,3000.0,1.4510265485
321,1_7_1,7,1.0,1382.53806364,1_I,test,02,4,7.0,11001,ignore,0.0,2900.0,0.886828215334
322,1_7_1,7,1.0,1386.55390267,1_I,test,02,4,8.0,01110,ignore,1.0,3000.0,1.87909754212
323,1_7_1,7,1.0,1389.78843712,1_I,test,02,4,9.0,00110,ignore,1.0,3100.0,1.0484900535
324,1_7_1,7,1.0,1393.38235653,1_I,test,02,4,10.0,01011,kill,0.0,3000.0,1.44328396995
325,1_7_1,7,1.0,1396.61685977,1_I,test,02,4,11.0,10111,kill,1.0,3100.0,1.10702698531
326,1_7_1,7,1.0,1401.10150906,1_I,test,02,4,12.0,11000,kill,0.0,3000.0,2.32143811623
327,1_7_1,7,1.0,1404.52353255,1_I,test,02,4,13.0,00100,kill,0.0,2900.0,1.29318016767
328,1_7_1,7,1.0,1408.41437533,1_I,test,02,4,14.0,10010,ignore,0.0,2800.0,1.74808744762
329,1_7_1,7,1.0,1412.86768771,1_I,test,02,4,15.0,11101,ignore,0.0,2700.0,2.30795469894
330,1_7_1,7,1.0,1416.28976949,1_I,test,02,4,16.0,11111,ignore,0.0,2600.0,1.32355521473
331,1_7_1,7,1.0,1420.99311871,1_I,test,02,4,17.0,10001,ignore,0.0,2500.0,2.55810731312
332,1_7_1,7,1.0,1424.97761631,1_I,test,02,4,18.0,00001,kill,0.0,2400.0,1.7930317614
333,1_7_1,7,1.0,1437.15013541,1_I,test,02,4,19.0,11110,kill,0.0,2300.0,10.0564703284
334,1_7_1,7,1.0,1441.38473719,1_I,test,02,4,20.0,00111,ignore,1.0,2400.0,1.99179598675
335,1_7_1,7,1.0,1444.43171731,1_I,test,02,4,21.0,00011,ignore,1.0,2500.0,0.926146227997
336,1_7_1,7,1.0,1449.96325724,1_I,test,02,4,22.0,01010,kill,0.0,2400.0,3.33798449103
337,1_7_1,7,1.0,1452.69776602,1_I,test,02,4,23.0,00010,ignore,1.0,2500.0,0.590816628563
338,1_7_1,7,1.0,1455.58854312,1_I,test,02,4,24.0,10101,ignore,0.0,2400.0,0.760038770368
339,1_7_1,7,1.0,1459.0887178,1_I,test,02,4,25.0,01000,ignore,1.0,2500.0,1.27334956018
340,1_7_1,7,1.0,1463.65141688,1_I,test,02,4,26.0,01100,ignore,1.0,2600.0,2.40259520067
341,1_7_1,7,1.0,1467.19846577,1_I,test,02,4,27.0,10100,ignore,0.0,2500.0,1.36928199694
342,1_7_1,7,1.0,1470.21425841,1_I,test,02,4,28.0,11010,ignore,1.0,2600.0,0.866371140462
343,1_7_1,7,1.0,1473.44876412,1_I,test,02,4,29.0,01101,kill,0.0,2500.0,1.10319798053
344,1_7_1,7,1.0,1476.68333716,1_I,test,02,4,30.0,11100,kill,0.0,2400.0,1.03142764363
345,1_7_1,7,1.0,1479.93350907,1_I,test,02,4,31.0,00000,ignore,1.0,2500.0,1.15513196252
346,1_7_1,7,1.0,1484.21495098,1_I,test,02,4,32.0,01111,ignore,1.0,2600.0,2.17987085576
347,1_7_1,7,1.0,1487.51197944,1_I,test,02,4,33.0,10011,ignore,0.0,2500.0,1.14463309168
348,1_7_1,7,1.0,1491.41842972,1_I,test,02,4,34.0,00101,kill,0.0,2400.0,1.75329295643
349,1_7_1,7,1.0,1494.2622858,1_I,test,02,4,35.0,10000,ignore,0.0,2300.0,0.697797224086
350,1_7_1,7,1.0,1497.1843214,1_I,test,02,4,36.0,10110,ignore,0.0,2200.0,0.815879757676
351,1_7_1,7,1.0,1500.60638184,1_I,test,02,4,37.0,11011,kill,1.0,2300.0,1.30111733701
352,1_7_1,7,1.0,1503.74715555,1_I,test,02,4,38.0,01011,kill,0.0,2200.0,0.975224159145
353,1_7_1,7,1.0,1508.35676907,1_I,test,02,4,39.0,10101,ignore,0.0,2100.0,2.49140618938
354,1_7_1,7,1.0,1511.59129572,1_I,test,02,4,40.0,00000,kill,0.0,2000.0,1.08212223832
355,1_7_1,7,1.0,1514.60706168,1_I,test,02,4,41.0,11010,ignore,1.0,2100.0,0.860641796542
356,1_7_1,7,1.0,1518.0603876,1_I,test,02,4,42.0,11110,ignore,1.0,2200.0,1.33976002933
357,1_7_1,7,1.0,1521.96680339,1_I,test,02,4,43.0,11101,kill,1.0,2300.0,1.71923669506
358,1_7_1,7,1.0,1525.2637986,1_I,test,02,4,44.0,00011,ignore,1.0,2400.0,1.18542818799
359,1_7_1,7,1.0,1528.54525283,1_I,test,02,4,45.0,00010,ignore,1.0,2500.0,1.10657499279
360,1_7_1,7,1.0,1532.57667431,1_I,test,02,4,46.0,01100,ignore,1.0,2600.0,1.90946602071
361,1_7_1,7,1.0,1536.1706126,1_I,test,02,4,47.0,11001,ignore,0.0,2500.0,1.47861040831
362,1_7_1,7,1.0,1544.60850427,1_I,test,02,4,48.0,10111,ignore,0.0,2400.0,6.29067142442
363,1_7_1,7,1.0,1547.63991673,1_I,test,02,4,49.0,01001,ignore,1.0,2500.0,0.898359566825
364,1_7_1,7,1.0,1550.74944794,1_I,test,02,4,50.0,01101,ignore,1.0,2600.0,0.952149140288
365,1_7_1,7,1.0,1554.20275949,1_I,test,02,4,51.0,11100,kill,0.0,2500.0,1.29980651764
366,1_7_1,7,1.0,1557.60915455,1_I,test,02,4,52.0,00001,ignore,1.0,2600.0,1.28122761333
367,1_7_1,7,1.0,1561.70310906,1_I,test,02,4,53.0,10010,ignore,0.0,2500.0,1.93800682381
368,1_7_1,7,1.0,1565.71895918,1_I,test,02,4,54.0,10000,ignore,0.0,2400.0,1.89971718651
369,1_7_1,7,1.0,1569.31283753,1_I,test,02,4,55.0,01111,ignore,1.0,2500.0,1.45799815344
370,1_7_1,7,1.0,1574.03183653,1_I,test,02,4,56.0,10001,kill,1.0,2600.0,2.55484771218
371,1_7_1,7,1.0,1577.01635917,1_I,test,02,4,57.0,01000,ignore,1.0,2700.0,0.877706259049
372,1_7_1,7,1.0,1580.00088592,1_I,test,02,4,58.0,00111,ignore,1.0,2800.0,0.85386642451
373,1_7_1,7,1.0,1584.11045285,1_I,test,02,4,59.0,10100,kill,1.0,2900.0,1.93668943598
374,1_7_1,7,1.0,1587.01686495,1_I,test,02,4,60.0,01110,ignore,1.0,3000.0,0.769633245629
375,1_7_1,7,1.0,1590.25138256,1_I,test,02,4,61.0,11111,kill,1.0,3100.0,1.1029491999
376,1_7_1,7,1.0,1593.40778018,1_I,test,02,4,62.0,10110,kill,1.0,3200.0,1.06910723471
377,1_7_1,7,1.0,1596.65794717,1_I,test,02,4,63.0,00100,ignore,1.0,3300.0,1.06726601176
378,1_7_1,7,1.0,1599.97058888,1_I,test,02,4,64.0,11000,kill,0.0,3200.0,1.19125318519
379,1_7_1,7,1.0,1603.03321591,1_I,test,02,4,65.0,01010,ignore,1.0,3300.0,0.962763369804
380,1_7_1,7,1.0,1606.95528599,1_I,test,02,4,66.0,11011,kill,1.0,3400.0,1.81160779201
381,1_7_1,7,1.0,1610.58048402,1_I,test,02,4,67.0,10011,kill,1.0,3500.0,1.52749785396
382,1_7_1,7,1.0,1613.51814231,1_I,test,02,4,68.0,00101,ignore,1.0,3600.0,0.743663996724
383,1_7_1,7,1.0,1616.48699218,1_I,test,02,4,69.0,00110,ignore,1.0,3700.0,0.813029864759
384,1_7_1,7,1.0,1619.09651334,1_I,test,02,4,70.0,01010,ignore,1.0,3800.0,0.497946328247
385,1_7_1,7,1.0,1621.81542653,1_I,test,02,4,71.0,01100,ignore,1.0,3900.0,0.562947040515
386,1_7_1,7,1.0,1624.51866122,1_I,test,02,4,72.0,00110,ignore,1.0,4000.0,0.598580144102
387,1_7_1,7,1.0,1627.15940023,1_I,test,02,4,73.0,00100,ignore,1.0,4100.0,0.494137849921
388,1_7_1,7,1.0,1629.8627006,1_I,test,02,4,74.0,01110,ignore,1.0,4200.0,0.545754903462
389,1_7_1,7,1.0,1637.56620952,1_I,test,02,5,0.0,11000,ignore,1.0,4300.0,5.61053598267
390,1_7_1,7,1.0,1640.94132226,1_I,test,02,5,1.0,10100,kill,0.0,4200.0,1.24663396939
391,1_7_1,7,1.0,1645.70722831,1_I,test,02,5,2.0,10111,kill,1.0,4300.0,2.67100034854
392,1_7_1,7,1.0,1648.91047551,1_I,test,02,5,3.0,01011,ignore,1.0,4400.0,1.06552454738
393,1_7_1,7,1.0,1653.27007723,1_I,test,02,5,4.0,11110,kill,1.0,4500.0,2.22501386562
394,1_7_1,7,1.0,1656.45772064,1_I,test,02,5,5.0,00000,ignore,1.0,4600.0,1.06701846272
395,1_7_1,7,1.0,1659.2078636,1_I,test,02,5,6.0,00111,ignore,0.0,4500.0,0.602702266653
396,1_7_1,7,1.0,1664.14563848,1_I,test,02,5,7.0,11011,kill,1.0,4600.0,2.78279357653
397,1_7_1,7,1.0,1667.45824283,1_I,test,02,5,8.0,00010,ignore,0.0,4500.0,1.19283084847
398,1_7_1,7,1.0,1670.73965929,1_I,test,02,5,9.0,10011,kill,1.0,4600.0,1.12091025793
399,1_7_1,7,1.0,1673.94296725,1_I,test,02,5,10.0,00001,ignore,1.0,4700.0,1.0883167117
400,1_7_1,7,1.0,1677.66189687,1_I,test,02,5,11.0,01111,kill,0.0,4600.0,1.54928340096
401,1_7_1,7,1.0,1682.5371379,1_I,test,02,5,12.0,10101,kill,0.0,4500.0,2.739680633
402,1_7_1,7,1.0,1686.0216628,1_I,test,02,5,13.0,10000,kill,0.0,4400.0,1.37640057129
403,1_7_1,7,1.0,1690.22504876,1_I,test,02,5,14.0,10010,kill,1.0,4500.0,2.04853849593
404,1_7_1,7,1.0,1695.24087917,1_I,test,02,5,15.0,00011,kill,1.0,4600.0,2.89715876925
405,1_7_1,7,1.0,1698.66293592,1_I,test,02,5,16.0,00101,ignore,1.0,4700.0,1.23543596752
406,1_7_1,7,1.0,1701.70996818,1_I,test,02,5,17.0,01101,ignore,1.0,4800.0,0.894971470279
407,1_7_1,7,1.0,1711.64796515,1_I,test,02,5,18.0,11010,kill,1.0,4900.0,7.81108847271
408,1_7_1,7,1.0,1716.57002415,1_I,test,02,5,19.0,11101,ignore,1.0,5000.0,2.75320551373
409,1_7_1,7,1.0,1719.24200731,1_I,test,02,5,20.0,11001,ignore,1.0,5100.0,0.566557643826
410,1_7_1,7,1.0,1722.80474169,1_I,test,02,5,21.0,11100,kill,0.0,5000.0,1.43213112628
411,1_7_1,7,1.0,1726.29692378,1_I,test,02,5,22.0,01000,ignore,1.0,5100.0,1.32585335655
412,1_7_1,7,1.0,1729.07466457,1_I,test,02,5,23.0,10001,ignore,1.0,5200.0,0.668652122167
413,1_7_1,7,1.0,1731.79944956,1_I,test,02,5,24.0,01001,ignore,1.0,5300.0,0.645957253248
414,1_7_1,7,1.0,1735.19026915,1_I,test,02,5,25.0,11111,kill,1.0,5400.0,1.23965497493
415,1_7_1,7,1.0,1738.33099523,1_I,test,02,5,26.0,10110,kill,1.0,5500.0,0.956946583188
416,1_7_1,7,1.0,1741.23741184,1_I,test,02,5,27.0,00101,ignore,1.0,5600.0,0.704928524836
417,1_7_1,7,1.0,1743.7062767,1_I,test,02,5,28.0,01001,ignore,1.0,5700.0,0.467456743576
418,1_7_1,7,1.0,1746.70642449,1_I,test,02,5,29.0,01111,kill,0.0,5600.0,0.923799643744
419,1_7_1,7,1.0,1750.14410474,1_I,test,02,5,30.0,10010,kill,1.0,5700.0,1.42407449297
420,1_7_1,7,1.0,1753.20678104,1_I,test,02,5,31.0,01101,ignore,1.0,5800.0,1.04031272464
421,1_7_1,7,1.0,1757.44134258,1_I,test,02,5,32.0,00110,ignore,0.0,5700.0,2.18773700357
422,1_7_1,7,1.0,1763.59789046,1_I,test,02,5,33.0,00001,ignore,1.0,5800.0,4.14147571248
423,1_7_1,7,1.0,1766.37922912,1_I,test,02,5,34.0,11101,ignore,1.0,5900.0,0.646583310107
424,1_7_1,7,1.0,1768.91062289,1_I,test,02,5,35.0,00000,ignore,1.0,6000.0,0.47871345111
425,1_7_1,7,1.0,1771.39509648,1_I,test,02,5,36.0,00100,ignore,1.0,6100.0,0.472187270232
426,1_7_1,7,1.0,1774.55153967,1_I,test,02,5,37.0,11011,kill,1.0,6200.0,1.1138413576
427,1_7_1,7,1.0,1777.91107776,1_I,test,02,5,38.0,10110,kill,1.0,6300.0,1.36299104923
428,1_7_1,7,1.0,1781.03619265,1_I,test,02,5,39.0,11111,ignore,0.0,6200.0,1.12941149424
429,1_7_1,7,1.0,1783.95823441,1_I,test,02,5,40.0,00010,kill,1.0,6300.0,0.836344222069
430,1_7_1,7,1.0,1786.91149773,1_I,test,02,5,41.0,10101,ignore,1.0,6400.0,0.953390990777
431,1_7_1,7,1.0,1789.56789022,1_I,test,02,5,42.0,11100,ignore,1.0,6500.0,0.674587141162
432,1_7_1,7,1.0,1792.48991802,1_I,test,02,5,43.0,10011,kill,1.0,6600.0,0.937513367855
433,1_7_1,7,1.0,1795.55257831,1_I,test,02,5,44.0,10000,ignore,1.0,6700.0,1.02879122585
434,1_7_1,7,1.0,1798.20892318,1_I,test,02,5,45.0,10001,ignore,1.0,6800.0,0.604960997684
435,1_7_1,7,1.0,1800.69340867,1_I,test,02,5,46.0,01100,ignore,1.0,6900.0,0.511398545332
436,1_7_1,7,1.0,1803.0841794,1_I,test,02,5,47.0,11000,ignore,1.0,7000.0,0.39704074214
437,1_7_1,7,1.0,1806.42806237,1_I,test,02,5,48.0,00111,kill,1.0,7100.0,1.2755249538
438,1_7_1,7,1.0,1809.36571368,1_I,test,02,5,49.0,00011,kill,1.0,7200.0,0.860301467928
439,1_7_1,7,1.0,1812.30337771,1_I,test,02,6,0.0,11010,kill,1.0,7300.0,0.920238303923
440,1_7_1,7,1.0,1815.17849723,1_I,test,02,6,1.0,10111,kill,0.0,7200.0,0.870730548824
441,1_7_1,7,1.0,1818.41306575,1_I,test,02,6,2.0,11001,ignore,1.0,7300.0,1.1274081123
442,1_7_1,7,1.0,1821.1163189,1_I,test,02,6,3.0,01000,ignore,0.0,7200.0,0.677021168111
443,1_7_1,7,1.0,1824.33521424,1_I,test,02,6,4.0,10100,ignore,0.0,7100.0,1.18444825507
444,1_7_1,7,1.0,1829.21050166,1_I,test,02,6,5.0,11110,kill,0.0,7000.0,2.8328259878
445,1_7_1,7,1.0,1832.53874922,1_I,test,02,6,6.0,01011,ignore,1.0,7100.0,1.31369102185
446,1_7_1,7,1.0,1836.50767505,1_I,test,02,6,7.0,01110,ignore,1.0,7200.0,1.85964133716
447,1_7_1,7,1.0,1839.5703378,1_I,test,02,6,8.0,01010,ignore,0.0,7100.0,0.996441533884
448,1_7_1,7,1.0,1842.9923539,1_I,test,02,6,9.0,10011,kill,0.0,7000.0,1.39453158836
449,1_7_1,7,1.0,1846.64880961,1_I,test,02,6,10.0,10110,ignore,1.0,7100.0,1.60280161469
450,1_7_1,7,1.0,1850.14896705,1_I,test,02,6,11.0,11110,ignore,1.0,7200.0,1.50893988664
451,1_7_1,7,1.0,1853.10227881,1_I,test,02,6,12.0,01010,ignore,0.0,7100.0,0.912331924261
452,1_7_1,7,1.0,1855.82113001,1_I,test,02,6,13.0,00100,ignore,0.0,7000.0,0.63531387617
453,1_7_1,7,1.0,1864.91531319,1_I,test,02,6,14.0,10001,ignore,1.0,7100.0,7.09635569225
454,1_7_1,7,1.0,1868.3044574,1_I,test,02,6,15.0,00000,kill,1.0,7200.0,1.20283462123
455,1_7_1,7,1.0,1871.46086857,1_I,test,02,6,16.0,00101,kill,0.0,7100.0,1.06740271795
456,1_7_1,7,1.0,1875.60490886,1_I,test,02,6,17.0,01000,ignore,0.0,7000.0,2.09720138217
457,1_7_1,7,1.0,1879.10894498,1_I,test,02,6,18.0,01101,kill,0.0,6900.0,1.47019415152
458,1_7_1,7,1.0,1889.97196702,1_I,test,02,6,19.0,00010,ignore,0.0,6800.0,8.85729762661
459,1_7_1,7,1.0,1893.50344044,1_I,test,02,6,20.0,01110,ignore,1.0,6900.0,1.36844287549
460,1_7_1,7,1.0,1896.36298489,1_I,test,02,6,21.0,01111,ignore,1.0,7000.0,0.716796099645
461,1_7_1,7,1.0,1899.84749748,1_I,test,02,6,22.0,10000,kill,1.0,7100.0,1.35602313906
462,1_7_1,7,1.0,1902.75387016,1_I,test,02,6,23.0,11101,ignore,1.0,7200.0,0.733214389373
463,1_7_1,7,1.0,1905.95714241,1_I,test,02,6,24.0,10111,ignore,1.0,7300.0,1.0849885524
464,1_7_1,7,1.0,1909.48865277,1_I,test,02,6,25.0,10010,kill,1.0,7400.0,1.38722170746
465,1_7_1,7,1.0,1912.53559472,1_I,test,02,6,26.0,00110,ignore,1.0,7500.0,0.89751305585
466,1_7_1,7,1.0,1915.39509155,1_I,test,02,6,27.0,00001,kill,0.0,7400.0,0.722672002452
467,1_7_1,7,1.0,1919.19221177,1_I,test,02,6,28.0,00111,ignore,1.0,7500.0,1.54923619011
468,1_7_1,7,1.0,1922.11418128,1_I,test,02,6,29.0,11001,ignore,1.0,7600.0,0.842737802053
469,1_7_1,7,1.0,1925.14560235,1_I,test,02,6,30.0,11100,ignore,0.0,7500.0,0.91921074962
470,1_7_1,7,1.0,1928.30198684,1_I,test,02,6,31.0,01100,kill,1.0,7600.0,1.02418139474
471,1_7_1,7,1.0,1932.64593262,1_I,test,02,6,32.0,00011,kill,0.0,7500.0,2.22790152721
472,1_7_1,7,1.0,1939.9119489,1_I,test,02,6,33.0,11011,ignore,1.0,7600.0,5.14559372974
473,1_7_1,7,1.0,1943.03710157,1_I,test,02,6,34.0,11111,kill,0.0,7500.0,1.04964815604
474,1_7_1,7,1.0,1948.17797873,1_I,test,02,6,35.0,11000,kill,1.0,7600.0,2.98465811753
475,1_7_1,7,1.0,1951.38124358,1_I,test,02,6,36.0,11010,kill,1.0,7700.0,1.07515432815
476,1_7_1,7,1.0,1954.25639389,1_I,test,02,6,37.0,01011,kill,0.0,7600.0,0.784017774266
477,1_7_1,7,1.0,1958.27220747,1_I,test,02,6,38.0,10100,ignore,0.0,7500.0,1.9149437103
478,1_7_1,7,1.0,1967.28832115,1_I,test,02,6,39.0,10101,kill,0.0,7400.0,6.87157377557
479,1_7_1,7,1.0,1977.19502225,1_I,test,02,6,40.0,01001,kill,0.0,7300.0,7.75302898623
480,1_7_1,7,1.0,1980.71082413,1_I,test,02,6,41.0,00011,ignore,1.0,7400.0,1.36593864807
481,1_7_1,7,1.0,1984.60158193,1_I,test,02,6,42.0,01110,kill,0.0,7300.0,1.72583184482
482,1_7_1,7,1.0,1987.91427085,1_I,test,02,6,43.0,01011,ignore,1.0,7400.0,1.13634122521
483,1_7_1,7,1.0,1991.13319739,1_I,test,02,6,44.0,01111,ignore,1.0,7500.0,0.980341814728
484,1_7_1,7,1.0,1995.30526122,1_I,test,02,6,45.0,00001,kill,0.0,7400.0,2.04001344894
485,1_7_1,7,1.0,2015.00935185,1_I,test,02,6,46.0,11110,ignore,1.0,7500.0,17.5574976774
486,1_7_1,7,1.0,2018.46265273,1_I,test,02,6,47.0,00100,ignore,0.0,7400.0,1.33637029067
487,1_7_1,7,1.0,2022.41598789,1_I,test,02,6,48.0,10001,kill,0.0,7300.0,1.74934243504
488,1_7_1,7,1.0,2033.99469022,1_I,test,02,6,49.0,00110,ignore,1.0,7400.0,9.38899478258
489,1_7_1,7,1.0,2038.72931477,1_I,test,02,6,50.0,10101,ignore,1.0,7500.0,2.58994302267
490,1_7_1,7,1.0,2041.57948603,1_I,test,02,6,51.0,10000,ignore,0.0,7400.0,0.674342465823
491,1_7_1,7,1.0,2047.42350673,1_I,test,02,6,52.0,01000,ignore,0.0,7300.0,3.76387064885
492,1_7_1,7,1.0,2061.58046473,1_I,test,02,6,53.0,00010,ignore,0.0,7200.0,12.0184791457
493,1_7_1,7,1.0,2066.03374426,1_I,test,02,6,54.0,01001,ignore,1.0,7300.0,2.32382329022
494,1_7_1,7,1.0,2069.22140326,1_I,test,02,6,55.0,10010,kill,1.0,7400.0,1.08567577809
495,1_7_1,7,1.0,2072.0653472,1_I,test,02,6,56.0,11111,ignore,1.0,7500.0,0.730047157478
496,1_7_1,7,1.0,2075.31550515,1_I,test,02,6,57.0,00101,ignore,1.0,7600.0,1.10488484454
497,1_7_1,7,1.0,2078.1281446,1_I,test,02,6,58.0,00000,kill,1.0,7700.0,0.670060236931
498,1_7_1,7,1.0,2081.08136358,1_I,test,02,6,59.0,10100,kill,1.0,7800.0,0.788869407002
499,1_7_1,7,1.0,2083.84711035,1_I,test,02,6,60.0,01101,ignore,1.0,7900.0,0.689585000251
500,1_7_1,7,1.0,2087.01921605,1_I,test,02,6,61.0,10111,ignore,1.0,8000.0,1.00865231101
501,1_7_1,7,1.0,2090.08186319,1_I,test,02,6,62.0,01010,kill,1.0,8100.0,0.928484601671
502,1_7_1,7,1.0,2093.06630948,1_I,test,02,6,63.0,01100,kill,1.0,8200.0,0.867797318504
503,1_7_1,7,1.0,2096.12900055,1_I,test,02,7,0.0,11011,ignore,0.0,8100.0,0.935385595603
504,1_7_1,7,1.0,2099.36348902,1_I,test,02,7,1.0,10011,kill,1.0,8200.0,1.17513170799
505,1_7_1,7,1.0,2102.59807807,1_I,test,02,7,2.0,11001,ignore,0.0,8100.0,1.07897183812
506,1_7_1,7,1.0,2105.78569355,1_I,test,02,7,3.0,11000,ignore,1.0,8200.0,1.05370705712
507,1_7_1,7,1.0,2108.69209744,1_I,test,02,7,4.0,10110,ignore,0.0,8100.0,0.815619482233
508,1_7_1,7,1.0,2113.69235073,1_I,test,02,7,5.0,00111,kill,0.0,8000.0,2.86905969545
509,1_7_1,7,1.0,2120.41136205,1_I,test,02,7,6.0,11010,kill,0.0,7900.0,4.63811327401
510,1_7_1,7,1.0,2123.58346364,1_I,test,02,7,7.0,11101,kill,1.0,8000.0,1.00277969244
511,1_7_1,7,1.0,2126.56804171,1_I,test,02,7,8.0,11100,ignore,1.0,8100.0,0.82870181261
512,1_7_1,7,1.0,2130.69312869,1_I,test,02,7,9.0,00101,kill,0.0,8000.0,1.98508876255
513,1_7_1,7,1.0,2135.70906543,1_I,test,02,7,10.0,11010,ignore,1.0,8100.0,2.86663716331
514,1_7_1,7,1.0,2138.59982117,1_I,test,02,7,11.0,01011,ignore,1.0,8200.0,0.80041964283
515,1_7_1,7,1.0,2143.49071116,1_I,test,02,7,12.0,11000,kill,0.0,8100.0,2.76129457884
516,1_7_1,7,1.0,2147.10027296,1_I,test,02,7,13.0,11110,ignore,1.0,8200.0,1.47863339794
517,1_7_1,7,1.0,2150.28785273,1_I,test,02,7,14.0,11001,kill,1.0,8300.0,1.10187771899
518,1_7_1,7,1.0,2153.45993175,1_I,test,02,7,15.0,01110,ignore,1.0,8400.0,1.05076315304
519,1_7_1,7,1.0,2156.55385218,1_I,test,02,7,16.0,11101,ignore,0.0,8300.0,0.954686620571
