,unique_id,pair_id,sbj_id,wall_time,condition,block,rule_id,rule_num,trial,stimulus,choice,correct,points,reaction_time
0,3_41_1,41,1.0,34.5449079451,3_D,training,01,1_A,1.0,10100,,,0.0,
1,3_41_1,41,1.0,40.078867499,3_D,training,01,1_A,2.0,11101,ignore,1.0,100.0,3.41828445783
2,3_41_1,41,1.0,43.8031231385,3_D,training,01,1_A,3.0,11110,ignore,0.0,0.0,1.54234131935
3,3_41_1,41,1.0,46.7435229853,3_D,training,01,1_A,4.0,01101,ignore,1.0,100.0,0.807814661049
4,3_41_1,41,1.0,49.4155429468,3_D,training,01,1_A,5.0,10000,ignore,1.0,200.0,0.519903870588
5,3_41_1,41,1.0,52.0406768305,3_D,training,01,1_A,6.0,01000,ignore,1.0,300.0,0.48169431783
6,3_41_1,41,1.0,55.0564542714,3_D,training,01,1_A,7.0,00011,kill,1.0,400.0,0.878563543487
7,3_41_1,41,1.0,57.7596924811,3_D,training,01,1_A,8.0,01011,kill,1.0,500.0,0.572621919854
8,3_41_1,41,1.0,60.4317333796,3_D,training,01,1_A,9.0,11010,kill,0.0,400.0,0.565137980765
9,3_41_1,41,1.0,63.2756552757,3_D,training,01,1_A,10.0,10110,kill,1.0,500.0,0.714940742228
10,3_41_1,41,1.0,66.697645166,3_D,training,01,1_A,11.0,00010,ignore,0.0,400.0,1.28184112291
11,3_41_1,41,1.0,69.7133881225,3_D,training,01,1_A,12.0,01110,kill,1.0,500.0,0.895376337862
12,3_41_1,41,1.0,72.5103997195,3_D,training,01,1_A,13.0,01100,ignore,1.0,600.0,0.632629317582
13,3_41_1,41,1.0,75.8074345114,3_D,training,01,1_A,14.0,10010,ignore,1.0,700.0,1.15894113141
14,3_41_1,41,1.0,79.1076373537,3_D,training,01,1_A,15.0,00100,ignore,1.0,800.0,1.17360439726
15,3_41_1,41,1.0,81.7828787343,3_D,training,01,1_A,16.0,00101,ignore,1.0,900.0,0.598758232641
16,3_41_1,41,1.0,84.37672458,3_D,training,01,1_A,17.0,11001,ignore,1.0,1000.0,0.487129718464
17,3_41_1,41,1.0,88.5487935997,3_D,training,01,1_A,18.0,01010,ignore,0.0,900.0,2.06901891429
18,3_41_1,41,1.0,92.1739968627,3_D,training,01,1_A,19.0,00111,kill,1.0,1000.0,1.48571257322
19,3_41_1,41,1.0,94.942901609,3_D,training,01,1_A,20.0,11000,ignore,1.0,1100.0,0.658540660615
20,3_41_1,41,1.0,98.2242808871,3_D,training,01,1_A,21.0,01001,ignore,1.0,1200.0,1.12999351775
21,3_41_1,41,1.0,101.193149671,3_D,training,01,1_A,22.0,10101,ignore,1.0,1300.0,0.824546170732
22,3_41_1,41,1.0,104.037067462,3_D,training,01,1_A,23.0,11100,ignore,1.0,1400.0,0.722605313966
23,3_41_1,41,1.0,107.130984945,3_D,training,01,1_A,24.0,11111,kill,1.0,1500.0,0.985844147687
24,3_41_1,41,1.0,112.599966419,3_D,training,01,1_A,25.0,10011,kill,0.0,1400.0,3.33895593508
25,3_41_1,41,1.0,117.053362169,3_D,training,01,1_A,26.0,00110,kill,1.0,1500.0,2.33572261065
26,3_41_1,41,1.0,120.022343438,3_D,training,01,1_A,27.0,00000,ignore,1.0,1600.0,0.866936548266
27,3_41_1,41,1.0,125.381891084,3_D,training,01,1_A,28.0,10111,kill,1.0,1700.0,3.24141348332
28,3_41_1,41,1.0,128.444532845,3_D,training,01,1_A,29.0,10001,ignore,1.0,1800.0,0.943770698346
29,3_41_1,41,1.0,131.897793942,3_D,training,01,1_A,30.0,01111,kill,1.0,1900.0,1.34513192957
30,3_41_1,41,1.0,134.679179172,3_D,training,01,1_A,31.0,00001,ignore,1.0,2000.0,0.6580763526
31,3_41_1,41,1.0,138.241865886,3_D,training,01,1_A,32.0,11011,kill,0.0,1900.0,1.43388496081
32,3_41_1,41,1.0,141.226389773,3_D,training,01,1_A,33.0,11100,ignore,1.0,2000.0,0.84050465478
33,3_41_1,41,1.0,144.242134782,3_D,training,01,1_A,34.0,10001,ignore,1.0,2100.0,0.838977077306
34,3_41_1,41,1.0,148.726712244,3_D,training,01,1_A,35.0,01111,kill,1.0,2200.0,2.36739202991
35,3_41_1,41,1.0,151.617497228,3_D,training,01,1_A,36.0,00011,ignore,0.0,2100.0,0.772923001638
36,3_41_1,41,1.0,154.945777363,3_D,training,01,1_A,37.0,10111,kill,1.0,2200.0,1.16036484511
37,3_41_1,41,1.0,157.77398545,3_D,training,01,1_A,38.0,00110,kill,1.0,2300.0,0.693617057962
38,3_41_1,41,1.0,160.680403369,3_D,training,01,1_A,39.0,10011,kill,0.0,2200.0,0.787066948618
39,3_41_1,41,1.0,165.961927153,3_D,training,01,1_A,40.0,00111,kill,1.0,2300.0,3.05494393614
40,3_41_1,41,1.0,168.852677653,3_D,training,01,1_A,41.0,00000,ignore,1.0,2400.0,0.733956023339
41,3_41_1,41,1.0,172.134131648,3_D,training,01,1_A,42.0,01010,kill,1.0,2500.0,1.15087752573
42,3_41_1,41,1.0,176.41552242,3_D,training,01,1_A,43.0,11110,kill,1.0,2600.0,2.12775736766
43,3_41_1,41,1.0,179.275094493,3_D,training,01,1_A,44.0,01001,ignore,1.0,2700.0,0.700963880449
44,3_41_1,41,1.0,183.322206362,3_D,training,01,1_A,45.0,01011,kill,1.0,2800.0,1.94769494266
45,3_41_1,41,1.0,186.21290062,3_D,training,01,1_A,46.0,01101,ignore,1.0,2900.0,0.727418763545
46,3_41_1,41,1.0,189.400570553,3_D,training,01,1_A,47.0,10101,ignore,1.0,3000.0,1.06261384475
47,3_41_1,41,1.0,193.041323413,3_D,training,01,1_A,48.0,10100,ignore,1.0,3100.0,1.48696920172
48,3_41_1,41,1.0,195.82274436,3_D,training,01,1_A,49.0,11101,ignore,1.0,3200.0,0.636107317141
49,3_41_1,41,1.0,198.447865517,3_D,training,01,1_A,50.0,01100,ignore,1.0,3300.0,0.503959344517
50,3_41_1,41,1.0,202.448072424,3_D,training,01,1_A,51.0,00010,kill,1.0,3400.0,1.85005478506
51,3_41_1,41,1.0,207.135798805,3_D,training,01,1_A,52.0,10110,kill,1.0,3500.0,2.5568403737
52,3_41_1,41,1.0,209.839046457,3_D,training,01,1_A,53.0,01110,kill,1.0,3600.0,0.573237712977
53,3_41_1,41,1.0,212.698516308,3_D,training,01,1_A,54.0,00001,ignore,1.0,3700.0,0.716038496102
54,3_41_1,41,1.0,215.792408338,3_D,training,01,1_A,55.0,11000,ignore,1.0,3800.0,0.869577479707
55,3_41_1,41,1.0,219.714506403,3_D,training,01,1_A,56.0,11010,kill,0.0,3700.0,1.69994289545
56,3_41_1,41,1.0,222.714664456,3_D,training,01,1_A,57.0,11001,ignore,1.0,3800.0,0.726092755687
57,3_41_1,41,1.0,225.496029982,3_D,training,01,1_A,58.0,10000,ignore,1.0,3900.0,0.651727525501
58,3_41_1,41,1.0,228.652427477,3_D,training,01,1_A,59.0,10010,kill,0.0,3800.0,1.05335642147
59,3_41_1,41,1.0,231.449432095,3_D,training,01,1_A,60.0,00101,ignore,1.0,3900.0,0.632230283639
60,3_41_1,41,1.0,234.777806241,3_D,training,01,1_A,61.0,11011,kill,0.0,3800.0,1.20505089941
61,3_41_1,41,1.0,237.809123016,3_D,training,01,1_A,62.0,11111,kill,1.0,3900.0,0.902794181822
62,3_41_1,41,1.0,240.621758516,3_D,training,01,1_A,63.0,01000,ignore,1.0,4000.0,0.712484959253
63,3_41_1,41,1.0,243.575037882,3_D,training,01,1_A,64.0,00100,ignore,1.0,4100.0,0.820969233744
64,3_41_1,41,1.0,246.309560435,3_D,training,01,1_A,65.0,00001,ignore,1.0,4200.0,0.603615198267
65,3_41_1,41,1.0,250.169066412,3_D,training,01,1_A,66.0,10011,ignore,1.0,4300.0,1.71900210314
66,3_41_1,41,1.0,253.122356862,3_D,training,01,1_A,67.0,10101,ignore,1.0,4400.0,0.811875200902
67,3_41_1,41,1.0,255.700613289,3_D,training,01,1_A,68.0,00101,ignore,1.0,4500.0,0.454031659156
68,3_41_1,41,1.0,258.310110543,3_D,training,01,1_A,69.0,11000,ignore,1.0,4600.0,0.469720425817
69,3_41_1,41,1.0,261.185217845,3_D,training,01,1_A,70.0,11100,ignore,1.0,4700.0,0.757847975457
70,3_41_1,41,1.0,263.779155239,3_D,training,01,1_A,71.0,00000,ignore,1.0,4800.0,0.43961758426
71,3_41_1,41,1.0,266.247995491,3_D,training,01,1_A,72.0,10000,ignore,1.0,4900.0,0.349350522993
72,3_41_1,41,1.0,270.451332022,3_D,training,01,1_A,73.0,01111,kill,1.0,5000.0,2.06643135159
73,3_41_1,41,1.0,273.982744656,3_D,training,01,1_A,74.0,11110,kill,1.0,5100.0,1.38311774416
74,3_41_1,41,1.0,277.201620521,3_D,training,01,1_A,75.0,01110,kill,1.0,5200.0,1.11328007133
75,3_41_1,41,1.0,279.936145948,3_D,training,01,1_A,76.0,01000,ignore,1.0,5300.0,0.604334444635
76,3_41_1,41,1.0,283.405065022,3_D,training,01,1_A,77.0,10010,ignore,1.0,5400.0,1.35757834017
77,3_41_1,41,1.0,286.155199162,3_D,training,01,1_A,78.0,00100,ignore,1.0,5500.0,0.546798840503
78,3_41_1,41,1.0,288.842778163,3_D,training,01,1_A,79.0,01001,ignore,1.0,5600.0,0.437725046728
79,3_41_1,41,1.0,293.405574488,3_D,training,01,1_A,80.0,10110,kill,1.0,5700.0,2.30285773167
80,3_41_1,41,1.0,296.843194029,3_D,training,01,1_A,81.0,00111,ignore,0.0,5600.0,1.30770197091
81,3_41_1,41,1.0,302.546622313,3_D,training,01,1_A,82.0,01100,ignore,1.0,5700.0,3.47784355817
82,3_41_1,41,1.0,310.593888541,3_D,training,01,1_A,83.0,00011,ignore,0.0,5600.0,5.78913601351
83,3_41_1,41,1.0,315.594088879,3_D,training,01,1_A,84.0,01010,kill,1.0,5700.0,2.9152873927
84,3_41_1,41,1.0,320.672455943,3_D,training,01,1_A,85.0,11101,ignore,1.0,5800.0,2.97073094233
85,3_41_1,41,1.0,324.547657667,3_D,training,01,1_A,86.0,10001,ignore,1.0,5900.0,1.76282768918
86,3_41_1,41,1.0,329.485395645,3_D,training,01,1_A,87.0,11111,ignore,0.0,5800.0,2.80284767372
87,3_41_1,41,1.0,336.454512388,3_D,training,01,1_A,88.0,11011,kill,0.0,5700.0,4.85716924828
88,3_41_1,41,1.0,341.142201001,3_D,training,01,1_A,89.0,10111,kill,1.0,5800.0,2.57564833779
89,3_41_1,41,1.0,344.251739513,3_D,training,01,1_A,90.0,11010,kill,0.0,5700.0,0.918456674643
90,3_41_1,41,1.0,348.173794472,3_D,training,01,1_A,91.0,01011,kill,1.0,5800.0,1.7797796528
91,3_41_1,41,1.0,351.361436079,3_D,training,01,1_A,92.0,11001,ignore,1.0,5900.0,1.06086827651
92,3_41_1,41,1.0,354.783487959,3_D,training,01,1_A,93.0,10100,ignore,1.0,6000.0,1.27617459459
93,3_41_1,41,1.0,357.549218907,3_D,training,01,1_A,94.0,01101,ignore,1.0,6100.0,0.639738443924
94,3_41_1,41,1.0,362.174457887,3_D,training,01,1_A,95.0,00010,kill,1.0,6200.0,2.46753600234
95,3_41_1,41,1.0,365.409002813,3_D,training,01,1_A,96.0,00110,kill,1.0,6300.0,1.07926981715
96,3_41_1,41,1.0,368.502883349,3_D,training,01,1_A,97.0,00101,ignore,1.0,6400.0,0.962277334338
97,3_41_1,41,1.0,371.3311875,3_D,training,01,1_A,98.0,00000,ignore,1.0,6500.0,0.678749759328
98,3_41_1,41,1.0,378.050229424,3_D,training,01,1_A,99.0,11010,kill,0.0,6400.0,4.60149153305
99,3_41_1,41,1.0,380.956642006,3_D,training,01,1_A,100.0,00001,ignore,1.0,6500.0,0.748878743355
100,3_41_1,41,1.0,384.675529572,3_D,training,01,1_A,101.0,11011,kill,0.0,6400.0,1.59637798696
101,3_41_1,41,1.0,387.660085891,3_D,training,01,1_A,102.0,10111,kill,1.0,6500.0,0.859289218735
102,3_41_1,41,1.0,390.472688138,3_D,training,01,1_A,103.0,11000,ignore,1.0,6600.0,0.704372090121
103,3_41_1,41,1.0,393.910374185,3_D,training,01,1_A,104.0,00111,kill,1.0,6700.0,1.29935427933
104,3_41_1,41,1.0,396.910551533,3_D,training,01,1_A,105.0,00100,ignore,1.0,6800.0,0.828767637855
105,3_41_1,41,1.0,399.863767677,3_D,training,01,1_A,106.0,11001,ignore,1.0,6900.0,0.82337534274
106,3_41_1,41,1.0,403.254568877,3_D,training,01,1_A,107.0,01010,ignore,0.0,6800.0,1.2643924195
107,3_41_1,41,1.0,406.207844958,3_D,training,01,1_A,108.0,01000,ignore,1.0,6900.0,0.865707835721
108,3_41_1,41,1.0,409.567379057,3_D,training,01,1_A,109.0,01011,ignore,0.0,6800.0,1.25331922757
109,3_41_1,41,1.0,413.426950309,3_D,training,01,1_A,110.0,01110,kill,1.0,6900.0,1.7170295125
110,3_41_1,41,1.0,416.223934811,3_D,training,01,1_A,111.0,11101,ignore,1.0,7000.0,0.684642488986
111,3_41_1,41,1.0,419.411595302,3_D,training,01,1_A,112.0,10110,kill,1.0,7100.0,1.05603594261
112,3_41_1,41,1.0,422.536738012,3_D,training,01,1_A,113.0,01111,kill,1.0,7200.0,0.969172575202
113,3_41_1,41,1.0,425.536866918,3_D,training,01,1_A,114.0,10010,kill,0.0,7100.0,0.879769676951
114,3_41_1,41,1.0,428.365175585,3_D,training,01,1_A,115.0,01100,ignore,1.0,7200.0,0.699077911377
115,3_41_1,41,1.0,431.271550399,3_D,training,01,1_A,116.0,00011,kill,1.0,7300.0,0.786263133328
116,3_41_1,41,1.0,433.959183179,3_D,training,01,1_A,117.0,10100,ignore,1.0,7400.0,0.550564620715
117,3_41_1,41,1.0,437.334322297,3_D,training,01,1_A,118.0,10011,kill,0.0,7300.0,1.25092543443
118,3_41_1,41,1.0,440.131357294,3_D,training,01,1_A,119.0,01101,ignore,1.0,7400.0,0.646603716188
119,3_41_1,41,1.0,443.272130476,3_D,training,01,1_A,120.0,11110,kill,1.0,7500.0,0.989093072204
120,3_41_1,41,1.0,446.787936859,3_D,training,01,1_A,121.0,00010,kill,1.0,7600.0,1.40571529913
121,3_41_1,41,1.0,449.788070281,3_D,training,01,1_A,122.0,11111,kill,1.0,7700.0,0.898995148782
122,3_41_1,41,1.0,452.647600069,3_D,training,01,1_A,123.0,00110,kill,1.0,7800.0,0.762311244013
123,3_41_1,41,1.0,455.444588677,3_D,training,01,1_A,124.0,10001,ignore,1.0,7900.0,0.687939855896
124,3_41_1,41,1.0,458.366612436,3_D,training,01,1_A,125.0,10101,ignore,1.0,8000.0,0.755965701144
125,3_41_1,41,1.0,461.038615155,3_D,training,01,1_A,126.0,10000,ignore,1.0,8100.0,0.578588955217
126,3_41_1,41,1.0,463.757453047,3_D,training,01,1_A,127.0,11100,ignore,1.0,8200.0,0.504044734497
127,3_41_1,41,1.0,466.288909607,3_D,training,01,1_A,128.0,01001,ignore,1.0,8300.0,0.400149760888
128,3_41_1,41,1.0,469.585941936,3_D,training,01,1_A,129.0,01011,kill,1.0,8400.0,1.14566586326
129,3_41_1,41,1.0,472.523540745,3_D,training,01,1_A,130.0,01100,ignore,1.0,8500.0,0.793879673203
130,3_41_1,41,1.0,475.586220685,3_D,training,01,1_A,131.0,10011,ignore,1.0,8600.0,0.953704262479
131,3_41_1,41,1.0,478.711323984,3_D,training,01,1_A,132.0,10100,ignore,1.0,8700.0,0.904696572044
132,3_41_1,41,1.0,481.230226575,3_D,training,01,1_A,133.0,11110,ignore,0.0,8600.0,0.415912422723
133,3_41_1,41,1.0,484.186675222,3_D,training,01,1_A,134.0,01101,ignore,1.0,8700.0,0.777052510322
134,3_41_1,41,1.0,488.343100223,3_D,training,01,1_A,135.0,11000,ignore,1.0,8800.0,2.05863253695
135,3_41_1,41,1.0,491.327617131,3_D,training,01,1_A,136.0,00110,kill,1.0,8900.0,0.893095850663
136,3_41_1,41,1.0,494.265255351,3_D,training,01,1_A,137.0,11101,ignore,1.0,9000.0,0.760527907129
137,3_41_1,41,1.0,496.968527224,3_D,training,01,1_A,138.0,11001,ignore,1.0,9100.0,0.56447702948
138,3_41_1,41,1.0,499.984307128,3_D,training,01,1_A,139.0,00001,ignore,1.0,9200.0,0.8814725502
139,3_41_1,41,1.0,504.687643865,3_D,training,01,1_A,140.0,11010,ignore,1.0,9300.0,2.58293440202
140,3_41_1,41,1.0,507.406518704,3_D,training,01,1_A,141.0,01001,ignore,1.0,9400.0,0.605367745495
141,3_41_1,41,1.0,512.078631445,3_D,training,01,1_A,142.0,10010,kill,0.0,9300.0,2.51710324346
142,3_41_1,41,1.0,514.875635652,3_D,training,01,1_A,143.0,10101,ignore,1.0,9400.0,0.627207874927
143,3_41_1,41,1.0,518.766422279,3_D,training,01,1_A,144.0,01111,kill,1.0,9500.0,1.77150339323
144,3_41_1,41,1.0,522.219751113,3_D,training,01,1_A,145.0,00010,ignore,0.0,9400.0,1.32675214696
145,3_41_1,41,1.0,525.126126337,3_D,training,01,1_A,146.0,00100,ignore,1.0,9500.0,0.711615869892
146,3_41_1,41,1.0,528.141875862,3_D,training,01,1_A,147.0,10110,kill,1.0,9600.0,0.896945789268
147,3_41_1,41,1.0,530.90766059,3_D,training,01,1_A,148.0,00101,ignore,1.0,9700.0,0.590540268149
148,3_41_1,41,1.0,533.939052491,3_D,training,01,1_A,149.0,10111,kill,1.0,9800.0,0.924997629196
149,3_41_1,41,1.0,536.861040124,3_D,training,01,1_A,150.0,01110,kill,1.0,9900.0,0.798480468889
150,3_41_1,41,1.0,540.158125,3_D,training,01,1_A,151.0,11111,kill,1.0,10000.0,1.19503399794
151,3_41_1,41,1.0,543.861398926,3_D,training,01,1_A,152.0,00111,kill,1.0,10100.0,1.58760991394
152,3_41_1,41,1.0,548.48665761,3_D,training,01,1_A,153.0,01010,ignore,0.0,10000.0,2.51694601095
153,3_41_1,41,1.0,551.939892844,3_D,training,01,1_A,154.0,10001,ignore,1.0,10100.0,1.32016808689
154,3_41_1,41,1.0,555.377561238,3_D,training,01,1_A,155.0,10000,ignore,1.0,10200.0,1.30098859428
155,3_41_1,41,1.0,558.424577453,3_D,training,01,1_A,156.0,00000,ignore,1.0,10300.0,0.901645932912
156,3_41_1,41,1.0,561.19034617,3_D,training,01,1_A,157.0,11100,ignore,1.0,10400.0,0.642087078895
157,3_41_1,41,1.0,564.04989279,3_D,training,01,1_A,158.0,01000,ignore,1.0,10500.0,0.721950110083
158,3_41_1,41,1.0,566.518779843,3_D,training,01,1_A,159.0,11011,ignore,1.0,10600.0,0.338856587118
159,3_41_1,41,1.0,569.112622404,3_D,training,01,1_A,160.0,00011,ignore,0.0,10500.0,0.481424600443
160,3_41_1,41,1.0,571.831497654,3_D,training,01,1_A,161.0,01001,ignore,1.0,10600.0,0.589979896407
161,3_41_1,41,1.0,574.722218185,3_D,training,01,1_A,162.0,00001,ignore,1.0,10700.0,0.776093925694
162,3_41_1,41,1.0,577.175497756,3_D,training,01,1_A,163.0,00011,ignore,0.0,10600.0,0.323740508062
163,3_41_1,41,1.0,579.785074242,3_D,training,01,1_A,164.0,11100,ignore,1.0,10700.0,0.498778471708
164,3_41_1,41,1.0,583.003910697,3_D,training,01,1_A,165.0,10010,kill,0.0,10600.0,1.08780799406
165,3_41_1,41,1.0,585.738395071,3_D,training,01,1_A,166.0,11000,ignore,1.0,10700.0,0.604719110072
166,3_41_1,41,1.0,588.441650523,3_D,training,01,1_A,167.0,10101,ignore,1.0,10800.0,0.571815641392
167,3_41_1,41,1.0,591.566810885,3_D,training,01,1_A,168.0,10111,kill,1.0,10900.0,1.00847823972
168,3_41_1,41,1.0,595.410763571,3_D,training,01,1_A,169.0,01011,ignore,0.0,10800.0,1.71892081845
169,3_41_1,41,1.0,598.567121245,3_D,training,01,1_A,170.0,11011,kill,0.0,10700.0,1.04315478206
170,3_41_1,41,1.0,601.536046682,3_D,training,01,1_A,171.0,00111,ignore,0.0,10600.0,0.844320108971
171,3_41_1,41,1.0,604.161139513,3_D,training,01,1_A,172.0,01000,ignore,1.0,10700.0,0.51201597121
172,3_41_1,41,1.0,606.723816784,3_D,training,01,1_A,173.0,01101,ignore,1.0,10800.0,0.411094457328
173,3_41_1,41,1.0,609.880201143,3_D,training,01,1_A,174.0,10011,kill,0.0,10700.0,1.02457178773
174,3_41_1,41,1.0,612.942856861,3_D,training,01,1_A,175.0,11001,ignore,1.0,10800.0,0.93589552536
175,3_41_1,41,1.0,616.192965754,3_D,training,01,1_A,176.0,00010,kill,1.0,10900.0,1.12134942442
176,3_41_1,41,1.0,618.91187713,3_D,training,01,1_A,177.0,11101,ignore,1.0,11000.0,0.634980826255
177,3_41_1,41,1.0,621.661986228,3_D,training,01,1_A,178.0,10100,ignore,1.0,11100.0,0.612802831663
178,3_41_1,41,1.0,624.677758743,3_D,training,01,1_A,179.0,01100,ignore,1.0,11200.0,0.891944728051
179,3_41_1,41,1.0,627.365414102,3_D,training,01,1_A,180.0,00000,ignore,1.0,11300.0,0.580351355135
180,3_41_1,41,1.0,630.5061684,3_D,training,01,1_A,181.0,00110,kill,1.0,11400.0,1.02217306825
181,3_41_1,41,1.0,633.240718869,3_D,training,01,1_A,182.0,10000,ignore,1.0,11500.0,0.591717664601
182,3_41_1,41,1.0,635.959585087,3_D,training,01,1_A,183.0,00101,ignore,1.0,11600.0,0.571523755451
183,3_41_1,41,1.0,638.678431189,3_D,training,01,1_A,184.0,10001,ignore,1.0,11700.0,0.554979446878
184,3_41_1,41,1.0,642.553643586,3_D,training,01,1_A,185.0,11010,kill,0.0,11600.0,1.77491488713
185,3_41_1,41,1.0,645.772567894,3_D,training,01,1_A,186.0,10110,kill,1.0,11700.0,1.07570848025
186,3_41_1,41,1.0,648.772656568,3_D,training,01,1_A,187.0,01110,kill,1.0,11800.0,0.893158661561
187,3_41_1,41,1.0,651.616571486,3_D,training,01,1_A,188.0,11111,kill,1.0,11900.0,0.72064544972
188,3_41_1,41,1.0,654.3667163,3_D,training,01,1_A,189.0,01111,kill,1.0,12000.0,0.610833114727
189,3_41_1,41,1.0,657.132435343,3_D,training,01,1_A,190.0,11110,kill,1.0,12100.0,0.671409915829
190,3_41_1,41,1.0,660.304469057,3_D,training,01,1_A,191.0,00100,ignore,1.0,12200.0,0.995822459453
191,3_41_1,41,1.0,663.554616539,3_D,training,01,1_A,192.0,01010,kill,1.0,12300.0,1.11885956756
192,3_41_1,41,1.0,666.398536383,3_D,training,01,1_A,193.0,01110,kill,1.0,12400.0,0.764210350005
193,3_41_1,41,1.0,671.117519602,3_D,training,01,1_A,194.0,10011,kill,0.0,12300.0,2.58924628153
194,3_41_1,41,1.0,673.898908527,3_D,training,01,1_A,195.0,10110,kill,1.0,12400.0,0.691289359957
195,3_41_1,41,1.0,676.961530993,3_D,training,01,1_A,196.0,11100,ignore,1.0,12500.0,0.944565482004
196,3_41_1,41,1.0,680.305451452,3_D,training,01,1_A,197.0,11001,ignore,1.0,12600.0,1.19849803952
197,3_41_1,41,1.0,683.368095676,3_D,training,01,1_A,198.0,00101,ignore,1.0,12700.0,0.947538941731
198,3_41_1,41,1.0,687.680806508,3_D,training,01,1_A,199.0,10001,ignore,1.0,12800.0,2.18864822325
199,3_41_1,41,1.0,691.931014339,3_D,training,01,1_A,200.0,01001,ignore,1.0,12900.0,2.1236253958
200,3_41_1,41,1.0,696.446869985,3_D,training,01,1_A,201.0,00110,kill,1.0,13000.0,2.36876360646
201,3_41_1,41,1.0,700.962715369,3_D,training,01,1_A,202.0,00010,kill,1.0,13100.0,2.39019854402
202,3_41_1,41,1.0,704.150336449,3_D,training,01,1_A,203.0,10000,ignore,1.0,13200.0,1.07342142459
203,3_41_1,41,1.0,707.087994374,3_D,training,01,1_A,204.0,00000,ignore,1.0,13300.0,0.764012064619
204,3_41_1,41,1.0,710.010025112,3_D,training,01,1_A,205.0,00100,ignore,1.0,13400.0,0.795558325256
205,3_41_1,41,1.0,712.697602471,3_D,training,01,1_A,206.0,01100,ignore,1.0,13500.0,0.563319748937
206,3_41_1,41,1.0,716.119628898,3_D,training,01,1_A,207.0,11110,kill,1.0,13600.0,1.30532213575
207,3_41_1,41,1.0,718.822908982,3_D,training,01,1_A,208.0,11000,ignore,1.0,13700.0,0.604733889107
208,3_41_1,41,1.0,721.635546124,3_D,training,01,1_A,209.0,00001,ignore,1.0,13800.0,0.680121335877
209,3_41_1,41,1.0,726.120188039,3_D,training,01,1_A,210.0,01011,kill,1.0,13900.0,2.3655011345
210,3_41_1,41,1.0,729.245316791,3_D,training,01,1_A,211.0,01101,ignore,1.0,14000.0,0.984887615702
211,3_41_1,41,1.0,732.698594309,3_D,training,01,1_A,212.0,10010,kill,0.0,13900.0,1.29240854343
212,3_41_1,41,1.0,735.573722137,3_D,training,01,1_A,213.0,11010,kill,0.0,13800.0,0.765706316765
213,3_41_1,41,1.0,738.730129074,3_D,training,01,1_A,214.0,10100,ignore,1.0,13900.0,1.01452820189
214,3_41_1,41,1.0,741.667750463,3_D,training,01,1_A,215.0,11111,kill,1.0,14000.0,0.830031245343
215,3_41_1,41,1.0,744.574148266,3_D,training,01,1_A,216.0,10111,kill,1.0,14100.0,0.782180014393
216,3_41_1,41,1.0,747.511809886,3_D,training,01,1_A,217.0,10101,ignore,1.0,14200.0,0.779355576602
217,3_41_1,41,1.0,750.511935918,3_D,training,01,1_A,218.0,00111,kill,1.0,14300.0,0.880609618771
218,3_41_1,41,1.0,753.730852426,3_D,training,01,1_A,219.0,01010,ignore,0.0,14200.0,1.07917416395
219,3_41_1,41,1.0,758.293576498,3_D,training,01,1_A,220.0,00011,kill,1.0,14300.0,2.43373675993
220,3_41_1,41,1.0,761.512433889,3_D,training,01,1_A,221.0,11101,ignore,1.0,14400.0,1.09253605366
221,3_41_1,41,1.0,764.762624067,3_D,training,01,1_A,222.0,11011,kill,0.0,14300.0,1.15804043133
222,3_41_1,41,1.0,768.090913644,3_D,training,01,1_A,223.0,01111,kill,1.0,14400.0,1.15988329489
223,3_41_1,41,1.0,770.997264236,3_D,training,01,1_A,224.0,01000,ignore,1.0,14500.0,0.782909113451
224,3_41_1,41,1.0,773.903692419,3_D,training,01,1_A,225.0,10110,kill,1.0,14600.0,0.767407547899
225,3_41_1,41,1.0,776.669615495,3_D,training,01,1_A,226.0,00001,ignore,1.0,14700.0,0.632706086458
226,3_41_1,41,1.0,780.591515274,3_D,training,01,1_A,227.0,10111,kill,1.0,14800.0,1.80251555596
227,3_41_1,41,1.0,784.372915284,3_D,training,01,1_A,228.0,00011,kill,1.0,14900.0,1.60941391684
228,3_41_1,41,1.0,787.076186746,3_D,training,01,1_A,229.0,11010,kill,0.0,14800.0,0.590939302093
229,3_41_1,41,1.0,789.982619444,3_D,training,01,1_A,230.0,01101,ignore,1.0,14900.0,0.780591678664
230,3_41_1,41,1.0,792.998386211,3_D,training,01,1_A,231.0,01111,kill,1.0,15000.0,0.924485289318
231,3_41_1,41,1.0,795.936053168,3_D,training,01,1_A,232.0,00110,kill,1.0,15100.0,0.789950502549
232,3_41_1,41,1.0,798.732991691,3_D,training,01,1_A,233.0,01100,ignore,1.0,15200.0,0.631113645442
233,3_41_1,41,1.0,801.686288709,3_D,training,01,1_A,234.0,11001,ignore,1.0,15300.0,0.839787461056
234,3_41_1,41,1.0,805.04577724,3_D,training,01,1_A,235.0,11101,ignore,1.0,15400.0,1.2097559694
235,3_41_1,41,1.0,807.733418641,3_D,training,01,1_A,236.0,01001,ignore,1.0,15500.0,0.584839665945
236,3_41_1,41,1.0,810.764854059,3_D,training,01,1_A,237.0,00111,kill,1.0,15600.0,0.894595101653
237,3_41_1,41,1.0,813.433052409,3_D,training,01,1_A,238.0,10000,ignore,1.0,15700.0,0.55476227717
238,3_41_1,41,1.0,816.04031187,3_D,training,01,1_A,239.0,10101,ignore,1.0,15800.0,0.474042472483
239,3_41_1,41,1.0,820.259256705,3_D,training,01,1_A,240.0,11011,ignore,1.0,15900.0,2.09397126217
240,3_41_1,41,1.0,823.665651019,3_D,training,01,1_A,241.0,10010,kill,0.0,15800.0,1.2810812342
241,3_41_1,41,1.0,826.868923507,3_D,training,01,1_A,242.0,11111,kill,1.0,15900.0,1.0568225157
242,3_41_1,41,1.0,829.71292053,3_D,training,01,1_A,243.0,10100,ignore,1.0,16000.0,0.632884666464
243,3_41_1,41,1.0,832.306709312,3_D,training,01,1_A,244.0,11000,ignore,1.0,16100.0,0.468653872128
244,3_41_1,41,1.0,836.947540994,3_D,training,01,1_A,245.0,11100,ignore,1.0,16200.0,2.51094572276
245,3_41_1,41,1.0,839.650787415,3_D,training,01,1_A,246.0,10001,ignore,1.0,16300.0,0.560587269586
246,3_41_1,41,1.0,842.947838628,3_D,training,01,1_A,247.0,11110,kill,1.0,16400.0,1.18658654788
247,3_41_1,41,1.0,935.312907886,3_D,test,01,2,0.0,00000,ignore,1.0,100.0,15.6045865093
248,3_41_1,41,1.0,939.656885819,3_D,test,01,2,1.0,10011,kill,1.0,200.0,2.15516016163
249,3_41_1,41,1.0,943.172694255,3_D,test,01,2,2.0,00101,ignore,1.0,300.0,1.38946246597
250,3_41_1,41,1.0,952.15749566,3_D,test,01,2,3.0,01000,ignore,1.0,400.0,6.87741159982
251,3_41_1,41,1.0,955.642057521,3_D,test,01,2,4.0,01110,kill,0.0,300.0,1.39369748054
252,3_41_1,41,1.0,966.955172724,3_D,test,01,2,5.0,01010,ignore,1.0,400.0,9.1981536059
253,3_41_1,41,1.0,975.958692187,3_D,test,01,2,6.0,00010,kill,0.0,300.0,6.90730876647
254,3_41_1,41,1.0,993.81886199,3_D,test,01,2,7.0,01011,ignore,1.0,400.0,15.7198005816
255,3_41_1,41,1.0,1011.02286563,3_D,test,01,2,8.0,00100,ignore,1.0,500.0,14.9698725267
256,3_41_1,41,1.0,1031.05503836,3_D,test,01,2,9.0,10010,kill,1.0,600.0,17.9380401275
257,3_41_1,41,1.0,1037.77713954,3_D,test,01,2,10.0,01101,ignore,1.0,700.0,4.5907237745
258,3_41_1,41,1.0,1044.06109899,3_D,test,01,2,11.0,11010,kill,0.0,600.0,4.20551315478
259,3_41_1,41,1.0,1051.95528316,3_D,test,01,2,12.0,00111,ignore,1.0,700.0,5.72713016183
260,3_41_1,41,1.0,1058.13312708,3_D,test,01,2,13.0,11000,kill,0.0,600.0,4.06752171594
261,3_41_1,41,1.0,1064.08657641,3_D,test,01,2,14.0,01100,ignore,1.0,700.0,3.7256916691
262,3_41_1,41,1.0,1070.84008017,3_D,test,01,2,15.0,11001,ignore,0.0,600.0,4.60882152386
263,3_41_1,41,1.0,1078.76228743,3_D,test,01,2,16.0,00100,ignore,1.0,700.0,5.80731463703
264,3_41_1,41,1.0,1084.23130668,3_D,test,01,2,17.0,01000,ignore,1.0,800.0,3.33858030127
265,3_41_1,41,1.0,1089.74722595,3_D,test,01,2,18.0,10111,kill,1.0,900.0,3.33614627632
266,3_41_1,41,1.0,1103.39165674,3_D,test,01,2,19.0,10001,kill,1.0,1000.0,11.5094559139
267,3_41_1,41,1.0,1112.37639534,3_D,test,01,2,20.0,10101,kill,1.0,1100.0,6.83525768684
268,3_41_1,41,1.0,1123.93949463,3_D,test,01,2,21.0,01010,ignore,1.0,1200.0,9.41594280185
269,3_41_1,41,1.0,1130.45538681,3_D,test,01,2,22.0,00101,ignore,1.0,1300.0,4.41490046936
270,3_41_1,41,1.0,1135.15876584,3_D,test,01,2,23.0,10110,kill,1.0,1400.0,2.58698755236
271,3_41_1,41,1.0,1142.78414768,3_D,test,01,2,24.0,00000,ignore,1.0,1500.0,5.5071906163
272,3_41_1,41,1.0,1148.11249678,3_D,test,01,2,25.0,11011,kill,1.0,1600.0,3.19033549641
273,3_41_1,41,1.0,1152.86273479,3_D,test,01,3,0.0,11110,kill,0.0,1500.0,2.63913045085
274,3_41_1,41,1.0,1158.62862995,3_D,test,01,3,1.0,11111,kill,0.0,1400.0,3.67642698767
275,3_41_1,41,1.0,1173.28558556,3_D,test,01,3,2.0,01111,ignore,1.0,1500.0,12.5329266636
276,3_41_1,41,1.0,1180.25468259,3_D,test,01,3,3.0,00001,ignore,0.0,1400.0,4.86014311853
277,3_41_1,41,1.0,1187.05184773,3_D,test,01,3,4.0,11101,ignore,1.0,1500.0,4.64580811147
278,3_41_1,41,1.0,1191.50525744,3_D,test,01,3,5.0,10100,ignore,1.0,1600.0,2.14050674848
279,3_41_1,41,1.0,1196.00545552,3_D,test,01,3,6.0,01001,kill,1.0,1700.0,2.28513766876
280,3_41_1,41,1.0,1209.95923367,3_D,test,01,3,7.0,10011,ignore,0.0,1600.0,11.8376219219
281,3_41_1,41,1.0,1227.30381467,3_D,test,01,3,8.0,00011,ignore,0.0,1500.0,15.2334997206
282,3_41_1,41,1.0,1253.69570993,3_D,test,01,3,9.0,01110,ignore,1.0,1600.0,24.2747389756
283,3_41_1,41,1.0,1258.85219775,3_D,test,01,3,10.0,00010,kill,1.0,1700.0,3.007646919
284,3_41_1,41,1.0,1276.55619174,3_D,test,01,3,11.0,11100,ignore,1.0,1800.0,15.6352735333
285,3_41_1,41,1.0,1292.21320195,3_D,test,01,3,12.0,10000,kill,0.0,1700.0,13.5657738898
286,3_41_1,41,1.0,1307.26079167,3_D,test,01,3,13.0,00110,ignore,1.0,1800.0,12.9429529251
287,3_41_1,41,1.0,1324.16781348,3_D,test,01,3,14.0,01011,kill,1.0,1900.0,14.7972484721
288,3_41_1,41,1.0,1334.90555827,3_D,test,01,3,15.0,01111,ignore,1.0,2000.0,8.61434929346
289,3_41_1,41,1.0,1362.14122148,3_D,test,01,3,16.0,00111,ignore,1.0,2100.0,25.1062567455
290,3_41_1,41,1.0,1390.09566675,3_D,test,01,3,17.0,10101,ignore,1.0,2200.0,25.7676082965
291,3_41_1,41,1.0,1412.59936294,3_D,test,01,3,18.0,00010,kill,1.0,2300.0,20.4151783973
292,3_41_1,41,1.0,1422.69360269,3_D,test,01,3,19.0,11110,ignore,1.0,2400.0,8.02488378957
293,3_41_1,41,1.0,1431.75651006,3_D,test,01,3,20.0,00100,kill,0.0,2300.0,6.92003556821
294,3_41_1,41,1.0,1441.88199064,3_D,test,01,3,21.0,00000,kill,1.0,2400.0,8.01585133605
295,3_41_1,41,1.0,1464.80600095,3_D,test,01,3,22.0,00110,ignore,1.0,2500.0,20.7689683782
296,3_41_1,41,1.0,1478.65036129,3_D,test,01,3,23.0,11111,ignore,1.0,2600.0,11.7078102684
297,3_41_1,41,1.0,1489.85409192,3_D,test,01,3,24.0,01100,kill,0.0,2500.0,9.10295034696
298,3_41_1,41,1.0,1523.5098529,3_D,test,01,3,25.0,11011,,,2400.0,
299,3_41_1,41,1.0,1532.16961529,3_D,test,01,3,26.0,11010,kill,1.0,2500.0,6.5930970412
300,3_41_1,41,1.0,1538.9980972,3_D,test,01,3,27.0,10111,ignore,1.0,2600.0,4.62594016215
301,3_41_1,41,1.0,1546.02967425,3_D,test,01,3,28.0,00101,ignore,1.0,2700.0,4.91290632596
302,3_41_1,41,1.0,1554.07689491,3_D,test,01,3,29.0,11100,kill,0.0,2600.0,5.96300766498
303,3_41_1,41,1.0,1567.65892902,3_D,test,01,3,30.0,01011,ignore,0.0,2500.0,11.4819246245
304,3_41_1,41,1.0,1586.48796022,3_D,test,01,3,31.0,10110,ignore,1.0,2600.0,16.7561882077
305,3_41_1,41,1.0,1592.64452685,3_D,test,01,4,0.0,11001,kill,0.0,2500.0,4.06462133033
306,3_41_1,41,1.0,1602.61496262,3_D,test,01,4,1.0,10010,ignore,1.0,2600.0,7.84434186699
307,3_41_1,41,1.0,1611.75604493,3_D,test,01,4,2.0,10100,ignore,0.0,2500.0,7.0253439923
308,3_41_1,41,1.0,1618.75633682,3_D,test,01,4,3.0,01010,ignore,1.0,2600.0,4.83393701586
309,3_41_1,41,1.0,1627.99121427,3_D,test,01,4,4.0,00011,ignore,0.0,2500.0,7.13001732842
310,3_41_1,41,1.0,1637.91354347,3_D,test,01,4,5.0,10011,kill,1.0,2600.0,7.8071771099
311,3_41_1,41,1.0,1648.64840881,3_D,test,01,4,6.0,01101,ignore,1.0,2700.0,8.61819143202
312,3_41_1,41,1.0,1659.0863888,3_D,test,01,4,7.0,11101,kill,0.0,2600.0,8.36736862977
313,3_41_1,41,1.0,1671.86829663,3_D,test,01,4,8.0,01000,kill,0.0,2500.0,10.6597279098
314,3_41_1,41,1.0,1694.88503183,3_D,test,01,4,9.0,10000,kill,0.0,2400.0,20.8755777679
315,3_41_1,41,1.0,1704.40112477,3_D,test,01,4,10.0,10001,ignore,0.0,2300.0,7.4303375819
316,3_41_1,41,1.0,1715.35936742,3_D,test,01,4,11.0,00001,ignore,0.0,2200.0,8.86059921597
317,3_41_1,41,1.0,1727.11546326,3_D,test,01,4,12.0,01001,ignore,1.0,2300.0,9.68046412738
318,3_41_1,41,1.0,1746.36325308,3_D,test,01,4,13.0,11000,kill,0.0,2200.0,17.1126224043
319,3_41_1,41,1.0,1755.1293104,3_D,test,01,4,14.0,01110,ignore,1.0,2300.0,6.661473478
320,3_41_1,41,1.0,1761.03582602,3_D,test,01,4,15.0,01101,kill,0.0,2200.0,3.79047556882
321,3_41_1,41,1.0,1768.73933559,3_D,test,01,4,16.0,10100,kill,1.0,2300.0,5.54136056617
322,3_41_1,41,1.0,1776.50535596,3_D,test,01,4,17.0,01110,ignore,1.0,2400.0,5.67733015091
323,3_41_1,41,1.0,1783.64633523,3_D,test,01,4,18.0,10000,kill,0.0,2300.0,5.0117337327
324,3_41_1,41,1.0,1797.58765918,3_D,test,01,4,19.0,11100,kill,0.0,2200.0,11.8095548924
325,3_41_1,41,1.0,1807.66398058,3_D,test,01,4,20.0,10001,ignore,0.0,2100.0,7.97151382066
326,3_41_1,41,1.0,1820.06196151,3_D,test,01,4,21.0,11000,kill,0.0,2000.0,10.3255997928
327,3_41_1,41,1.0,1828.58120115,3_D,test,01,4,22.0,00110,ignore,0.0,1900.0,6.40463766117
328,3_41_1,41,1.0,1847.51960377,3_D,test,01,4,23.0,11001,kill,0.0,1800.0,16.8460976985
329,3_41_1,41,1.0,1854.61366864,3_D,test,01,4,24.0,00111,ignore,0.0,1700.0,4.96230442924
330,3_41_1,41,1.0,1860.55154414,3_D,test,01,4,25.0,00010,ignore,1.0,1800.0,3.7656582849
331,3_41_1,41,1.0,1869.89564852,3_D,test,01,4,26.0,00000,ignore,1.0,1900.0,7.19646879591
332,3_41_1,41,1.0,1874.6771372,3_D,test,01,4,27.0,11010,kill,0.0,1800.0,2.66797830602
333,3_41_1,41,1.0,1884.99021464,3_D,test,01,4,28.0,10101,kill,1.0,1900.0,8.18673803298
334,3_41_1,41,1.0,1890.42789001,3_D,test,01,4,29.0,00100,ignore,0.0,1800.0,3.30561648486
335,3_41_1,41,1.0,1899.7877279,3_D,test,01,4,30.0,10011,ignore,0.0,1700.0,7.24374816032
336,3_41_1,41,1.0,1903.44408578,3_D,test,01,4,31.0,10010,ignore,1.0,1800.0,1.49680752319
337,3_41_1,41,1.0,1912.56956102,3_D,test,01,4,32.0,01100,ignore,1.0,1900.0,6.99185223592
338,3_41_1,41,1.0,1918.44483705,3_D,test,01,4,33.0,11101,kill,0.0,1800.0,3.7456421347
339,3_41_1,41,1.0,1943.96173256,3_D,test,01,4,34.0,10110,kill,1.0,1900.0,23.3648841098
340,3_41_1,41,1.0,1949.96201295,3_D,test,01,4,35.0,01001,ignore,1.0,2000.0,3.89122630274
341,3_41_1,41,1.0,1960.20002972,3_D,test,01,4,36.0,01111,ignore,1.0,2100.0,8.16053685666
342,3_41_1,41,1.0,1964.77836538,3_D,test,01,4,37.0,00001,ignore,0.0,2000.0,2.4367664621
343,3_41_1,41,1.0,1971.18500765,3_D,test,01,4,38.0,11111,kill,0.0,1900.0,4.25236187452
344,3_41_1,41,1.0,1977.04463433,3_D,test,01,4,39.0,11110,kill,0.0,1800.0,3.73248633042
345,3_41_1,41,1.0,1988.6713081,3_D,test,01,4,40.0,01000,ignore,1.0,1900.0,9.49273877276
346,3_41_1,41,1.0,1992.4527389,3_D,test,01,4,41.0,00101,kill,1.0,2000.0,1.66836379251
347,3_41_1,41,1.0,1996.70297178,3_D,test,01,4,42.0,00011,ignore,0.0,1900.0,2.13170706475
348,3_41_1,41,1.0,2004.42527535,3_D,test,01,4,43.0,10111,ignore,0.0,1800.0,5.6448716954
349,3_41_1,41,1.0,2008.03485184,3_D,test,01,4,44.0,01011,ignore,1.0,1900.0,1.53980835697
350,3_41_1,41,1.0,2013.22576125,3_D,test,01,5,0.0,11011,ignore,0.0,1800.0,3.08923499199
351,3_41_1,41,1.0,2018.11663245,3_D,test,01,5,1.0,01010,ignore,1.0,1900.0,2.79235332731
352,3_41_1,41,1.0,2029.58596246,3_D,test,01,5,2.0,00111,kill,0.0,1800.0,9.32075637459
353,3_41_1,41,1.0,2033.78925342,3_D,test,01,5,3.0,10110,ignore,0.0,1700.0,2.09018372393
354,3_41_1,41,1.0,2038.77389924,3_D,test,01,5,4.0,10011,ignore,0.0,1600.0,2.81202832813
355,3_41_1,41,1.0,2042.57097652,3_D,test,01,5,5.0,01010,ignore,1.0,1700.0,1.67142921068
356,3_41_1,41,1.0,2047.68060863,3_D,test,01,5,6.0,11000,ignore,1.0,1800.0,2.98858196391
357,3_41_1,41,1.0,2052.50939475,3_D,test,01,5,7.0,10010,kill,1.0,1900.0,2.71120287797
358,3_41_1,41,1.0,2057.18153663,3_D,test,01,5,8.0,01100,ignore,1.0,2000.0,2.55200557662
359,3_41_1,41,1.0,2061.86928683,3_D,test,01,5,9.0,10111,kill,1.0,2100.0,2.49395763261
360,3_41_1,41,1.0,2065.72882482,3_D,test,01,5,10.0,00100,ignore,1.0,2200.0,1.70527361125
361,3_41_1,41,1.0,2069.49462556,3_D,test,01,5,11.0,00001,ignore,1.0,2300.0,1.65096517361
362,3_41_1,41,1.0,2072.90102029,3_D,test,01,5,12.0,01001,ignore,1.0,2400.0,1.27169326277
363,3_41_1,41,1.0,2076.01056373,3_D,test,01,5,13.0,01000,ignore,1.0,2500.0,1.01220173547
364,3_41_1,41,1.0,2079.41696994,3_D,test,01,5,14.0,00000,ignore,1.0,2600.0,1.29588941669
365,3_41_1,41,1.0,2083.05779506,3_D,test,01,6,0.0,11100,ignore,1.0,2700.0,1.51798711186
366,3_41_1,41,1.0,2086.3704439,3_D,test,01,6,1.0,00010,kill,1.0,2800.0,1.19575406536
367,3_41_1,41,1.0,2090.07372275,3_D,test,01,6,2.0,10000,ignore,1.0,2900.0,1.57951387649
368,3_41_1,41,1.0,2095.05835502,3_D,test,01,6,3.0,10001,ignore,1.0,3000.0,2.84757765459
369,3_41_1,41,1.0,2098.68792508,3_D,test,01,6,4.0,00110,kill,0.0,2900.0,1.50846653965
370,3_41_1,41,1.0,2104.07878293,3_D,test,01,6,5.0,01101,ignore,1.0,3000.0,3.2061289479
371,3_41_1,41,1.0,2108.82900944,3_D,test,01,6,6.0,00011,kill,1.0,3100.0,2.64210473163
372,3_41_1,41,1.0,2112.96981711,3_D,test,01,6,7.0,11001,ignore,1.0,3200.0,1.95994019417
373,3_41_1,41,1.0,2116.46994252,3_D,test,01,6,8.0,11110,kill,0.0,3100.0,1.37641175705
374,3_41_1,41,1.0,2120.48893851,3_D,test,01,6,9.0,01110,kill,0.0,3000.0,1.96422159849
375,3_41_1,41,1.0,2124.85318712,3_D,test,01,6,10.0,10101,ignore,1.0,3100.0,2.25537967136
376,3_41_1,41,1.0,2129.85337268,3_D,test,01,6,11.0,10100,kill,0.0,3000.0,2.92658801757
377,3_41_1,41,1.0,2134.32251877,3_D,test,01,6,12.0,01011,ignore,0.0,2900.0,2.32225685716
378,3_41_1,41,1.0,2137.96802597,3_D,test,01,6,13.0,11101,ignore,1.0,3000.0,1.49133517497
379,3_41_1,41,1.0,2141.46822528,3_D,test,01,6,14.0,00101,ignore,1.0,3100.0,1.3757926797
380,3_41_1,41,1.0,2144.89024227,3_D,test,01,6,15.0,11010,kill,1.0,3200.0,1.30463326851
381,3_41_1,41,1.0,2148.20288208,3_D,test,01,6,16.0,11111,kill,0.0,3100.0,1.18279244118
382,3_41_1,41,1.0,2152.03438999,3_D,test,01,6,17.0,01111,ignore,1.0,3200.0,1.73977280518
383,3_41_1,41,1.0,2155.53764241,3_D,test,01,6,18.0,11011,kill,1.0,3300.0,1.40530189668
384,3_41_1,41,1.0,2159.00661526,3_D,test,01,6,19.0,01001,ignore,0.0,3200.0,1.35622975324
385,3_41_1,41,1.0,2163.52240071,3_D,test,01,6,20.0,10100,ignore,1.0,3300.0,2.31446707416
386,3_41_1,41,1.0,2167.28821089,3_D,test,01,6,21.0,11111,kill,0.0,3200.0,1.55050057823
387,3_41_1,41,1.0,2171.61656286,3_D,test,01,6,22.0,00011,ignore,0.0,3100.0,2.09677271035
