,unique_id,pair_id,sbj_id,wall_time,condition,block,rule_id,rule_num,trial,stimulus,choice,correct,points,reaction_time
0,2_7_13,7,13.0,75.672,2_ND,training,02,1_A,1.0,11111,kill,1.0,100.0,2.14856988444
1,2_7_13,7,13.0,80.0943089778,2_ND,training,02,1_A,2.0,11011,kill,1.0,200.0,2.23320035556
2,2_7_13,7,13.0,83.8757691733,2_ND,training,02,1_A,3.0,00101,ignore,1.0,300.0,1.59722382222
3,2_7_13,7,13.0,87.5014223644,2_ND,training,02,1_A,4.0,01110,kill,1.0,400.0,1.45127765333
4,2_7_13,7,13.0,91.12673792,2_ND,training,02,1_A,5.0,00100,ignore,0.0,300.0,1.41430442666
5,2_7_13,7,13.0,95.1271827911,2_ND,training,02,1_A,6.0,00110,kill,1.0,400.0,1.79454008889
6,2_7_13,7,13.0,99.7839519289,2_ND,training,02,1_A,7.0,00011,kill,0.0,300.0,2.46364899556
7,2_7_13,7,13.0,104.487533796,2_ND,training,02,1_A,8.0,11001,ignore,0.0,200.0,2.52190606222
8,2_7_13,7,13.0,109.597482382,2_ND,training,02,1_A,9.0,01101,ignore,1.0,300.0,2.92129621334
9,2_7_13,7,13.0,114.426156658,2_ND,training,02,1_A,10.0,01100,ignore,0.0,200.0,2.63278336
10,2_7_13,7,13.0,118.942216818,2_ND,training,02,1_A,11.0,01011,kill,0.0,100.0,2.32421063111
11,2_7_13,7,13.0,125.521080604,2_ND,training,02,1_A,12.0,10000,ignore,1.0,200.0,4.38763377778
12,2_7_13,7,13.0,130.334124658,2_ND,training,02,1_A,13.0,10111,kill,1.0,300.0,2.63953322667
13,2_7_13,7,13.0,137.928612693,2_ND,training,02,1_A,14.0,11010,kill,0.0,200.0,5.41934961778
14,2_7_13,7,13.0,143.007307378,2_ND,training,02,1_A,15.0,10101,ignore,0.0,100.0,2.90090012444
15,2_7_13,7,13.0,147.945348836,2_ND,training,02,1_A,16.0,01010,kill,1.0,200.0,2.77479111111
16,2_7_13,7,13.0,153.617947876,2_ND,training,02,1_A,17.0,11000,ignore,1.0,300.0,3.50918968889
17,2_7_13,7,13.0,158.758994204,2_ND,training,02,1_A,18.0,00010,kill,1.0,400.0,2.98137827556
18,2_7_13,7,13.0,163.618848711,2_ND,training,02,1_A,19.0,01001,ignore,1.0,500.0,2.67521763555
19,2_7_13,7,13.0,167.4473472,2_ND,training,02,1_A,20.0,11101,kill,1.0,600.0,1.66919708444
20,2_7_13,7,13.0,173.916849209,2_ND,training,02,1_A,21.0,10010,kill,0.0,500.0,4.31349504
21,2_7_13,7,13.0,179.839377067,2_ND,training,02,1_A,22.0,11100,kill,0.0,400.0,3.76133290667
22,2_7_13,7,13.0,187.465143182,2_ND,training,02,1_A,23.0,01111,kill,0.0,300.0,5.45365418667
23,2_7_13,7,13.0,200.357295218,2_ND,training,02,1_A,24.0,10001,ignore,0.0,200.0,10.7277400178
24,2_7_13,7,13.0,205.15456768,2_ND,training,02,1_A,25.0,00000,ignore,0.0,100.0,2.60954823111
25,2_7_13,7,13.0,209.623799467,2_ND,training,02,1_A,26.0,11110,kill,0.0,0.0,2.30214997333
26,2_7_13,7,13.0,216.015120498,2_ND,training,02,1_A,27.0,00111,kill,0.0,0.0,4.22373376
27,2_7_13,7,13.0,220.593728284,2_ND,training,02,1_A,28.0,00001,ignore,1.0,100.0,2.41103616
28,2_7_13,7,13.0,225.828754773,2_ND,training,02,1_A,29.0,01000,ignore,0.0,0.0,3.06364928
29,2_7_13,7,13.0,229.875900871,2_ND,training,02,1_A,30.0,10110,kill,0.0,0.0,1.85801386667
30,2_7_13,7,13.0,233.423179947,2_ND,training,02,1_A,31.0,10100,ignore,1.0,100.0,1.37333560889
31,2_7_13,7,13.0,239.877015609,2_ND,training,02,1_A,32.0,10011,kill,1.0,200.0,4.28392334222
32,2_7_13,7,13.0,247.284030578,2_ND,training,02,1_A,33.0,10001,ignore,0.0,100.0,5.22881024
33,2_7_13,7,13.0,258.706949689,2_ND,training,02,1_A,34.0,10100,kill,0.0,0.0,9.24666624
34,2_7_13,7,13.0,262.33255936,2_ND,training,02,1_A,35.0,01001,ignore,1.0,100.0,1.46876501333
35,2_7_13,7,13.0,265.551594382,2_ND,training,02,1_A,36.0,01111,kill,0.0,0.0,1.06517077333
36,2_7_13,7,13.0,268.723844836,2_ND,training,02,1_A,37.0,11001,ignore,0.0,0.0,1.00508728889
37,2_7_13,7,13.0,271.302159929,2_ND,training,02,1_A,38.0,11000,kill,0.0,0.0,0.419757795553
38,2_7_13,7,13.0,273.911896747,2_ND,training,02,1_A,39.0,11101,ignore,0.0,0.0,0.442680035554
39,2_7_13,7,13.0,276.537155129,2_ND,training,02,1_A,40.0,10000,ignore,1.0,100.0,0.464159573334
40,2_7_13,7,13.0,280.053190827,2_ND,training,02,1_A,41.0,01000,kill,1.0,200.0,1.34922922667
41,2_7_13,7,13.0,283.287864604,2_ND,training,02,1_A,42.0,00101,kill,0.0,100.0,1.05295047111
42,2_7_13,7,13.0,286.319451591,2_ND,training,02,1_A,43.0,01011,ignore,1.0,200.0,0.865105066667
43,2_7_13,7,13.0,291.476248747,2_ND,training,02,1_A,44.0,01110,kill,1.0,300.0,2.98951651556
44,2_7_13,7,13.0,294.945419093,2_ND,training,02,1_A,45.0,00100,ignore,0.0,200.0,1.28253041778
45,2_7_13,7,13.0,298.758245831,2_ND,training,02,1_A,46.0,00010,ignore,0.0,100.0,1.65359701333
46,2_7_13,7,13.0,305.243328569,2_ND,training,02,1_A,47.0,00001,kill,0.0,0.0,4.32134798222
47,2_7_13,7,13.0,317.541506844,2_ND,training,02,1_A,48.0,00011,kill,0.0,0.0,10.1209483378
48,2_7_13,7,13.0,328.339564373,2_ND,training,02,1_A,49.0,00000,ignore,0.0,0.0,8.64387811556
49,2_7_13,7,13.0,336.965497173,2_ND,training,02,1_A,50.0,00111,kill,0.0,0.0,6.45044224
50,2_7_13,7,13.0,341.622253511,2_ND,training,02,1_A,51.0,11110,kill,0.0,0.0,2.48286464
51,2_7_13,7,13.0,346.122722133,2_ND,training,02,1_A,52.0,10111,ignore,0.0,0.0,2.32472263111
52,2_7_13,7,13.0,349.919964729,2_ND,training,02,1_A,53.0,11111,kill,1.0,100.0,1.62877184
53,2_7_13,7,13.0,353.1859072,2_ND,training,02,1_A,54.0,10011,ignore,0.0,0.0,1.08958492444
54,2_7_13,7,13.0,355.889287964,2_ND,training,02,1_A,55.0,11011,kill,1.0,100.0,0.540993991108
55,2_7_13,7,13.0,359.249090276,2_ND,training,02,1_A,56.0,00110,ignore,0.0,0.0,1.17412352
56,2_7_13,7,13.0,361.87441664,2_ND,training,02,1_A,57.0,01100,kill,1.0,100.0,0.468991715556
57,2_7_13,7,13.0,364.921616498,2_ND,training,02,1_A,58.0,10110,ignore,1.0,200.0,0.874378808887
58,2_7_13,7,13.0,368.015829049,2_ND,training,02,1_A,59.0,10010,ignore,1.0,300.0,0.950595697777
59,2_7_13,7,13.0,371.109768533,2_ND,training,02,1_A,60.0,01101,ignore,1.0,400.0,0.918886399999
60,2_7_13,7,13.0,373.953851733,2_ND,training,02,1_A,61.0,11100,ignore,1.0,500.0,0.681142328885
61,2_7_13,7,13.0,376.625981156,2_ND,training,02,1_A,62.0,11010,ignore,1.0,600.0,0.517425208887
62,2_7_13,7,13.0,379.219982222,2_ND,training,02,1_A,63.0,01010,ignore,0.0,500.0,0.432549546666
63,2_7_13,7,13.0,381.829731271,2_ND,training,02,1_A,64.0,10101,kill,1.0,600.0,0.454217386665
64,2_7_13,7,13.0,384.548680818,2_ND,training,02,1_A,65.0,11101,kill,1.0,700.0,0.53949582222
65,2_7_13,7,13.0,387.095853796,2_ND,training,02,1_A,66.0,10111,kill,1.0,800.0,0.380552817776
66,2_7_13,7,13.0,389.893034667,2_ND,training,02,1_A,67.0,11000,kill,0.0,700.0,0.653842488889
67,2_7_13,7,13.0,392.565180302,2_ND,training,02,1_A,68.0,11010,ignore,1.0,800.0,0.50739854222
68,2_7_13,7,13.0,395.112319147,2_ND,training,02,1_A,69.0,00011,ignore,1.0,900.0,0.373893404445
69,2_7_13,7,13.0,397.581343858,2_ND,training,02,1_A,70.0,01110,ignore,0.0,800.0,0.309765404443
70,2_7_13,7,13.0,400.112868409,2_ND,training,02,1_A,71.0,00010,kill,1.0,900.0,0.360918755556
71,2_7_13,7,13.0,402.550622436,2_ND,training,02,1_A,72.0,10010,kill,0.0,800.0,0.28209806222
72,2_7_13,7,13.0,405.269650204,2_ND,training,02,1_A,73.0,00111,ignore,1.0,900.0,0.525354097776
73,2_7_13,7,13.0,407.691756089,2_ND,training,02,1_A,74.0,10110,ignore,1.0,1000.0,0.247199004443
74,2_7_13,7,13.0,410.06702848,2_ND,training,02,1_A,75.0,00101,ignore,1.0,1100.0,0.211970844444
75,2_7_13,7,13.0,412.426662969,2_ND,training,02,1_A,76.0,11001,ignore,0.0,1000.0,0.203652266668
76,2_7_13,7,13.0,415.005061404,2_ND,training,02,1_A,77.0,10011,kill,1.0,1100.0,0.427542755555
77,2_7_13,7,13.0,417.411499236,2_ND,training,02,1_A,78.0,10100,kill,0.0,1000.0,0.225541404445
78,2_7_13,7,13.0,420.068098276,2_ND,training,02,1_A,79.0,01100,ignore,0.0,900.0,0.487451875557
79,2_7_13,7,13.0,422.693311716,2_ND,training,02,1_A,80.0,00001,kill,0.0,800.0,0.458971306667
80,2_7_13,7,13.0,425.146831644,2_ND,training,02,1_A,81.0,11011,kill,1.0,900.0,0.288280177778
81,2_7_13,7,13.0,427.63141888,2_ND,training,02,1_A,82.0,11100,kill,0.0,800.0,0.324308479998
82,2_7_13,7,13.0,430.162898204,2_ND,training,02,1_A,83.0,01010,ignore,0.0,700.0,0.366590577778
83,2_7_13,7,13.0,432.741337316,2_ND,training,02,1_A,84.0,01101,ignore,1.0,800.0,0.407272391112
84,2_7_13,7,13.0,435.42912,2_ND,training,02,1_A,85.0,11110,ignore,1.0,900.0,0.5265664
85,2_7_13,7,13.0,437.929368747,2_ND,training,02,1_A,86.0,10001,ignore,0.0,800.0,0.328266239998
86,2_7_13,7,13.0,440.367117653,2_ND,training,02,1_A,87.0,01111,kill,0.0,700.0,0.274764515554
87,2_7_13,7,13.0,442.711173973,2_ND,training,02,1_A,88.0,10101,kill,1.0,800.0,0.174382648889
88,2_7_13,7,13.0,445.117674098,2_ND,training,02,1_A,89.0,10000,kill,0.0,700.0,0.239456426669
89,2_7_13,7,13.0,447.524146631,2_ND,training,02,1_A,90.0,01000,kill,1.0,800.0,0.245346702224
90,2_7_13,7,13.0,450.211966578,2_ND,training,02,1_A,91.0,11111,ignore,0.0,700.0,0.531231573332
91,2_7_13,7,13.0,453.118476516,2_ND,training,02,1_A,92.0,01011,ignore,1.0,800.0,0.740972373333
92,2_7_13,7,13.0,455.743797191,2_ND,training,02,1_A,93.0,01001,kill,0.0,700.0,0.462665102223
93,2_7_13,7,13.0,458.103422009,2_ND,training,02,1_A,94.0,00110,kill,1.0,800.0,0.187549013332
94,2_7_13,7,13.0,464.525990969,2_ND,training,02,1_A,95.0,00000,ignore,0.0,700.0,4.24256654222
95,2_7_13,7,13.0,466.916737991,2_ND,training,02,1_A,96.0,00100,ignore,0.0,600.0,0.220304497776
96,2_7_13,7,13.0,469.307693511,2_ND,training,02,1_A,97.0,10100,ignore,1.0,700.0,0.235681564445
97,2_7_13,7,13.0,471.698627413,2_ND,training,02,1_A,98.0,11011,ignore,0.0,600.0,0.226281244442
98,2_7_13,7,13.0,474.07388928,2_ND,training,02,1_A,99.0,00011,ignore,1.0,700.0,0.216336213332
99,2_7_13,7,13.0,476.527271822,2_ND,training,02,1_A,100.0,10010,kill,0.0,600.0,0.287506204444
100,2_7_13,7,13.0,478.980640427,2_ND,training,02,1_A,101.0,01100,kill,1.0,700.0,0.274742044443
101,2_7_13,7,13.0,481.418404409,2_ND,training,02,1_A,102.0,01110,kill,1.0,800.0,0.279541475556
102,2_7_13,7,13.0,483.918633813,2_ND,training,02,1_A,103.0,11111,kill,1.0,900.0,0.306721564444
103,2_7_13,7,13.0,486.372054471,2_ND,training,02,1_A,104.0,01000,kill,1.0,1000.0,0.294036480002
104,2_7_13,7,13.0,488.731700338,2_ND,training,02,1_A,105.0,10011,kill,1.0,1100.0,0.217737671112
105,2_7_13,7,13.0,491.310078009,2_ND,training,02,1_A,106.0,10001,kill,1.0,1200.0,0.417088000002
106,2_7_13,7,13.0,493.90413312,2_ND,training,02,1_A,107.0,11101,kill,1.0,1300.0,0.44015559111
107,2_7_13,7,13.0,496.5137664,2_ND,training,02,1_A,108.0,11010,kill,0.0,1200.0,0.462938737779
108,2_7_13,7,13.0,499.06085632,2_ND,training,02,1_A,109.0,00100,ignore,0.0,1100.0,0.371098168889
109,2_7_13,7,13.0,501.467410204,2_ND,training,02,1_A,110.0,11110,ignore,1.0,1200.0,0.243892337778
110,2_7_13,7,13.0,503.889550791,2_ND,training,02,1_A,111.0,10101,ignore,0.0,1100.0,0.249018026669
111,2_7_13,7,13.0,507.108623644,2_ND,training,02,1_A,112.0,11100,kill,0.0,1000.0,1.03835960889
112,2_7_13,7,13.0,509.577616213,2_ND,training,02,1_A,113.0,00010,kill,1.0,1100.0,0.307372657775
113,2_7_13,7,13.0,512.062254933,2_ND,training,02,1_A,114.0,10110,ignore,1.0,1200.0,0.318192924446
114,2_7_13,7,13.0,514.484437333,2_ND,training,02,1_A,115.0,01011,kill,0.0,1100.0,0.24898161778
115,2_7_13,7,13.0,516.875125476,2_ND,training,02,1_A,116.0,01010,kill,1.0,1200.0,0.24690432
116,2_7_13,7,13.0,519.719361138,2_ND,training,02,1_A,117.0,11001,kill,1.0,1300.0,0.684888746669
117,2_7_13,7,13.0,522.047717831,2_ND,training,02,1_A,118.0,01101,kill,0.0,1200.0,0.177024284447
118,2_7_13,7,13.0,524.438624711,2_ND,training,02,1_A,119.0,00110,kill,1.0,1300.0,0.209127253333
119,2_7_13,7,13.0,527.1576448,2_ND,training,02,1_A,120.0,10000,kill,0.0,1200.0,0.543717831111
120,2_7_13,7,13.0,529.50167296,2_ND,training,02,1_A,121.0,01111,kill,0.0,1100.0,0.193456071109
121,2_7_13,7,13.0,531.861249422,2_ND,training,02,1_A,122.0,00111,kill,0.0,1000.0,0.184713386665
122,2_7_13,7,13.0,534.299017956,2_ND,training,02,1_A,123.0,10111,ignore,0.0,900.0,0.273565297779
123,2_7_13,7,13.0,536.736808676,2_ND,training,02,1_A,124.0,00000,ignore,0.0,800.0,0.261386524442
124,2_7_13,7,13.0,539.096423253,2_ND,training,02,1_A,125.0,01001,ignore,1.0,900.0,0.201897244442
125,2_7_13,7,13.0,541.596644693,2_ND,training,02,1_A,126.0,00001,ignore,1.0,1000.0,0.353696142221
126,2_7_13,7,13.0,544.362428871,2_ND,training,02,1_A,127.0,11000,ignore,1.0,1100.0,0.587423857778
127,2_7_13,7,13.0,546.878525724,2_ND,training,02,1_A,128.0,00101,ignore,1.0,1200.0,0.330091519998
128,2_7_13,7,13.0,549.488151893,2_ND,training,02,1_A,129.0,00010,kill,1.0,1300.0,0.443907413333
129,2_7_13,7,13.0,551.910322347,2_ND,training,02,1_A,130.0,00110,kill,1.0,1400.0,0.257956693335
130,2_7_13,7,13.0,554.3011456,2_ND,training,02,1_A,131.0,10110,kill,0.0,1300.0,0.223081244443
131,2_7_13,7,13.0,558.332864853,2_ND,training,02,1_A,132.0,10000,kill,0.0,1200.0,1.86908728889
132,2_7_13,7,13.0,560.739324871,2_ND,training,02,1_A,133.0,11000,kill,0.0,1100.0,0.224265955556
133,2_7_13,7,13.0,563.161509547,2_ND,training,02,1_A,134.0,01101,ignore,1.0,1200.0,0.270473386667
134,2_7_13,7,13.0,565.958633529,2_ND,training,02,1_A,135.0,11001,kill,1.0,1300.0,0.627648568887
135,2_7_13,7,13.0,568.302566684,2_ND,training,02,1_A,136.0,10111,kill,1.0,1400.0,0.20208469333
136,2_7_13,7,13.0,570.693516516,2_ND,training,02,1_A,137.0,11010,kill,0.0,1300.0,0.225793706664
137,2_7_13,7,13.0,574.272018204,2_ND,training,02,1_A,138.0,01010,ignore,0.0,1200.0,1.42440846222
138,2_7_13,7,13.0,576.850438542,2_ND,training,02,1_A,139.0,10001,kill,1.0,1300.0,0.406012871113
139,2_7_13,7,13.0,579.225706951,2_ND,training,02,1_A,140.0,00000,kill,1.0,1400.0,0.212840675555
140,2_7_13,7,13.0,581.80407296,2_ND,training,02,1_A,141.0,11110,kill,0.0,1300.0,0.436800284446
141,2_7_13,7,13.0,585.460718933,2_ND,training,02,1_A,142.0,01000,ignore,0.0,1200.0,1.48244024889
142,2_7_13,7,13.0,587.867259164,2_ND,training,02,1_A,143.0,10101,ignore,0.0,1100.0,0.237573120001
143,2_7_13,7,13.0,590.273767253,2_ND,training,02,1_A,144.0,10010,ignore,1.0,1200.0,0.24321792
144,2_7_13,7,13.0,592.820926862,2_ND,training,02,1_A,145.0,11100,ignore,1.0,1300.0,0.401290808888
145,2_7_13,7,13.0,595.383647004,2_ND,training,02,1_A,146.0,10011,ignore,0.0,1200.0,0.376548124445
146,2_7_13,7,13.0,597.821410702,2_ND,training,02,1_A,147.0,01100,kill,1.0,1300.0,0.256411022223
147,2_7_13,7,13.0,600.587363271,2_ND,training,02,1_A,148.0,10100,ignore,1.0,1400.0,0.589029546667
148,2_7_13,7,13.0,603.009468302,2_ND,training,02,1_A,149.0,00001,ignore,1.0,1500.0,0.251946951113
149,2_7_13,7,13.0,605.634672924,2_ND,training,02,1_A,150.0,01001,kill,0.0,1400.0,0.457287111112
150,2_7_13,7,13.0,608.228815644,2_ND,training,02,1_A,151.0,00101,kill,0.0,1300.0,0.413680924441
151,2_7_13,7,13.0,610.635311787,2_ND,training,02,1_A,152.0,00100,kill,1.0,1400.0,0.252132977777
152,2_7_13,7,13.0,613.291836587,2_ND,training,02,1_A,153.0,00111,kill,0.0,1300.0,0.481432746667
153,2_7_13,7,13.0,615.823390151,2_ND,training,02,1_A,154.0,11101,ignore,0.0,1200.0,0.373610666666
154,2_7_13,7,13.0,618.245662151,2_ND,training,02,1_A,155.0,01011,kill,0.0,1100.0,0.245800960001
155,2_7_13,7,13.0,620.980086898,2_ND,training,02,1_A,156.0,11011,ignore,0.0,1000.0,0.571756657777
156,2_7_13,7,13.0,623.621091556,2_ND,training,02,1_A,157.0,01110,kill,1.0,1100.0,0.484029155556
157,2_7_13,7,13.0,626.011966578,2_ND,training,02,1_A,158.0,11111,kill,1.0,1200.0,0.224587946668
158,2_7_13,7,13.0,628.590318649,2_ND,training,02,1_A,159.0,00011,kill,0.0,1100.0,0.42297856
159,2_7_13,7,13.0,631.387339947,2_ND,training,02,1_A,160.0,01111,ignore,1.0,1200.0,0.620965831109
160,2_7_13,7,13.0,634.278436409,2_ND,training,02,1_A,161.0,11101,ignore,0.0,1100.0,0.714594417776
161,2_7_13,7,13.0,636.68492288,2_ND,training,02,1_A,162.0,10001,kill,1.0,1200.0,0.245544106667
162,2_7_13,7,13.0,640.279225742,2_ND,training,02,1_A,163.0,10110,ignore,1.0,1300.0,1.40091733333
163,2_7_13,7,13.0,644.638913138,2_ND,training,02,1_A,164.0,00111,ignore,1.0,1400.0,2.16712163556
164,2_7_13,7,13.0,649.326949547,2_ND,training,02,1_A,165.0,01010,kill,1.0,1500.0,2.53466140444
165,2_7_13,7,13.0,653.124134969,2_ND,training,02,1_A,166.0,01101,ignore,1.0,1600.0,1.63928860444
166,2_7_13,7,13.0,657.984237511,2_ND,training,02,1_A,167.0,10010,ignore,1.0,1700.0,2.71688704
167,2_7_13,7,13.0,662.765761138,2_ND,training,02,1_A,168.0,11010,kill,0.0,1600.0,2.64673934222
168,2_7_13,7,13.0,666.891337102,2_ND,training,02,1_A,169.0,00011,kill,0.0,1500.0,1.97086464
169,2_7_13,7,13.0,669.64158208,2_ND,training,02,1_A,170.0,10100,ignore,1.0,1600.0,0.578032924444
170,2_7_13,7,13.0,673.001307022,2_ND,training,02,1_A,171.0,01001,ignore,1.0,1700.0,1.19418339555
171,2_7_13,7,13.0,688.174830933,2_ND,training,02,1_A,172.0,11000,ignore,1.0,1800.0,13.02554368
172,2_7_13,7,13.0,693.628540871,2_ND,training,02,1_A,173.0,10101,kill,1.0,1900.0,3.27705685333
173,2_7_13,7,13.0,697.082031502,2_ND,training,02,1_A,174.0,11100,ignore,1.0,2000.0,1.30333184
174,2_7_13,7,13.0,700.722937742,2_ND,training,02,1_A,175.0,00110,kill,1.0,2100.0,1.48218766222
175,2_7_13,7,13.0,704.23904768,2_ND,training,02,1_A,176.0,00000,ignore,0.0,2000.0,1.34125539555
176,2_7_13,7,13.0,708.208200533,2_ND,training,02,1_A,177.0,00010,ignore,0.0,1900.0,1.81438236444
177,2_7_13,7,13.0,712.599292587,2_ND,training,02,1_A,178.0,10111,kill,1.0,2000.0,2.21961472
178,2_7_13,7,13.0,716.709099804,2_ND,training,02,1_A,179.0,01000,ignore,0.0,1900.0,1.96128910222
179,2_7_13,7,13.0,721.037738951,2_ND,training,02,1_A,180.0,11110,kill,0.0,1800.0,2.18581134222
180,2_7_13,7,13.0,732.945206044,2_ND,training,02,1_A,181.0,01011,ignore,1.0,1900.0,9.76068551111
181,2_7_13,7,13.0,750.572162844,2_ND,training,02,1_A,182.0,11011,kill,1.0,2000.0,15.4911809422
182,2_7_13,7,13.0,757.588489387,2_ND,training,02,1_A,183.0,10000,ignore,1.0,2100.0,4.85980416
183,2_7_13,7,13.0,761.057566436,2_ND,training,02,1_A,184.0,01111,kill,0.0,2000.0,1.29265692444
184,2_7_13,7,13.0,769.120943787,2_ND,training,02,1_A,185.0,00001,ignore,1.0,2100.0,5.91132444445
185,2_7_13,7,13.0,780.169042773,2_ND,training,02,1_A,186.0,01100,kill,1.0,2200.0,8.88626005334
186,2_7_13,7,13.0,793.857976036,2_ND,training,02,1_A,187.0,00100,kill,1.0,2300.0,11.5314210133
187,2_7_13,7,13.0,816.969813049,2_ND,training,02,1_A,188.0,00101,ignore,1.0,2400.0,20.9405639111
188,2_7_13,7,13.0,832.190196053,2_ND,training,02,1_A,189.0,11111,kill,1.0,2500.0,13.06979584
189,2_7_13,7,13.0,843.566431004,2_ND,training,02,1_A,190.0,11001,ignore,0.0,2400.0,9.20871196445
190,2_7_13,7,13.0,865.318855396,2_ND,training,02,1_A,191.0,01110,kill,1.0,2500.0,19.6166567822
191,2_7_13,7,13.0,879.320218453,2_ND,training,02,1_A,192.0,10011,kill,1.0,2600.0,11.8322628267
192,2_7_13,7,13.0,887.883606187,2_ND,training,02,1_A,193.0,01110,kill,1.0,2700.0,6.40477553778
193,2_7_13,7,13.0,903.682178276,2_ND,training,02,1_A,194.0,00001,kill,0.0,2600.0,13.6470519467
194,2_7_13,7,13.0,911.401745067,2_ND,training,02,1_A,195.0,11001,ignore,0.0,2500.0,5.56322759111
195,2_7_13,7,13.0,921.168411307,2_ND,training,02,1_A,196.0,00000,ignore,0.0,2400.0,7.59049813333
196,2_7_13,7,13.0,925.231317902,2_ND,training,02,1_A,197.0,11000,kill,0.0,2300.0,1.89689486222
197,2_7_13,7,13.0,934.982368142,2_ND,training,02,1_A,198.0,11101,ignore,0.0,2200.0,7.60363349333
198,2_7_13,7,13.0,939.670407396,2_ND,training,02,1_A,199.0,00111,kill,0.0,2100.0,2.50873457778
199,2_7_13,7,13.0,942.608223573,2_ND,training,02,1_A,200.0,01000,kill,1.0,2200.0,0.798695253332
200,2_7_13,7,13.0,946.061713067,2_ND,training,02,1_A,201.0,10000,kill,0.0,2100.0,1.28557624889
201,2_7_13,7,13.0,948.499551289,2_ND,training,02,1_A,202.0,10011,kill,1.0,2200.0,0.273485368889
202,2_7_13,7,13.0,951.046631822,2_ND,training,02,1_A,203.0,01101,kill,0.0,2100.0,0.397925831112
203,2_7_13,7,13.0,953.421832818,2_ND,training,02,1_A,204.0,11100,kill,0.0,2000.0,0.213758008889
204,2_7_13,7,13.0,955.968977636,2_ND,training,02,1_A,205.0,11111,ignore,0.0,1900.0,0.396906382222
205,2_7_13,7,13.0,958.359906702,2_ND,training,02,1_A,206.0,01011,ignore,1.0,2000.0,0.236652373333
206,2_7_13,7,13.0,961.297714916,2_ND,training,02,1_A,207.0,00010,kill,1.0,2100.0,0.786845013332
207,2_7_13,7,13.0,963.797973333,2_ND,training,02,1_A,208.0,10100,kill,0.0,2000.0,0.339799324443
208,2_7_13,7,13.0,968.751616,2_ND,training,02,1_A,209.0,00110,kill,1.0,2100.0,2.78944967111
209,2_7_13,7,13.0,971.423792924,2_ND,training,02,1_A,210.0,00011,ignore,1.0,2200.0,0.506847004443
210,2_7_13,7,13.0,974.955396551,2_ND,training,02,1_A,211.0,11110,kill,0.0,2100.0,1.37456384
211,2_7_13,7,13.0,977.486907733,2_ND,training,02,1_A,212.0,00100,kill,1.0,2200.0,0.357516515553
212,2_7_13,7,13.0,980.1590784,2_ND,training,02,1_A,213.0,01010,kill,1.0,2300.0,0.535414613332
213,2_7_13,7,13.0,982.768742969,2_ND,training,02,1_A,214.0,01111,ignore,1.0,2400.0,0.449150008888
214,2_7_13,7,13.0,985.440914489,2_ND,training,02,1_A,215.0,10101,ignore,0.0,2300.0,0.510896071111
215,2_7_13,7,13.0,987.894258347,2_ND,training,02,1_A,216.0,00101,ignore,1.0,2400.0,0.290019840002
216,2_7_13,7,13.0,990.332038827,2_ND,training,02,1_A,217.0,11011,kill,1.0,2500.0,0.277857280002
217,2_7_13,7,13.0,992.769821013,2_ND,training,02,1_A,218.0,11010,kill,0.0,2400.0,0.298909582223
218,2_7_13,7,13.0,995.113779769,2_ND,training,02,1_A,219.0,01100,kill,1.0,2500.0,0.182492728891
219,2_7_13,7,13.0,997.785993671,2_ND,training,02,1_A,220.0,10001,ignore,0.0,2400.0,0.51924366222
220,2_7_13,7,13.0,1000.44250084,2_ND,training,02,1_A,221.0,01001,ignore,1.0,2500.0,0.49819249778
221,2_7_13,7,13.0,1003.06775979,2_ND,training,02,1_A,222.0,10111,kill,1.0,2600.0,0.477745777778
222,2_7_13,7,13.0,1006.00553244,2_ND,training,02,1_A,223.0,10010,kill,0.0,2500.0,0.795213368889
223,2_7_13,7,13.0,1008.55275634,2_ND,training,02,1_A,224.0,10110,kill,0.0,2400.0,0.37076224
224,2_7_13,7,13.0,1011.27176277,2_ND,training,02,1_A,225.0,10001,kill,1.0,2500.0,0.546525297777
225,2_7_13,7,13.0,1013.63140864,2_ND,training,02,1_A,226.0,00111,kill,0.0,2400.0,0.219897457777
226,2_7_13,7,13.0,1016.02231296,2_ND,training,02,1_A,227.0,00101,kill,0.0,2300.0,0.227580017778
227,2_7_13,7,13.0,1018.39751623,2_ND,training,02,1_A,228.0,00000,kill,1.0,2400.0,0.217505848887
228,2_7_13,7,13.0,1020.81968526,2_ND,training,02,1_A,229.0,11100,ignore,1.0,2500.0,0.28146944
229,2_7_13,7,13.0,1023.21052132,2_ND,training,02,1_A,230.0,10101,ignore,0.0,2400.0,0.222215680002
230,2_7_13,7,13.0,1025.58583097,2_ND,training,02,1_A,231.0,11010,kill,0.0,2300.0,0.220580693334
231,2_7_13,7,13.0,1027.94544185,2_ND,training,02,1_A,232.0,01100,kill,1.0,2400.0,0.212261831111
232,2_7_13,7,13.0,1030.38321436,2_ND,training,02,1_A,233.0,10110,ignore,1.0,2500.0,0.275572906667
233,2_7_13,7,13.0,1033.07109717,2_ND,training,02,1_A,234.0,00001,kill,0.0,2400.0,0.535780124446
234,2_7_13,7,13.0,1035.47747925,2_ND,training,02,1_A,235.0,10100,ignore,1.0,2500.0,0.249668551111
235,2_7_13,7,13.0,1037.93084302,2_ND,training,02,1_A,236.0,01001,ignore,1.0,2600.0,0.31243776
236,2_7_13,7,13.0,1040.30609465,2_ND,training,02,1_A,237.0,01010,ignore,0.0,2500.0,0.21169607111
237,2_7_13,7,13.0,1042.63452132,2_ND,training,02,1_A,238.0,01111,ignore,1.0,2600.0,0.17104213333
238,2_7_13,7,13.0,1044.96287858,2_ND,training,02,1_A,239.0,00011,ignore,1.0,2700.0,0.180467768889
239,2_7_13,7,13.0,1047.33813476,2_ND,training,02,1_A,240.0,10111,ignore,0.0,2600.0,0.237161813333
240,2_7_13,7,13.0,1049.63525774,2_ND,training,02,1_A,241.0,01011,ignore,1.0,2700.0,0.165142186666
241,2_7_13,7,13.0,1051.97920455,2_ND,training,02,1_A,242.0,11110,ignore,1.0,2800.0,0.173839359999
242,2_7_13,7,13.0,1054.26072974,2_ND,training,02,1_A,243.0,11111,ignore,0.0,2700.0,0.126567253334
243,2_7_13,7,13.0,1056.57351822,2_ND,training,02,1_A,244.0,11101,ignore,0.0,2600.0,0.16999623111
244,2_7_13,7,13.0,1058.77685305,2_ND,training,02,1_A,245.0,10000,ignore,1.0,2700.0,0.0512813511123
245,2_7_13,7,13.0,1060.9176758,2_ND,training,02,1_A,246.0,01000,ignore,0.0,2600.0,0.0100408888902
246,2_7_13,7,13.0,1063.23023303,2_ND,training,02,1_A,247.0,10011,ignore,0.0,2500.0,0.170285511111
247,2_7_13,7,13.0,1065.55880363,2_ND,training,02,1_A,248.0,00010,ignore,0.0,2400.0,0.171504071113
248,2_7_13,7,13.0,1067.87156423,2_ND,training,02,1_A,249.0,11001,ignore,0.0,2300.0,0.18112768
249,2_7_13,7,13.0,1070.18429753,2_ND,training,02,1_A,250.0,00100,ignore,0.0,2200.0,0.166194631111
250,2_7_13,7,13.0,1072.51268466,2_ND,training,02,1_A,251.0,10010,ignore,1.0,2300.0,0.183654115554
251,2_7_13,7,13.0,1074.84114318,2_ND,training,02,1_A,252.0,00110,ignore,0.0,2200.0,0.185054151112
252,2_7_13,7,13.0,1077.20070713,2_ND,training,02,1_A,253.0,01101,ignore,1.0,2300.0,0.193299911112
253,2_7_13,7,13.0,1079.52902969,2_ND,training,02,1_A,254.0,11011,ignore,0.0,2200.0,0.185955555553
254,2_7_13,7,13.0,1081.81054606,2_ND,training,02,1_A,255.0,01110,ignore,0.0,2100.0,0.113806506666
255,2_7_13,7,13.0,1084.13891812,2_ND,training,02,1_A,256.0,11000,ignore,1.0,2200.0,0.173378560001
256,2_7_13,7,13.0,1086.48295452,2_ND,training,02,1_A,257.0,00100,ignore,0.0,2100.0,0.182109582223
257,2_7_13,7,13.0,1088.71752021,2_ND,training,02,1_A,258.0,01101,ignore,1.0,2200.0,0.0786924088898
258,2_7_13,7,13.0,1091.3428187,2_ND,training,02,1_A,259.0,01001,kill,0.0,2100.0,0.500119324442
259,2_7_13,7,13.0,1093.57744555,2_ND,training,02,1_A,260.0,01100,kill,1.0,2200.0,0.0551551999997
260,2_7_13,7,13.0,1096.15584683,2_ND,training,02,1_A,261.0,11101,ignore,0.0,2100.0,0.404740266669
261,2_7_13,7,13.0,1098.46859093,2_ND,training,02,1_A,262.0,11010,ignore,1.0,2200.0,0.172504177779
262,2_7_13,7,13.0,1100.85945685,2_ND,training,02,1_A,263.0,11100,kill,0.0,2100.0,0.221203342222
263,2_7_13,7,13.0,1103.18775865,2_ND,training,02,1_A,264.0,01010,kill,1.0,2200.0,0.188398080001
264,2_7_13,7,13.0,1105.51622969,2_ND,training,02,1_A,265.0,01011,kill,0.0,2100.0,0.180900124444
265,2_7_13,7,13.0,1107.6726602,2_ND,training,02,1_A,266.0,00110,kill,1.0,2200.0,0.000292693330266
266,2_7_13,7,13.0,1110.14171847,2_ND,training,02,1_A,267.0,10100,ignore,1.0,2300.0,0.286102755555
267,2_7_13,7,13.0,1112.92323982,2_ND,training,02,1_A,268.0,10110,kill,0.0,2200.0,0.625239608889
268,2_7_13,7,13.0,1115.26725689,2_ND,training,02,1_A,269.0,00101,kill,0.0,2100.0,0.174878719998
269,2_7_13,7,13.0,1117.58001692,2_ND,training,02,1_A,270.0,10000,kill,0.0,2000.0,0.184225564444
270,2_7_13,7,13.0,1119.9864778,2_ND,training,02,1_A,271.0,11011,kill,1.0,2100.0,0.257474844442
271,2_7_13,7,13.0,1122.48685938,2_ND,training,02,1_A,272.0,10001,kill,1.0,2200.0,0.367666062222
272,2_7_13,7,13.0,1124.8151606,2_ND,training,02,1_A,273.0,10111,kill,1.0,2300.0,0.177627306668
273,2_7_13,7,13.0,1127.14351531,2_ND,training,02,1_A,274.0,10010,kill,0.0,2200.0,0.17836288
274,2_7_13,7,13.0,1129.92505088,2_ND,training,02,1_A,275.0,01000,ignore,0.0,2100.0,0.651521706666
275,2_7_13,7,13.0,1132.48782165,2_ND,training,02,1_A,276.0,00001,ignore,1.0,2200.0,0.401367608891
276,2_7_13,7,13.0,1135.03496533,2_ND,training,02,1_A,277.0,00011,ignore,1.0,2300.0,0.409932231112
277,2_7_13,7,13.0,1137.58214628,2_ND,training,02,1_A,278.0,10011,ignore,0.0,2200.0,0.384135964447
278,2_7_13,7,13.0,1140.19178866,2_ND,training,02,1_A,279.0,00010,ignore,0.0,2100.0,0.440963982222
279,2_7_13,7,13.0,1143.59839488,2_ND,training,02,1_A,280.0,00000,kill,1.0,2200.0,1.25435761778
280,2_7_13,7,13.0,1160.72524231,2_ND,training,02,1_A,281.0,00111,ignore,1.0,2300.0,14.9463483733
281,2_7_13,7,13.0,1167.63221305,2_ND,training,02,1_A,282.0,01111,ignore,1.0,2400.0,4.77778403556
282,2_7_13,7,13.0,1171.96057913,2_ND,training,02,1_A,283.0,11110,kill,0.0,2300.0,2.16594744889
283,2_7_13,7,13.0,1177.16450162,2_ND,training,02,1_A,284.0,11000,ignore,1.0,2400.0,3.06232718222
284,2_7_13,7,13.0,1179.97729308,2_ND,training,02,1_A,285.0,11001,ignore,0.0,2300.0,0.674559146668
285,2_7_13,7,13.0,1185.07136398,2_ND,training,02,1_A,286.0,10101,ignore,0.0,2200.0,2.92630385778
286,2_7_13,7,13.0,1189.65022549,2_ND,training,02,1_A,287.0,01110,ignore,0.0,2100.0,2.44807594667
287,2_7_13,7,13.0,1192.15045006,2_ND,training,02,1_A,288.0,11111,ignore,0.0,2000.0,0.356819342225
288,2_7_13,7,13.0,1194.58821632,2_ND,training,02,1_A,289.0,11010,ignore,1.0,2100.0,0.294524302222
289,2_7_13,7,13.0,1197.07285106,2_ND,training,02,1_A,290.0,00111,ignore,1.0,2200.0,0.347288462224
290,2_7_13,7,13.0,1199.27621291,2_ND,training,02,1_A,291.0,01101,ignore,1.0,2300.0,0.0619181511101
291,2_7_13,7,13.0,1203.52668985,2_ND,training,02,1_A,292.0,00000,ignore,0.0,2200.0,2.09937095111
292,2_7_13,7,13.0,1206.71449799,2_ND,training,02,1_A,293.0,11101,ignore,0.0,2100.0,1.02034744889
293,2_7_13,7,13.0,1211.62129522,2_ND,training,02,1_A,294.0,01111,ignore,1.0,2200.0,2.75563036445
294,2_7_13,7,13.0,1214.07467406,2_ND,training,02,1_A,295.0,00001,ignore,1.0,2300.0,0.308197262224
295,2_7_13,7,13.0,1218.35638756,2_ND,training,02,1_A,296.0,10111,ignore,0.0,2200.0,2.11845432889
296,2_7_13,7,13.0,1220.51281778,2_ND,training,02,1_A,297.0,10010,ignore,1.0,2300.0,0.000187164441741
297,2_7_13,7,13.0,1222.77874034,2_ND,training,02,1_A,298.0,11011,ignore,0.0,2200.0,0.129362204443
298,2_7_13,7,13.0,1225.24774428,2_ND,training,02,1_A,299.0,11001,ignore,0.0,2100.0,0.316075520001
299,2_7_13,7,13.0,1230.49830514,2_ND,training,02,1_A,300.0,00101,ignore,1.0,2200.0,3.11209301334
300,2_7_13,7,13.0,1235.07670443,2_ND,training,02,1_A,301.0,01000,ignore,0.0,2100.0,2.39225742222
301,2_7_13,7,13.0,1237.87405995,2_ND,training,02,1_A,302.0,01010,ignore,0.0,2000.0,0.62148750222
302,2_7_13,7,13.0,1241.63986005,2_ND,training,02,1_A,303.0,01100,ignore,0.0,1900.0,1.61985393778
303,2_7_13,7,13.0,1245.99998521,2_ND,training,02,1_A,304.0,10110,ignore,1.0,2000.0,2.19395157333
304,2_7_13,7,13.0,1248.9846491,2_ND,training,02,1_A,305.0,10100,ignore,1.0,2100.0,0.823866311111
305,2_7_13,7,13.0,1251.51618247,2_ND,training,02,1_A,306.0,01011,ignore,1.0,2200.0,0.382644053334
306,2_7_13,7,13.0,1253.95391317,2_ND,training,02,1_A,307.0,00011,ignore,1.0,2300.0,0.287147804444
307,2_7_13,7,13.0,1256.71982251,2_ND,training,02,1_A,308.0,00100,ignore,0.0,2200.0,0.636554524444
308,2_7_13,7,13.0,1259.14197134,2_ND,training,02,1_A,309.0,01001,ignore,1.0,2300.0,0.28339968
309,2_7_13,7,13.0,1261.61098183,2_ND,training,02,1_A,310.0,01110,ignore,0.0,2200.0,0.303936
