,unique_id,pair_id,sbj_id,wall_time,condition,block,rule_id,rule_num,trial,stimulus,choice,correct,points,reaction_time
0,1_5_9,5,9.0,83.7880566455,1_I,training,05,1_A,1.0,01100,ignore,1.0,100.0,3.95658737658
1,1_5_9,5,9.0,87.6163487943,1_I,training,05,1_A,2.0,00101,ignore,1.0,200.0,1.9864152938
2,1_5_9,5,9.0,91.6165761896,1_I,training,05,1_A,3.0,11001,kill,1.0,300.0,2.1911230507
3,1_5_9,5,9.0,94.9292213586,1_I,training,05,1_A,4.0,11000,kill,0.0,200.0,1.49998043566
4,1_5_9,5,9.0,99.8414676075,1_I,training,05,1_A,5.0,10001,ignore,1.0,300.0,3.10038846435
5,1_5_9,5,9.0,102.591596379,1_I,training,05,1_A,6.0,00011,ignore,1.0,400.0,0.940523772595
6,1_5_9,5,9.0,107.529351317,1_I,training,05,1_A,7.0,11100,kill,0.0,300.0,3.13266513103
7,1_5_9,5,9.0,111.279555139,1_I,training,05,1_A,8.0,11101,ignore,0.0,200.0,1.93871743901
8,1_5_9,5,9.0,117.51427042,1_I,training,05,1_A,9.0,01001,kill,1.0,300.0,4.41742694965
9,1_5_9,5,9.0,120.436252653,1_I,training,05,1_A,10.0,00111,kill,0.0,200.0,1.09907252211
10,1_5_9,5,9.0,124.655245904,1_I,training,05,1_A,11.0,10111,kill,0.0,100.0,2.41200249654
11,1_5_9,5,9.0,128.952332614,1_I,training,05,1_A,12.0,10101,kill,0.0,0.0,2.48771552042
12,1_5_9,5,9.0,132.874416838,1_I,training,05,1_A,13.0,00000,ignore,0.0,0.0,2.10410087758
13,1_5_9,5,9.0,142.265536169,1_I,training,05,1_A,14.0,01101,kill,1.0,100.0,7.58425814919
14,1_5_9,5,9.0,147.500190512,1_I,training,05,1_A,15.0,01000,kill,0.0,0.0,3.44194459252
15,1_5_9,5,9.0,156.078747421,1_I,training,05,1_A,16.0,00001,kill,0.0,0.0,6.77224032191
16,1_5_9,5,9.0,159.703907864,1_I,training,05,1_A,17.0,01110,ignore,1.0,100.0,1.83893097894
17,1_5_9,5,9.0,163.954150815,1_I,training,05,1_A,18.0,11011,ignore,0.0,0.0,2.47553527707
18,1_5_9,5,9.0,167.251217639,1_I,training,05,1_A,19.0,11010,kill,0.0,0.0,1.51771663014
19,1_5_9,5,9.0,180.733173868,1_I,training,05,1_A,20.0,10011,kill,0.0,0.0,11.6864523057
20,1_5_9,5,9.0,184.592745544,1_I,training,05,1_A,21.0,10110,ignore,0.0,0.0,2.04851218024
21,1_5_9,5,9.0,187.874167634,1_I,training,05,1_A,22.0,00100,ignore,0.0,0.0,1.47455064566
22,1_5_9,5,9.0,193.374640064,1_I,training,05,1_A,23.0,01111,kill,1.0,100.0,3.71783638954
23,1_5_9,5,9.0,196.843579273,1_I,training,05,1_A,24.0,10010,ignore,0.0,0.0,1.68541507506
24,1_5_9,5,9.0,202.343849646,1_I,training,05,1_A,25.0,00110,kill,1.0,100.0,3.69518249037
25,1_5_9,5,9.0,205.422128164,1_I,training,05,1_A,26.0,00010,ignore,0.0,0.0,1.31186580276
26,1_5_9,5,9.0,208.422299111,1_I,training,05,1_A,27.0,11110,kill,0.0,0.0,1.22609446432
27,1_5_9,5,9.0,220.563539195,1_I,training,05,1_A,28.0,01010,kill,0.0,0.0,10.3595524321
28,1_5_9,5,9.0,227.392043344,1_I,training,05,1_A,29.0,11111,kill,1.0,100.0,5.04799260276
29,1_5_9,5,9.0,234.564272377,1_I,training,05,1_A,30.0,01011,kill,1.0,200.0,5.37711415118
30,1_5_9,5,9.0,239.33012382,1_I,training,05,1_A,31.0,10100,ignore,0.0,100.0,2.97236008131
31,1_5_9,5,9.0,247.533696204,1_I,training,05,1_A,32.0,10000,kill,1.0,200.0,6.41840901525
32,1_5_9,5,9.0,251.049480775,1_I,training,05,1_A,33.0,11110,kill,0.0,100.0,1.74055090608
33,1_5_9,5,9.0,258.065504609,1_I,training,05,1_A,34.0,11010,ignore,1.0,200.0,5.24479861241
34,1_5_9,5,9.0,264.300182365,1_I,training,05,1_A,35.0,01100,kill,0.0,100.0,4.44549503868
35,1_5_9,5,9.0,268.753531363,1_I,training,05,1_A,36.0,01101,ignore,0.0,0.0,2.67180759725
36,1_5_9,5,9.0,278.816567658,1_I,training,05,1_A,37.0,11011,ignore,0.0,0.0,8.27396230433
37,1_5_9,5,9.0,281.816694345,1_I,training,05,1_A,38.0,00001,ignore,1.0,100.0,1.19895872823
38,1_5_9,5,9.0,284.910590657,1_I,training,05,1_A,39.0,00101,ignore,1.0,200.0,1.28445841103
39,1_5_9,5,9.0,289.145237944,1_I,training,05,1_A,40.0,10111,kill,0.0,100.0,2.4386981954
40,1_5_9,5,9.0,295.411188813,1_I,training,05,1_A,41.0,00000,ignore,0.0,0.0,4.48192928743
41,1_5_9,5,9.0,298.692577547,1_I,training,05,1_A,42.0,10000,ignore,0.0,0.0,1.50656367486
42,1_5_9,5,9.0,303.239695848,1_I,training,05,1_A,43.0,01110,kill,0.0,0.0,2.75694293436
43,1_5_9,5,9.0,306.911769328,1_I,training,05,1_A,44.0,00100,ignore,0.0,0.0,1.87484468803
44,1_5_9,5,9.0,316.818554561,1_I,training,05,1_A,45.0,00010,kill,1.0,100.0,8.13372834052
45,1_5_9,5,9.0,322.318805369,1_I,training,05,1_A,46.0,11001,ignore,0.0,0.0,3.70481487967
46,1_5_9,5,9.0,325.784272069,1_I,training,05,1_A,47.0,01111,ignore,0.0,0.0,1.69681178273
47,1_5_9,5,9.0,331.643946698,1_I,training,05,1_A,48.0,10001,kill,0.0,0.0,4.0667714802
48,1_5_9,5,9.0,334.349883801,1_I,training,05,1_A,49.0,11000,kill,0.0,0.0,0.924360422563
49,1_5_9,5,9.0,338.381356405,1_I,training,05,1_A,50.0,10010,kill,1.0,100.0,2.23754312974
50,1_5_9,5,9.0,345.334827279,1_I,training,05,1_A,51.0,01001,ignore,0.0,0.0,5.16946917783
51,1_5_9,5,9.0,351.46012788,1_I,training,05,1_A,52.0,11100,kill,0.0,0.0,4.33390935875
52,1_5_9,5,9.0,359.632439339,1_I,training,05,1_A,53.0,01011,ignore,0.0,0.0,6.3959071406
53,1_5_9,5,9.0,364.210816,1_I,training,05,1_A,54.0,11111,ignore,0.0,0.0,2.7990858002
54,1_5_9,5,9.0,367.58601028,1_I,training,05,1_A,55.0,01010,ignore,1.0,100.0,1.60425643009
55,1_5_9,5,9.0,372.648735791,1_I,training,05,1_A,56.0,00111,kill,0.0,0.0,3.26533571441
56,1_5_9,5,9.0,380.415576676,1_I,training,05,1_A,57.0,10100,ignore,0.0,0.0,5.9789933539
57,1_5_9,5,9.0,389.166024251,1_I,training,05,1_A,58.0,10101,kill,0.0,0.0,6.96594169571
58,1_5_9,5,9.0,395.056938316,1_I,training,05,1_A,59.0,11101,kill,1.0,100.0,4.13014902894
59,1_5_9,5,9.0,399.432167876,1_I,training,05,1_A,60.0,00110,kill,1.0,200.0,2.59303580146
60,1_5_9,5,9.0,403.045007919,1_I,training,05,1_A,61.0,10011,kill,0.0,100.0,1.83076527349
61,1_5_9,5,9.0,406.654413298,1_I,training,05,1_A,62.0,00011,kill,0.0,0.0,1.82732964754
62,1_5_9,5,9.0,413.576656282,1_I,training,05,1_A,63.0,10110,kill,1.0,100.0,5.13628228837
63,1_5_9,5,9.0,418.201899793,1_I,training,05,1_A,64.0,01000,ignore,1.0,200.0,2.86267053848
64,1_5_9,5,9.0,424.514725211,1_I,training,05,1_A,65.0,10111,kill,0.0,100.0,4.54517309307
65,1_5_9,5,9.0,429.436866845,1_I,training,05,1_A,66.0,10101,ignore,1.0,200.0,3.11872922893
66,1_5_9,5,9.0,438.734191213,1_I,training,05,1_A,67.0,01001,kill,1.0,300.0,7.51063209488
67,1_5_9,5,9.0,442.265635273,1_I,training,05,1_A,68.0,00000,ignore,0.0,200.0,1.74745006123
68,1_5_9,5,9.0,456.422641327,1_I,training,05,1_A,69.0,11111,kill,1.0,300.0,12.3792963766
69,1_5_9,5,9.0,459.813424214,1_I,training,05,1_A,70.0,11000,kill,0.0,200.0,1.6015886242
70,1_5_9,5,9.0,463.454248957,1_I,training,05,1_A,71.0,00010,kill,1.0,300.0,1.84743280612
71,1_5_9,5,9.0,468.395085759,1_I,training,05,1_A,72.0,10000,kill,1.0,400.0,3.17113663669
72,1_5_9,5,9.0,473.082838291,1_I,training,05,1_A,73.0,00001,ignore,1.0,500.0,2.88080796224
73,1_5_9,5,9.0,478.223744819,1_I,training,05,1_A,74.0,11110,ignore,1.0,600.0,3.37042410994
74,1_5_9,5,9.0,483.380240596,1_I,training,05,1_A,75.0,00100,ignore,0.0,500.0,3.36812930937
75,1_5_9,5,9.0,488.286749684,1_I,training,05,1_A,76.0,11001,ignore,0.0,400.0,3.11794088235
76,1_5_9,5,9.0,495.193363007,1_I,training,05,1_A,77.0,10011,kill,0.0,300.0,5.12574609082
77,1_5_9,5,9.0,498.177903652,1_I,training,05,1_A,78.0,01011,kill,1.0,400.0,1.21196869193
78,1_5_9,5,9.0,513.319295119,1_I,training,05,1_A,79.0,11010,kill,0.0,300.0,13.3872064628
79,1_5_9,5,9.0,517.140479641,1_I,training,05,1_A,80.0,00110,kill,1.0,400.0,2.04024704947
80,1_5_9,5,9.0,521.296949759,1_I,training,05,1_A,81.0,10110,ignore,0.0,300.0,2.36421163097
81,1_5_9,5,9.0,524.56277362,1_I,training,05,1_A,82.0,10001,ignore,1.0,400.0,1.49106038068
82,1_5_9,5,9.0,529.625513564,1_I,training,05,1_A,83.0,01000,kill,0.0,300.0,3.26963858575
83,1_5_9,5,9.0,532.485061185,1_I,training,05,1_A,84.0,01100,kill,0.0,200.0,1.09563304744
84,1_5_9,5,9.0,535.422714773,1_I,training,05,1_A,85.0,00111,kill,0.0,100.0,1.16223614604
85,1_5_9,5,9.0,538.954138627,1_I,training,05,1_A,86.0,01111,ignore,0.0,0.0,1.76334207634
86,1_5_9,5,9.0,546.532654804,1_I,training,05,1_A,87.0,01110,ignore,1.0,100.0,5.80288769621
87,1_5_9,5,9.0,551.986002518,1_I,training,05,1_A,88.0,01010,kill,0.0,0.0,3.69408079366
88,1_5_9,5,9.0,556.720677067,1_I,training,05,1_A,89.0,11011,ignore,0.0,0.0,2.96755527246
89,1_5_9,5,9.0,560.252124655,1_I,training,05,1_A,90.0,11100,kill,0.0,0.0,1.758499101
90,1_5_9,5,9.0,572.987151362,1_I,training,05,1_A,91.0,01101,ignore,0.0,0.0,10.9494342058
91,1_5_9,5,9.0,576.065450086,1_I,training,05,1_A,92.0,11101,ignore,0.0,0.0,1.2942325616
92,1_5_9,5,9.0,589.269253714,1_I,training,05,1_A,93.0,00011,ignore,1.0,100.0,11.4246946199
93,1_5_9,5,9.0,592.597536882,1_I,training,05,1_A,94.0,10100,kill,1.0,200.0,1.53386330237
94,1_5_9,5,9.0,597.738418714,1_I,training,05,1_A,95.0,00101,ignore,1.0,300.0,3.3577076113
95,1_5_9,5,9.0,601.191743336,1_I,training,05,1_A,96.0,10010,kill,1.0,400.0,1.67606203884
96,1_5_9,5,9.0,605.926352778,1_I,training,05,1_A,97.0,11011,kill,1.0,500.0,2.95185601417
97,1_5_9,5,9.0,614.114274333,1_I,training,05,1_A,98.0,00101,ignore,1.0,600.0,6.40677689407
98,1_5_9,5,9.0,618.584240188,1_I,training,05,1_A,99.0,00010,ignore,0.0,500.0,2.68854729342
99,1_5_9,5,9.0,623.663714697,1_I,training,05,1_A,100.0,10001,kill,0.0,400.0,3.30622068958
100,1_5_9,5,9.0,630.507834074,1_I,training,05,1_A,101.0,01100,ignore,1.0,500.0,5.07538075087
101,1_5_9,5,9.0,634.117387949,1_I,training,05,1_A,102.0,11001,ignore,0.0,400.0,1.84361070432
102,1_5_9,5,9.0,637.117576537,1_I,training,05,1_A,103.0,01001,ignore,0.0,300.0,1.22485710015
103,1_5_9,5,9.0,639.930158522,1_I,training,05,1_A,104.0,01000,ignore,1.0,400.0,1.04606663806
104,1_5_9,5,9.0,652.868371137,1_I,training,05,1_A,105.0,10000,ignore,0.0,300.0,11.1710487575
105,1_5_9,5,9.0,662.337594831,1_I,training,05,1_A,106.0,00111,kill,0.0,200.0,7.6751069143
106,1_5_9,5,9.0,665.369025741,1_I,training,05,1_A,107.0,11100,kill,0.0,100.0,1.25735282326
107,1_5_9,5,9.0,677.494641937,1_I,training,05,1_A,108.0,00001,ignore,1.0,200.0,10.34143778
108,1_5_9,5,9.0,684.870028654,1_I,training,05,1_A,109.0,00100,kill,1.0,300.0,5.59853498392
109,1_5_9,5,9.0,687.948285683,1_I,training,05,1_A,110.0,01011,ignore,0.0,200.0,1.30568475502
110,1_5_9,5,9.0,691.526601726,1_I,training,05,1_A,111.0,11111,kill,1.0,300.0,1.80447401118
111,1_5_9,5,9.0,694.233011259,1_I,training,05,1_A,112.0,00110,kill,1.0,400.0,0.913509271249
112,1_5_9,5,9.0,696.983119825,1_I,training,05,1_A,113.0,11101,kill,1.0,500.0,0.964143380297
113,1_5_9,5,9.0,706.061730937,1_I,training,05,1_A,114.0,11010,ignore,1.0,600.0,7.31566769877
114,1_5_9,5,9.0,708.780610972,1_I,training,05,1_A,115.0,10110,kill,1.0,700.0,0.936744006736
115,1_5_9,5,9.0,714.890332267,1_I,training,05,1_A,116.0,00011,kill,0.0,600.0,4.33848997953
116,1_5_9,5,9.0,717.609215188,1_I,training,05,1_A,117.0,10100,kill,1.0,700.0,0.944773724004
117,1_5_9,5,9.0,721.859446592,1_I,training,05,1_A,118.0,11000,ignore,1.0,800.0,2.4826804297
118,1_5_9,5,9.0,724.609611606,1_I,training,05,1_A,119.0,01110,kill,0.0,700.0,0.980980898148
119,1_5_9,5,9.0,728.109790893,1_I,training,05,1_A,120.0,10010,kill,1.0,800.0,1.72467909676
120,1_5_9,5,9.0,732.250621408,1_I,training,05,1_A,121.0,00000,kill,1.0,900.0,2.36575400636
121,1_5_9,5,9.0,735.3757764,1_I,training,05,1_A,122.0,10101,kill,0.0,800.0,1.33250521662
122,1_5_9,5,9.0,740.266672825,1_I,training,05,1_A,123.0,01010,ignore,1.0,900.0,3.11771541137
123,1_5_9,5,9.0,744.048077916,1_I,training,05,1_A,124.0,11110,kill,0.0,800.0,2.02236941446
124,1_5_9,5,9.0,746.720153,1_I,training,05,1_A,125.0,10111,kill,0.0,700.0,0.883409698396
125,1_5_9,5,9.0,750.017179413,1_I,training,05,1_A,126.0,01101,kill,1.0,800.0,1.51841100376
126,1_5_9,5,9.0,755.970614365,1_I,training,05,1_A,127.0,01111,kill,1.0,900.0,4.1844907403
127,1_5_9,5,9.0,759.689530321,1_I,training,05,1_A,128.0,10011,kill,0.0,800.0,1.94073930103
128,1_5_9,5,9.0,766.627384364,1_I,training,05,1_A,129.0,00010,kill,1.0,900.0,5.16493762825
129,1_5_9,5,9.0,772.362065006,1_I,training,05,1_A,130.0,01000,ignore,1.0,1000.0,3.94570607694
130,1_5_9,5,9.0,778.206150707,1_I,training,05,1_A,131.0,01110,kill,0.0,900.0,4.09699838161
131,1_5_9,5,9.0,788.034757489,1_I,training,05,1_A,132.0,11001,ignore,0.0,800.0,8.04142604135
132,1_5_9,5,9.0,793.769431075,1_I,training,05,1_A,133.0,00000,ignore,0.0,700.0,3.96087773957
133,1_5_9,5,9.0,802.676166917,1_I,training,05,1_A,134.0,11111,kill,1.0,800.0,7.14327317139
134,1_5_9,5,9.0,811.489130247,1_I,training,05,1_A,135.0,00100,kill,1.0,900.0,7.01895976738
135,1_5_9,5,9.0,818.098842561,1_I,training,05,1_A,136.0,10100,kill,1.0,1000.0,4.82801087136
136,1_5_9,5,9.0,825.411726992,1_I,training,05,1_A,137.0,10000,kill,1.0,1100.0,5.51819804113
137,1_5_9,5,9.0,838.959306499,1_I,training,05,1_A,138.0,00011,ignore,1.0,1200.0,11.7636220709
138,1_5_9,5,9.0,848.178535484,1_I,training,05,1_A,139.0,10001,ignore,1.0,1300.0,7.4350111196
139,1_5_9,5,9.0,855.053909372,1_I,training,05,1_A,140.0,00001,ignore,1.0,1400.0,5.09882876971
140,1_5_9,5,9.0,861.663739713,1_I,training,05,1_A,141.0,01100,ignore,1.0,1500.0,4.84335861302
141,1_5_9,5,9.0,867.914053545,1_I,training,05,1_A,142.0,01101,ignore,0.0,1400.0,4.45240798507
142,1_5_9,5,9.0,888.399505375,1_I,training,05,1_A,143.0,10111,kill,0.0,1300.0,18.7095279606
143,1_5_9,5,9.0,892.759083786,1_I,training,05,1_A,144.0,11010,ignore,1.0,1400.0,2.6034488399
144,1_5_9,5,9.0,897.040572908,1_I,training,05,1_A,145.0,11101,ignore,0.0,1300.0,2.50453411539
145,1_5_9,5,9.0,905.369123563,1_I,training,05,1_A,146.0,01111,kill,1.0,1400.0,6.54610833255
146,1_5_9,5,9.0,911.541316353,1_I,training,05,1_A,147.0,11011,ignore,0.0,1300.0,4.40695746328
147,1_5_9,5,9.0,915.041503016,1_I,training,05,1_A,148.0,10010,kill,1.0,1400.0,1.71446009805
148,1_5_9,5,9.0,920.651160486,1_I,training,05,1_A,149.0,10110,kill,1.0,1500.0,3.82774819607
149,1_5_9,5,9.0,925.240378355,1_I,training,05,1_A,150.0,10011,kill,0.0,1400.0,2.80615269548
150,1_5_9,5,9.0,929.818736734,1_I,training,05,1_A,151.0,01011,ignore,0.0,1300.0,2.8115902984
151,1_5_9,5,9.0,935.365871713,1_I,training,05,1_A,152.0,00111,kill,0.0,1200.0,3.7685914126
152,1_5_9,5,9.0,938.709817256,1_I,training,05,1_A,153.0,01010,ignore,1.0,1300.0,1.57449971423
153,1_5_9,5,9.0,943.491334281,1_I,training,05,1_A,154.0,11100,ignore,1.0,1400.0,3.02231040072
154,1_5_9,5,9.0,951.897973263,1_I,training,05,1_A,155.0,11000,ignore,1.0,1500.0,6.64310927997
155,1_5_9,5,9.0,957.538906411,1_I,training,05,1_A,156.0,01001,kill,1.0,1600.0,3.85151790394
156,1_5_9,5,9.0,963.320475715,1_I,training,05,1_A,157.0,10101,kill,0.0,1500.0,3.98918188355
157,1_5_9,5,9.0,970.289589399,1_I,training,05,1_A,158.0,11110,kill,0.0,1400.0,5.18568640997
158,1_5_9,5,9.0,976.414873002,1_I,training,05,1_A,159.0,00110,kill,1.0,1500.0,4.34127645435
159,1_5_9,5,9.0,984.227484174,1_I,training,05,1_A,160.0,00101,kill,0.0,1400.0,6.02686889136
160,1_5_9,5,9.0,988.993311883,1_I,training,05,1_A,161.0,10010,kill,1.0,1500.0,2.99661248307
161,1_5_9,5,9.0,996.584268412,1_I,training,05,1_A,162.0,11011,kill,1.0,1600.0,5.84324347209
162,1_5_9,5,9.0,1001.91262759,1_I,training,05,1_A,163.0,00011,ignore,1.0,1700.0,3.54877421407
163,1_5_9,5,9.0,1006.97540185,1_I,training,05,1_A,164.0,10101,kill,0.0,1600.0,3.29100604955
164,1_5_9,5,9.0,1012.08505131,1_I,training,05,1_A,165.0,11111,kill,1.0,1700.0,3.33299304215
165,1_5_9,5,9.0,1019.0854179,1_I,training,05,1_A,166.0,00100,kill,1.0,1800.0,5.21153154124
166,1_5_9,5,9.0,1022.47622388,1_I,training,05,1_A,167.0,00000,ignore,0.0,1700.0,1.61495683979
167,1_5_9,5,9.0,1028.1797953,1_I,training,05,1_A,168.0,10001,ignore,1.0,1800.0,3.94070434181
168,1_5_9,5,9.0,1040.77428207,1_I,training,05,1_A,169.0,11001,ignore,0.0,1700.0,10.8358985066
169,1_5_9,5,9.0,1045.85270812,1_I,training,05,1_A,170.0,10111,kill,0.0,1600.0,3.31416156551
170,1_5_9,5,9.0,1051.57174692,1_I,training,05,1_A,171.0,01100,ignore,1.0,1700.0,3.93878511237
171,1_5_9,5,9.0,1057.07203974,1_I,training,05,1_A,172.0,11010,kill,0.0,1600.0,3.75498361406
172,1_5_9,5,9.0,1060.54091448,1_I,training,05,1_A,173.0,01011,kill,1.0,1700.0,1.68117634909
173,1_5_9,5,9.0,1066.88503482,1_I,training,05,1_A,174.0,00111,kill,0.0,1600.0,4.56318190536
174,1_5_9,5,9.0,1072.22902078,1_I,training,05,1_A,175.0,01111,kill,1.0,1700.0,3.58522225408
175,1_5_9,5,9.0,1076.30738974,1_I,training,05,1_A,176.0,01010,ignore,1.0,1800.0,2.30257498754
176,1_5_9,5,9.0,1086.43290491,1_I,training,05,1_A,177.0,00101,kill,0.0,1700.0,8.35185466712
177,1_5_9,5,9.0,1090.41746961,1_I,training,05,1_A,178.0,01000,ignore,1.0,1800.0,2.21092921623
178,1_5_9,5,9.0,1094.15205147,1_I,training,05,1_A,179.0,00001,ignore,1.0,1900.0,1.95222356714
179,1_5_9,5,9.0,1098.07415108,1_I,training,05,1_A,180.0,10100,kill,1.0,2000.0,2.1438527248
180,1_5_9,5,9.0,1107.99654096,1_I,training,05,1_A,181.0,10000,ignore,0.0,1900.0,8.13576912542
181,1_5_9,5,9.0,1111.51234574,1_I,training,05,1_A,182.0,01001,ignore,0.0,1800.0,1.75588549795
182,1_5_9,5,9.0,1114.43437031,1_I,training,05,1_A,183.0,10011,kill,0.0,1700.0,1.13152655073
183,1_5_9,5,9.0,1123.1848243,1_I,training,05,1_A,184.0,11110,kill,0.0,1600.0,6.956477688
184,1_5_9,5,9.0,1126.0131219,1_I,training,05,1_A,185.0,10110,kill,1.0,1700.0,1.03925985225
185,1_5_9,5,9.0,1131.3102317,1_I,training,05,1_A,186.0,00110,kill,1.0,1800.0,3.53271638318
186,1_5_9,5,9.0,1134.1385309,1_I,training,05,1_A,187.0,11101,ignore,0.0,1700.0,1.05211811215
187,1_5_9,5,9.0,1137.40431692,1_I,training,05,1_A,188.0,11100,ignore,1.0,1800.0,1.5131783453
188,1_5_9,5,9.0,1143.4671348,1_I,training,05,1_A,189.0,00010,kill,1.0,1900.0,4.26712152148
189,1_5_9,5,9.0,1148.79553792,1_I,training,05,1_A,190.0,01101,ignore,0.0,1800.0,3.56405171656
190,1_5_9,5,9.0,1152.70196875,1_I,training,05,1_A,191.0,01110,ignore,1.0,1900.0,2.14699777223
191,1_5_9,5,9.0,1157.60850959,1_I,training,05,1_A,192.0,11000,ignore,1.0,2000.0,3.13181456344
192,1_5_9,5,9.0,1162.59311727,1_I,training,05,1_A,193.0,00011,kill,0.0,1900.0,3.2279258146
193,1_5_9,5,9.0,1170.34352828,1_I,training,05,1_A,194.0,11001,ignore,0.0,1800.0,5.98371733958
194,1_5_9,5,9.0,1174.73439135,1_I,training,05,1_A,195.0,00100,kill,1.0,1900.0,2.603371224
195,1_5_9,5,9.0,1179.48462756,1_I,training,05,1_A,196.0,10110,ignore,0.0,1800.0,2.97612605591
196,1_5_9,5,9.0,1183.13172348,1_I,training,05,1_A,197.0,01011,ignore,0.0,1700.0,1.88682768437
197,1_5_9,5,9.0,1186.41309874,1_I,training,05,1_A,198.0,11000,ignore,1.0,1800.0,1.50600208216
198,1_5_9,5,9.0,1189.30392525,1_I,training,05,1_A,199.0,00001,kill,0.0,1700.0,1.09977427245
199,1_5_9,5,9.0,1195.71047892,1_I,training,05,1_A,200.0,11011,kill,1.0,1800.0,4.64671104243
200,1_5_9,5,9.0,1200.14818703,1_I,training,05,1_A,201.0,01110,ignore,1.0,1900.0,2.6813521074
201,1_5_9,5,9.0,1204.9453289,1_I,training,05,1_A,202.0,10001,kill,0.0,1800.0,3.0277595498
202,1_5_9,5,9.0,1216.03964505,1_I,training,05,1_A,203.0,10100,kill,1.0,1900.0,9.32827771609
203,1_5_9,5,9.0,1224.85264045,1_I,training,05,1_A,204.0,00110,ignore,0.0,1800.0,7.04402457024
204,1_5_9,5,9.0,1227.69654109,1_I,training,05,1_A,205.0,01010,ignore,1.0,1900.0,1.08447880925
205,1_5_9,5,9.0,1232.11860928,1_I,training,05,1_A,206.0,01111,kill,1.0,2000.0,2.64823417422
206,1_5_9,5,9.0,1235.91570593,1_I,training,05,1_A,207.0,11010,ignore,1.0,2100.0,2.04379877854
207,1_5_9,5,9.0,1241.61909614,1_I,training,05,1_A,208.0,10000,ignore,0.0,2000.0,3.96149449729
208,1_5_9,5,9.0,1246.40061573,1_I,training,05,1_A,209.0,11111,ignore,0.0,1900.0,3.01663257341
209,1_5_9,5,9.0,1249.60391165,1_I,training,05,1_A,210.0,01000,ignore,1.0,2000.0,1.42078656334
210,1_5_9,5,9.0,1253.91663379,1_I,training,05,1_A,211.0,10111,kill,0.0,1900.0,2.56265559261
211,1_5_9,5,9.0,1258.27620932,1_I,training,05,1_A,212.0,01100,ignore,1.0,2000.0,2.59464071858
212,1_5_9,5,9.0,1264.26091514,1_I,training,05,1_A,213.0,01001,ignore,0.0,1900.0,4.22500752104
213,1_5_9,5,9.0,1354.35934043,1_I,test,05,2,0.0,10010,kill,0.0,0.0,10.2264575271
214,1_5_9,5,9.0,1357.73449558,1_I,test,05,2,1.0,11110,kill,1.0,100.0,1.61695593021
215,1_5_9,5,9.0,1361.95348851,1_I,test,05,2,2.0,11100,kill,1.0,200.0,2.47150887227
216,1_5_9,5,9.0,1365.81306981,1_I,test,05,2,3.0,10101,ignore,1.0,300.0,2.0737299698
217,1_5_9,5,9.0,1368.78197117,1_I,test,05,2,4.0,00010,ignore,1.0,400.0,1.21341035909
218,1_5_9,5,9.0,1371.62586219,1_I,test,05,2,5.0,01101,ignore,1.0,500.0,1.06744147858
219,1_5_9,5,9.0,1375.51670249,1_I,test,05,2,6.0,10011,ignore,0.0,400.0,2.11978602388
220,1_5_9,5,9.0,1378.9543981,1_I,test,05,2,7.0,00101,ignore,1.0,500.0,1.67325086805
221,1_5_9,5,9.0,1381.65870398,1_I,test,05,2,8.0,00111,ignore,1.0,600.0,0.916327177303
222,1_5_9,5,9.0,1384.47137,1_I,test,05,2,9.0,11101,ignore,1.0,700.0,1.05492767931
223,1_5_9,5,9.0,1388.25280877,1_I,test,05,2,10.0,00000,kill,0.0,600.0,2.00375859789
224,1_5_9,5,9.0,1393.33118382,1_I,test,05,3,0.0,01001,kill,1.0,700.0,3.30533291767
225,1_5_9,5,9.0,1395.92507179,1_I,test,05,3,1.0,11011,kill,0.0,600.0,0.835513634418
226,1_5_9,5,9.0,1401.37848943,1_I,test,05,3,2.0,11010,kill,0.0,500.0,3.7137641208
227,1_5_9,5,9.0,1407.87882876,1_I,test,05,3,3.0,11101,ignore,1.0,600.0,4.72166939605
228,1_5_9,5,9.0,1410.76959593,1_I,test,05,3,4.0,00011,kill,0.0,500.0,1.10445560146
229,1_5_9,5,9.0,1415.09794196,1_I,test,05,3,5.0,10111,ignore,0.0,400.0,2.55465987239
230,1_5_9,5,9.0,1418.08244893,1_I,test,05,3,6.0,10000,kill,1.0,500.0,1.24308079943
231,1_5_9,5,9.0,1422.25455384,1_I,test,05,3,7.0,00100,ignore,1.0,600.0,2.39214212818
232,1_5_9,5,9.0,1425.59847886,1_I,test,05,3,8.0,10001,kill,1.0,700.0,1.54972548989
233,1_5_9,5,9.0,1428.72362423,1_I,test,05,3,9.0,10101,kill,1.0,800.0,1.37444025147
234,1_5_9,5,9.0,1431.48942532,1_I,test,05,3,10.0,00010,ignore,1.0,900.0,0.990586346401
235,1_5_9,5,9.0,1434.7395605,1_I,test,05,3,11.0,00110,ignore,1.0,1000.0,1.48617699375
236,1_5_9,5,9.0,1437.97411349,1_I,test,05,3,12.0,01110,ignore,0.0,900.0,1.44863752029
237,1_5_9,5,9.0,1442.31810651,1_I,test,05,3,13.0,01010,kill,1.0,1000.0,2.58943981208
238,1_5_9,5,9.0,1448.16214634,1_I,test,05,3,14.0,10100,ignore,0.0,900.0,4.07576947181
239,1_5_9,5,9.0,1450.72477339,1_I,test,05,3,15.0,10010,kill,1.0,1000.0,0.780952545898
240,1_5_9,5,9.0,1453.381197,1_I,test,05,4,0.0,00001,ignore,0.0,900.0,0.90134570569
241,1_5_9,5,9.0,1456.61572081,1_I,test,05,4,1.0,01111,kill,1.0,1000.0,1.46497823227
242,1_5_9,5,9.0,1459.75648911,1_I,test,05,4,2.0,00101,kill,0.0,900.0,1.34794404471
243,1_5_9,5,9.0,1465.28806723,1_I,test,05,4,3.0,11100,ignore,1.0,1000.0,3.78931068745
244,1_5_9,5,9.0,1468.35071609,1_I,test,05,4,4.0,11000,kill,1.0,1100.0,1.30722520605
245,1_5_9,5,9.0,1473.05409187,1_I,test,05,4,5.0,10011,ignore,1.0,1200.0,2.91735446538
246,1_5_9,5,9.0,1476.88239652,1_I,test,05,4,6.0,01100,ignore,1.0,1300.0,2.07832566476
247,1_5_9,5,9.0,1480.80448844,1_I,test,05,4,7.0,01000,kill,1.0,1400.0,2.15381065185
248,1_5_9,5,9.0,1484.16403703,1_I,test,05,4,8.0,01101,ignore,1.0,1500.0,1.61053529952
249,1_5_9,5,9.0,1487.27358481,1_I,test,05,4,9.0,10110,kill,1.0,1600.0,1.30341529187
250,1_5_9,5,9.0,1492.53737077,1_I,test,05,4,10.0,11001,ignore,0.0,1500.0,3.49762918717
251,1_5_9,5,9.0,1496.02196113,1_I,test,05,5,0.0,11110,ignore,1.0,1600.0,1.74010445432
252,1_5_9,5,9.0,1500.58468664,1_I,test,05,5,1.0,01011,kill,1.0,1700.0,2.78847102457
253,1_5_9,5,9.0,1504.58490409,1_I,test,05,5,2.0,00000,ignore,1.0,1800.0,2.25977174512
254,1_5_9,5,9.0,1507.5538154,1_I,test,05,5,3.0,00111,kill,0.0,1700.0,1.19059641722
255,1_5_9,5,9.0,1511.35084213,1_I,test,05,5,4.0,11111,kill,0.0,1600.0,2.02225908443
256,1_5_9,5,9.0,1517.02305224,1_I,test,05,5,5.0,00110,ignore,1.0,1700.0,3.90764478091
257,1_5_9,5,9.0,1519.80443135,1_I,test,05,5,6.0,10101,ignore,0.0,1600.0,1.00376052225
258,1_5_9,5,9.0,1522.8201954,1_I,test,05,5,7.0,00100,ignore,1.0,1700.0,1.25062846425
259,1_5_9,5,9.0,1525.80473701,1_I,test,05,5,8.0,00000,kill,0.0,1600.0,1.23227807787
260,1_5_9,5,9.0,1529.25805329,1_I,test,05,5,9.0,01110,ignore,0.0,1500.0,1.68565626164
261,1_5_9,5,9.0,1533.93018803,1_I,test,05,5,10.0,01101,kill,1.0,1600.0,2.92160024734
262,1_5_9,5,9.0,1537.58659881,1_I,test,05,5,11.0,01111,kill,1.0,1700.0,1.88234745109
263,1_5_9,5,9.0,1541.0086763,1_I,test,05,5,12.0,11011,ignore,1.0,1800.0,1.67001056474
264,1_5_9,5,9.0,1544.50885495,1_I,test,05,5,13.0,00111,kill,0.0,1700.0,1.73767462775
265,1_5_9,5,9.0,1547.98053958,1_I,test,05,5,14.0,11010,ignore,1.0,1800.0,1.68214590634
266,1_5_9,5,9.0,1550.87131092,1_I,test,05,5,15.0,10010,ignore,0.0,1700.0,1.14211823402
267,1_5_9,5,9.0,1553.88710415,1_I,test,05,5,16.0,00011,ignore,1.0,1800.0,1.26357364113
268,1_5_9,5,9.0,1557.59043695,1_I,test,05,5,17.0,11101,kill,0.0,1700.0,1.88243789606
269,1_5_9,5,9.0,1560.4343052,1_I,test,05,5,18.0,00101,ignore,1.0,1800.0,1.09338058281
270,1_5_9,5,9.0,1563.37196007,1_I,test,05,5,19.0,00001,kill,0.0,1700.0,1.16020658657
271,1_5_9,5,9.0,1568.76285457,1_I,test,05,5,20.0,10110,ignore,0.0,1600.0,3.63390345737
272,1_5_9,5,9.0,1571.43485717,1_I,test,05,5,21.0,00010,ignore,1.0,1700.0,0.884747450062
273,1_5_9,5,9.0,1574.63817297,1_I,test,05,5,22.0,11111,kill,0.0,1600.0,1.43249790405
274,1_5_9,5,9.0,1578.99777255,1_I,test,05,5,23.0,11000,ignore,1.0,1700.0,2.62238455277
275,1_5_9,5,9.0,1583.0604955,1_I,test,05,5,24.0,01011,kill,1.0,1800.0,2.2914499355
276,1_5_9,5,9.0,1586.13876279,1_I,test,05,5,25.0,01010,ignore,0.0,1700.0,1.34278771924
277,1_5_9,5,9.0,1591.35781538,1_I,test,05,5,26.0,10111,ignore,0.0,1600.0,3.44764326708
278,1_5_9,5,9.0,1595.46740678,1_I,test,05,5,27.0,10001,kill,1.0,1700.0,2.31465580557
279,1_5_9,5,9.0,1598.58007074,1_I,test,05,5,28.0,10000,ignore,0.0,1600.0,1.37258837468
280,1_5_9,5,9.0,1601.50207927,1_I,test,05,5,29.0,10011,kill,1.0,1700.0,1.15664363206
281,1_5_9,5,9.0,1605.08039435,1_I,test,05,5,30.0,11110,ignore,1.0,1800.0,1.83075885896
282,1_5_9,5,9.0,1608.18994053,1_I,test,05,5,31.0,11001,kill,0.0,1700.0,1.33925779959
283,1_5_9,5,9.0,1610.83070658,1_I,test,05,5,32.0,11100,ignore,1.0,1800.0,0.868535349553
284,1_5_9,5,9.0,1613.70582966,1_I,test,05,5,33.0,10100,kill,1.0,1900.0,1.11366976296
285,1_5_9,5,9.0,1617.04974185,1_I,test,05,5,34.0,01100,ignore,0.0,1800.0,1.60478595011
286,1_5_9,5,9.0,1620.0030344,1_I,test,05,5,35.0,01001,ignore,0.0,1700.0,1.1951481726
287,1_5_9,5,9.0,1622.85006854,1_I,test,05,5,36.0,01000,kill,1.0,1800.0,1.10754997405
288,1_5_9,5,9.0,1625.61584012,1_I,test,05,5,37.0,10100,kill,1.0,1900.0,0.96582366823
289,1_5_9,5,9.0,1628.22535519,1_I,test,05,5,38.0,00001,ignore,1.0,2000.0,0.879191178214
290,1_5_9,5,9.0,1630.72546167,1_I,test,05,5,39.0,01110,kill,1.0,2100.0,0.739548634698
291,1_5_9,5,9.0,1633.77252801,1_I,test,05,5,40.0,11101,ignore,1.0,2200.0,1.26911515954
292,1_5_9,5,9.0,1637.17894794,1_I,test,05,5,41.0,00110,kill,0.0,2100.0,1.66588762116
293,1_5_9,5,9.0,1640.02280047,1_I,test,05,5,42.0,01000,kill,1.0,2200.0,1.07791962457
294,1_5_9,5,9.0,1643.08550225,1_I,test,05,5,43.0,11011,ignore,1.0,2300.0,1.33163893341
295,1_5_9,5,9.0,1645.75753628,1_I,test,05,5,44.0,10011,ignore,0.0,2200.0,0.90898189112
296,1_5_9,5,9.0,1648.46076741,1_I,test,05,5,45.0,11001,ignore,1.0,2300.0,0.935961753967
297,1_5_9,5,9.0,1651.33595463,1_I,test,05,6,0.0,01100,kill,0.0,2200.0,1.12254331256
298,1_5_9,5,9.0,1654.63300542,1_I,test,05,6,1.0,10000,kill,0.0,2100.0,1.52409075543
299,1_5_9,5,9.0,1657.1018513,1_I,test,05,6,2.0,11000,ignore,1.0,2200.0,0.7432799708
300,1_5_9,5,9.0,1660.78956053,1_I,test,05,6,3.0,10110,kill,1.0,2300.0,1.93804776136
301,1_5_9,5,9.0,1663.63345059,1_I,test,05,6,4.0,11010,ignore,0.0,2200.0,1.08298390144
302,1_5_9,5,9.0,1668.24305001,1_I,test,05,6,5.0,01101,ignore,0.0,2100.0,2.87994745211
303,1_5_9,5,9.0,1670.93072012,1_I,test,05,6,6.0,00101,kill,1.0,2200.0,0.931328854702
304,1_5_9,5,9.0,1674.10275222,1_I,test,05,6,7.0,00010,ignore,0.0,2100.0,1.4297277863
305,1_5_9,5,9.0,1678.38420221,1_I,test,05,6,8.0,00000,kill,0.0,2000.0,2.52374757771
306,1_5_9,5,9.0,1681.40000058,1_I,test,05,6,9.0,00111,kill,0.0,1900.0,1.24424022697
307,1_5_9,5,9.0,1683.91572774,1_I,test,05,6,10.0,11110,ignore,0.0,1800.0,0.787115632935
308,1_5_9,5,9.0,1689.54104438,1_I,test,05,6,11.0,11100,kill,0.0,1700.0,3.89243302742
309,1_5_9,5,9.0,1692.50996979,1_I,test,05,6,12.0,10010,ignore,0.0,1600.0,1.2056276015
310,1_5_9,5,9.0,1695.27575741,1_I,test,05,6,13.0,11111,ignore,1.0,1700.0,1.02131646823
311,1_5_9,5,9.0,1698.85405934,1_I,test,05,6,14.0,10101,ignore,0.0,1600.0,1.78700754798
312,1_5_9,5,9.0,1701.57295862,1_I,test,05,6,15.0,01010,kill,1.0,1700.0,0.995366459287
313,1_5_9,5,9.0,1704.76092059,1_I,test,05,6,16.0,01011,kill,0.0,1600.0,1.40245317548
314,1_5_9,5,9.0,1707.40167413,1_I,test,05,6,17.0,00011,ignore,1.0,1700.0,0.864737622989
315,1_5_9,5,9.0,1710.08932435,1_I,test,05,6,18.0,01001,ignore,0.0,1600.0,0.941493971299
316,1_5_9,5,9.0,1712.99573241,1_I,test,05,6,19.0,01111,ignore,1.0,1700.0,1.13535474634
317,1_5_9,5,9.0,1716.38651947,1_I,test,05,6,20.0,10111,ignore,1.0,1800.0,1.6415576035
318,1_5_9,5,9.0,1719.19916303,1_I,test,05,6,21.0,10001,kill,1.0,1900.0,1.00474387075
319,1_5_9,5,9.0,1721.80871402,1_I,test,05,6,22.0,00100,kill,0.0,1800.0,0.827026560673
320,1_5_9,5,9.0,1724.66823021,1_I,test,05,6,23.0,01100,ignore,1.0,1900.0,1.12237813823
321,1_5_9,5,9.0,1727.88714937,1_I,test,05,6,24.0,11100,ignore,1.0,2000.0,1.45268637597
322,1_5_9,5,9.0,1731.71544409,1_I,test,05,6,25.0,01101,kill,1.0,2100.0,2.08280076641
323,1_5_9,5,9.0,1735.37372824,1_I,test,05,6,26.0,01010,ignore,0.0,2000.0,1.91008070129
324,1_5_9,5,9.0,1739.15517631,1_I,test,05,6,27.0,10100,ignore,1.0,2100.0,1.98285586728
325,1_5_9,5,9.0,1742.45222196,1_I,test,05,6,28.0,10101,kill,1.0,2200.0,1.5504304475
326,1_5_9,5,9.0,1747.10873474,1_I,test,05,7,0.0,01011,ignore,0.0,2100.0,2.92042670782
327,1_5_9,5,9.0,1750.34324508,1_I,test,05,7,1.0,01110,ignore,1.0,2200.0,1.4732799259
328,1_5_9,5,9.0,1753.67154492,1_I,test,05,7,2.0,10011,kill,0.0,2100.0,1.56598281289
329,1_5_9,5,9.0,1757.07798409,1_I,test,05,7,3.0,00100,kill,1.0,2200.0,1.62046788915
330,1_5_9,5,9.0,1759.92189083,1_I,test,05,7,4.0,01000,kill,1.0,2300.0,1.10753265481
331,1_5_9,5,9.0,1763.01577367,1_I,test,05,7,5.0,01001,ignore,0.0,2200.0,1.32579881831
332,1_5_9,5,9.0,1765.93781716,1_I,test,05,7,6.0,01111,kill,0.0,2100.0,1.16000549084
333,1_5_9,5,9.0,1769.73488302,1_I,test,05,7,7.0,11001,kill,1.0,2200.0,2.05034705852
334,1_5_9,5,9.0,1772.32876811,1_I,test,05,7,8.0,00001,kill,0.0,2100.0,0.821715003411
335,1_5_9,5,9.0,1775.78208439,1_I,test,05,7,9.0,00111,ignore,0.0,2000.0,1.70099181569
336,1_5_9,5,9.0,1779.65728797,1_I,test,05,7,10.0,11010,ignore,0.0,1900.0,2.11127168835
337,1_5_9,5,9.0,1782.01683399,1_I,test,05,7,11.0,11110,kill,0.0,1800.0,0.601413186621
338,1_5_9,5,9.0,1784.98573247,1_I,test,05,7,12.0,00000,kill,0.0,1700.0,1.22563261766
339,1_5_9,5,9.0,1789.26720459,1_I,test,05,7,13.0,10010,ignore,1.0,1800.0,2.50371273395
340,1_5_9,5,9.0,1793.92372121,1_I,test,05,7,14.0,00010,kill,0.0,1700.0,2.92228082971
341,1_5_9,5,9.0,1796.56450009,1_I,test,05,7,15.0,00101,ignore,0.0,1600.0,0.891535954441
342,1_5_9,5,9.0,1799.98650446,1_I,test,05,7,16.0,11011,kill,1.0,1700.0,1.64736243865
343,1_5_9,5,9.0,1802.72104077,1_I,test,05,7,17.0,10000,ignore,1.0,1800.0,0.980666585845
344,1_5_9,5,9.0,1806.58061726,1_I,test,05,7,18.0,11111,ignore,1.0,1900.0,2.12574031774
345,1_5_9,5,9.0,1809.86202331,1_I,test,05,7,19.0,00110,kill,1.0,2000.0,1.51034376145
346,1_5_9,5,9.0,1813.73732568,1_I,test,05,7,20.0,11000,ignore,0.0,1900.0,2.12977057126
347,1_5_9,5,9.0,1817.04994679,1_I,test,05,7,21.0,10110,kill,1.0,2000.0,1.54657466938
348,1_5_9,5,9.0,1819.72196607,1_I,test,05,7,22.0,10111,kill,1.0,2100.0,0.916564194438
349,1_5_9,5,9.0,1822.87838583,1_I,test,05,7,23.0,00011,ignore,1.0,2200.0,1.40759057807
350,1_5_9,5,9.0,1825.67540359,1_I,test,05,7,24.0,10001,ignore,1.0,2300.0,1.02948057005
351,1_5_9,5,9.0,1831.28506106,1_I,test,05,8,0.0,11101,kill,0.0,2200.0,3.85246789685
352,1_5_9,5,9.0,1833.89457228,1_I,test,05,8,1.0,10000,ignore,0.0,2100.0,0.83050035312
353,1_5_9,5,9.0,1837.01976896,1_I,test,05,8,2.0,10011,kill,0.0,2000.0,1.37304476898
354,1_5_9,5,9.0,1840.01990944,1_I,test,05,8,3.0,00101,kill,1.0,2100.0,1.21175188058
355,1_5_9,5,9.0,1842.83253697,1_I,test,05,8,4.0,10101,kill,0.0,2000.0,1.04206524995
356,1_5_9,5,9.0,1845.62957685,1_I,test,05,8,5.0,00001,kill,1.0,2100.0,1.04039298019
357,1_5_9,5,9.0,1848.78598924,1_I,test,05,8,6.0,11010,ignore,0.0,2000.0,1.38124992383
358,1_5_9,5,9.0,1851.91111056,1_I,test,05,8,7.0,01100,ignore,1.0,2100.0,1.38208862452
359,1_5_9,5,9.0,1855.81762381,1_I,test,05,8,8.0,00010,kill,0.0,2000.0,2.12479706009
360,1_5_9,5,9.0,1858.77089231,1_I,test,05,8,9.0,01001,ignore,0.0,1900.0,1.17343047508
361,1_5_9,5,9.0,1862.2554291,1_I,test,05,8,10.0,00110,kill,0.0,1800.0,1.73435157692
362,1_5_9,5,9.0,1865.0055691,1_I,test,05,8,11.0,11110,ignore,0.0,1700.0,0.983561787063
363,1_5_9,5,9.0,1867.8650885,1_I,test,05,8,12.0,11011,ignore,1.0,1800.0,1.12070939646
364,1_5_9,5,9.0,1870.86527612,1_I,test,05,8,13.0,10010,kill,1.0,1900.0,1.23475248547
365,1_5_9,5,9.0,1873.69350958,1_I,test,05,8,14.0,01010,ignore,1.0,2000.0,1.06444300331
366,1_5_9,5,9.0,1877.05305977,1_I,test,05,8,15.0,01011,ignore,0.0,1900.0,1.62194227045
367,1_5_9,5,9.0,1880.66264603,1_I,test,05,8,16.0,00011,ignore,0.0,1800.0,1.86845356421
368,1_5_9,5,9.0,1884.63162181,1_I,test,05,8,17.0,10111,kill,0.0,1700.0,2.18361772183
369,1_5_9,5,9.0,1888.56932671,1_I,test,05,8,18.0,11001,kill,0.0,1600.0,2.19098353453
370,1_5_9,5,9.0,1891.71011008,1_I,test,05,8,19.0,10001,ignore,1.0,1700.0,1.34901334801
371,1_5_9,5,9.0,1894.50713104,1_I,test,05,8,20.0,00111,kill,1.0,1800.0,1.05477405115
372,1_5_9,5,9.0,1899.36676365,1_I,test,05,8,21.0,11000,ignore,0.0,1700.0,3.08346274661
373,1_5_9,5,9.0,1902.63252914,1_I,test,05,8,22.0,11111,ignore,1.0,1800.0,1.50141055666
374,1_5_9,5,9.0,1905.42956165,1_I,test,05,8,23.0,01101,kill,1.0,1900.0,1.03276417148
375,1_5_9,5,9.0,1908.8047354,1_I,test,05,8,24.0,11101,kill,0.0,1800.0,1.60556820289
376,1_5_9,5,9.0,1913.36749812,1_I,test,05,8,25.0,11100,ignore,0.0,1700.0,2.82974792794
377,1_5_9,5,9.0,1915.94572692,1_I,test,05,8,26.0,01111,kill,1.0,1800.0,0.801692988716
378,1_5_9,5,9.0,1923.50861344,1_I,test,05,8,27.0,01110,kill,0.0,1700.0,5.79293233497
379,1_5_9,5,9.0,1926.35251729,1_I,test,05,8,28.0,10100,ignore,0.0,1600.0,1.10921294274
380,1_5_9,5,9.0,1928.69951262,1_I,test,05,8,29.0,00100,kill,0.0,1500.0,0.575631238538
381,1_5_9,5,9.0,1931.54340108,1_I,test,05,8,30.0,10110,kill,1.0,1600.0,1.10581997346
382,1_5_9,5,9.0,1935.94990086,1_I,test,05,8,31.0,01000,kill,0.0,1500.0,2.65312076841
383,1_5_9,5,9.0,1938.70003284,1_I,test,05,8,32.0,00000,ignore,1.0,1600.0,0.968173313089
384,1_5_9,5,9.0,1941.91894078,1_I,test,05,8,33.0,01010,ignore,1.0,1700.0,1.48214000497
385,1_5_9,5,9.0,1944.99723758,1_I,test,05,8,34.0,01111,kill,1.0,1800.0,1.35081968159
386,1_5_9,5,9.0,1947.70050239,1_I,test,05,8,35.0,10000,ignore,0.0,1700.0,0.935491568413
387,1_5_9,5,9.0,1951.76322565,1_I,test,05,8,36.0,10011,ignore,1.0,1800.0,2.30595384484
388,1_5_9,5,9.0,1955.06029376,1_I,test,05,8,37.0,11101,ignore,1.0,1900.0,1.52322960386
389,1_5_9,5,9.0,1957.73226814,1_I,test,05,8,38.0,11111,ignore,1.0,2000.0,0.942509392484
390,1_5_9,5,9.0,1960.37334337,1_I,test,05,8,39.0,00011,kill,1.0,2100.0,0.889011834181
391,1_5_9,5,9.0,1964.49856956,1_I,test,05,9,0.0,10110,ignore,1.0,2200.0,2.35608441274
392,1_5_9,5,9.0,1966.95183613,1_I,test,05,9,1.0,11011,ignore,0.0,2100.0,0.717192690765
393,1_5_9,5,9.0,1971.31141711,1_I,test,05,9,2.0,00000,kill,0.0,2000.0,2.56705564418
394,1_5_9,5,9.0,1978.03076989,1_I,test,05,9,3.0,11001,ignore,1.0,2100.0,4.98353163874
395,1_5_9,5,9.0,1981.62467101,1_I,test,05,9,4.0,00101,kill,1.0,2200.0,1.81122755634
396,1_5_9,5,9.0,1984.98426065,1_I,test,05,9,5.0,00111,kill,0.0,2100.0,1.5682410506
397,1_5_9,5,9.0,1989.95612938,1_I,test,05,9,6.0,00100,kill,1.0,2200.0,3.2167988382
398,1_5_9,5,9.0,1996.97210029,1_I,test,05,9,7.0,01101,ignore,0.0,2100.0,5.2207415333
399,1_5_9,5,9.0,2000.69103036,1_I,test,05,9,8.0,10010,ignore,0.0,2000.0,1.97634511235
400,1_5_9,5,9.0,2003.06619898,1_I,test,05,9,9.0,10111,kill,0.0,1900.0,0.590428933665
401,1_5_9,5,9.0,2007.50386508,1_I,test,05,9,10.0,01000,ignore,1.0,2000.0,2.67051346443
402,1_5_9,5,9.0,2010.36343259,1_I,test,05,9,11.0,11110,kill,0.0,1900.0,1.11473201027
403,1_5_9,5,9.0,2013.95736514,1_I,test,05,9,12.0,10001,kill,0.0,1800.0,1.82849228235
404,1_5_9,5,9.0,2016.14495827,1_I,test,05,9,13.0,01001,kill,0.0,1700.0,0.451629581024
405,1_5_9,5,9.0,2018.42637106,1_I,test,05,9,14.0,10101,ignore,0.0,1600.0,0.528871189046
406,1_5_9,5,9.0,2020.48896122,1_I,test,05,9,15.0,01100,kill,1.0,1700.0,0.291798886308
407,1_5_9,5,9.0,2022.95784944,1_I,test,05,9,16.0,01011,kill,1.0,1800.0,0.729374537754
408,1_5_9,5,9.0,2025.80798212,1_I,test,05,9,17.0,11100,ignore,0.0,1700.0,1.14079234926
409,1_5_9,5,9.0,2028.12060997,1_I,test,05,9,18.0,01110,kill,0.0,1600.0,0.558930350318
410,1_5_9,5,9.0,2031.01137618,1_I,test,05,9,19.0,11000,ignore,1.0,1700.0,1.13714793013
411,1_5_9,5,9.0,2034.07405294,1_I,test,05,9,20.0,11010,ignore,0.0,1600.0,1.29860021976
412,1_5_9,5,9.0,2037.21481899,1_I,test,05,9,21.0,00001,kill,0.0,1500.0,1.39877636294
413,1_5_9,5,9.0,2040.66815997,1_I,test,05,9,22.0,00010,kill,1.0,1600.0,1.67681157747
414,1_5_9,5,9.0,2044.73083288,1_I,test,05,9,23.0,00110,ignore,1.0,1700.0,2.29583779945
415,1_5_9,5,9.0,2050.99678568,1_I,test,05,9,24.0,10100,kill,1.0,1800.0,4.49932358708
416,1_5_9,5,9.0,2053.85631918,1_I,test,05,9,25.0,10001,ignore,1.0,1900.0,1.09069417477
417,1_5_9,5,9.0,2060.23165651,1_I,test,05,9,26.0,00001,ignore,1.0,2000.0,4.63956428617
418,1_5_9,5,9.0,2063.93498739,1_I,test,05,9,27.0,00000,kill,0.0,1900.0,1.92973323866
419,1_5_9,5,9.0,2066.77887392,1_I,test,05,9,28.0,10011,ignore,0.0,1800.0,1.05868018338
420,1_5_9,5,9.0,2069.88844158,1_I,test,05,9,29.0,01000,ignore,1.0,1900.0,1.37629020391
421,1_5_9,5,9.0,2073.34171874,1_I,test,05,9,30.0,00110,kill,0.0,1800.0,1.67153946961
422,1_5_9,5,9.0,2076.65441811,1_I,test,05,9,31.0,11101,kill,1.0,1900.0,1.57316869783
423,1_5_9,5,9.0,2079.68582913,1_I,test,05,9,32.0,00100,ignore,0.0,1800.0,1.25204928417
424,1_5_9,5,9.0,2082.48286421,1_I,test,05,9,33.0,10110,ignore,1.0,1900.0,1.02405996566
425,1_5_9,5,9.0,2086.07713,1_I,test,05,9,34.0,01101,kill,1.0,2000.0,1.83106932254
426,1_5_9,5,9.0,2088.81166663,1_I,test,05,9,35.0,11111,ignore,1.0,2100.0,0.980963258175
427,1_5_9,5,9.0,2093.12438428,1_I,test,05,9,36.0,11110,kill,0.0,2000.0,2.54848940864
428,1_5_9,5,9.0,2097.06208662,1_I,test,05,9,37.0,01110,ignore,1.0,2100.0,2.1888959235
429,1_5_9,5,9.0,2099.85914318,1_I,test,05,9,38.0,10010,ignore,0.0,2000.0,1.03574821403
430,1_5_9,5,9.0,2103.57807967,1_I,test,05,9,39.0,11000,kill,0.0,1900.0,2.0114711163
431,1_5_9,5,9.0,2106.59384788,1_I,test,05,9,40.0,00111,ignore,1.0,2000.0,1.25837209317
432,1_5_9,5,9.0,2108.85955788,1_I,test,05,9,41.0,01100,ignore,0.0,1900.0,0.486491626787
433,1_5_9,5,9.0,2111.17221428,1_I,test,05,9,42.0,10100,kill,1.0,2000.0,0.5465044302
434,1_5_9,5,9.0,2114.23486827,1_I,test,05,9,43.0,11011,ignore,0.0,1900.0,1.28417713359
435,1_5_9,5,9.0,2116.5631277,1_I,test,05,9,44.0,10111,kill,0.0,1800.0,0.584091691955
436,1_5_9,5,9.0,2119.37574048,1_I,test,05,9,45.0,01111,ignore,1.0,1900.0,1.0396081616
437,1_5_9,5,9.0,2121.8436261,1_I,test,05,9,46.0,01011,ignore,0.0,1800.0,0.701299072007
438,1_5_9,5,9.0,2124.81259193,1_I,test,05,9,47.0,10000,kill,0.0,1700.0,1.23392533094
439,1_5_9,5,9.0,2127.89081945,1_I,test,05,9,48.0,00101,ignore,0.0,1600.0,1.29475759144
440,1_5_9,5,9.0,2130.37534983,1_I,test,05,9,49.0,01001,ignore,1.0,1700.0,0.730970153803
441,1_5_9,5,9.0,2133.65676872,1_I,test,05,9,50.0,00010,ignore,0.0,1600.0,1.49995381534
442,1_5_9,5,9.0,2136.28273803,1_I,test,05,9,51.0,11001,ignore,1.0,1700.0,0.830013489773
443,1_5_9,5,9.0,2139.11098592,1_I,test,05,9,52.0,11100,kill,1.0,1800.0,1.10107995143
444,1_5_9,5,9.0,2142.78308442,1_I,test,05,9,53.0,01010,ignore,0.0,1700.0,1.90422198403
445,1_5_9,5,9.0,2145.09570874,1_I,test,05,9,54.0,00011,ignore,0.0,1600.0,0.587840988759
446,1_5_9,5,9.0,2147.28331085,1_I,test,05,9,55.0,10101,kill,1.0,1700.0,0.427834215014
447,1_5_9,5,9.0,2149.75218944,1_I,test,05,9,56.0,11010,ignore,0.0,1600.0,0.698544669875
448,1_5_9,5,9.0,2151.9866722,1_I,test,05,9,57.0,01000,kill,0.0,1500.0,0.511284774009
449,1_5_9,5,9.0,2154.23676473,1_I,test,05,9,58.0,10010,kill,1.0,1600.0,0.516115882456
450,1_5_9,5,9.0,2157.08069808,1_I,test,05,9,59.0,00110,ignore,1.0,1700.0,1.05429905469
451,1_5_9,5,9.0,2159.51834525,1_I,test,05,9,60.0,11011,kill,1.0,1800.0,0.691918453274
452,1_5_9,5,9.0,2161.78543759,1_I,test,05,9,61.0,11100,ignore,0.0,1700.0,0.487055785303
453,1_5_9,5,9.0,2163.78553958,1_I,test,05,9,62.0,11110,kill,0.0,1600.0,0.276732101356
454,1_5_9,5,9.0,2166.28109559,1_I,test,05,9,63.0,01110,kill,0.0,1500.0,0.729821310244
455,1_5_9,5,9.0,2168.65622669,1_I,test,05,9,64.0,10101,ignore,0.0,1400.0,0.586952254675
456,1_5_9,5,9.0,2171.09386969,1_I,test,05,9,65.0,01001,ignore,1.0,1500.0,0.683577310243
457,1_5_9,5,9.0,2174.45340929,1_I,test,05,9,66.0,00001,kill,0.0,1400.0,1.58292937787
458,1_5_9,5,9.0,2176.50037814,1_I,test,05,9,67.0,00111,ignore,1.0,1500.0,0.294865355663
459,1_5_9,5,9.0,2179.09425777,1_I,test,05,9,68.0,01111,ignore,1.0,1600.0,0.818487529177
460,1_5_9,5,9.0,2181.37563336,1_I,test,05,9,69.0,11101,ignore,0.0,1500.0,0.496330564176
461,1_5_9,5,9.0,2183.87575459,1_I,test,05,9,70.0,01010,kill,1.0,1600.0,0.748974796643
462,1_5_9,5,9.0,2186.33216813,1_I,test,05,9,71.0,10100,ignore,0.0,1500.0,0.669004123905
463,1_5_9,5,9.0,2188.51978436,1_I,test,05,9,72.0,11001,kill,0.0,1400.0,0.451013144029
464,1_5_9,5,9.0,2192.94189103,1_I,test,05,9,73.0,00000,ignore,1.0,1500.0,2.66498509582
465,1_5_9,5,9.0,2196.1920708,1_I,test,05,9,74.0,10111,kill,0.0,1400.0,1.47582617632
466,1_5_9,5,9.0,2199.64536976,1_I,test,05,9,75.0,00100,ignore,0.0,1300.0,1.70400761021
467,1_5_9,5,9.0,2202.2762353,1_I,test,05,9,76.0,10011,kill,1.0,1400.0,0.899784407415
468,1_5_9,5,9.0,2204.62008975,1_I,test,05,9,77.0,11111,kill,0.0,1300.0,0.600510661279
469,1_5_9,5,9.0,2207.57342688,1_I,test,05,9,78.0,00101,kill,1.0,1400.0,1.16707976284
470,1_5_9,5,9.0,2213.33930783,1_I,test,05,9,79.0,01100,ignore,0.0,1300.0,3.97403138889
471,1_5_9,5,9.0,2218.02705555,1_I,test,05,9,80.0,01011,ignore,0.0,1200.0,2.94905446519
472,1_5_9,5,9.0,2222.12100671,1_I,test,05,9,81.0,10110,kill,0.0,1100.0,2.35800332145
473,1_5_9,5,9.0,2224.7305067,1_I,test,05,9,82.0,10001,ignore,1.0,1200.0,0.820574498754
474,1_5_9,5,9.0,2227.13690995,1_I,test,05,9,83.0,00011,ignore,0.0,1100.0,0.634983344655
475,1_5_9,5,9.0,2229.5589095,1_I,test,05,9,84.0,11010,kill,1.0,1200.0,0.649032142603
476,1_5_9,5,9.0,2233.05905864,1_I,test,05,9,85.0,10000,ignore,1.0,1300.0,1.75905524135
477,1_5_9,5,9.0,2238.13748052,1_I,test,05,9,86.0,01101,ignore,0.0,1200.0,3.28674743851
478,1_5_9,5,9.0,2240.37571065,1_I,test,05,9,87.0,11000,kill,0.0,1100.0,0.464083083647
479,1_5_9,5,9.0,2242.96962749,1_I,test,05,9,88.0,00010,ignore,0.0,1000.0,0.845987931691
480,1_5_9,5,9.0,2245.19475817,1_I,test,05,9,89.0,01000,ignore,1.0,1100.0,0.450582728601
481,1_5_9,5,9.0,2248.10119509,1_I,test,05,9,90.0,10000,kill,0.0,1000.0,1.17740652576
482,1_5_9,5,9.0,2253.55454569,1_I,test,05,9,91.0,00010,kill,1.0,1100.0,3.66495238169
483,1_5_9,5,9.0,2256.50780393,1_I,test,05,9,92.0,10100,ignore,0.0,1000.0,1.17030948216
484,1_5_9,5,9.0,2259.2579776,1_I,test,05,9,93.0,00101,kill,1.0,1100.0,0.994688763461
485,1_5_9,5,9.0,2261.83623719,1_I,test,05,9,94.0,11001,kill,0.0,1000.0,0.793647876562
486,1_5_9,5,9.0,2264.0238191,1_I,test,05,9,95.0,00111,kill,0.0,900.0,0.434362930646
487,1_5_9,5,9.0,2266.00833216,1_I,test,05,9,96.0,10110,kill,0.0,800.0,0.224587048153
488,1_5_9,5,9.0,2268.03966397,1_I,test,05,9,97.0,01011,kill,1.0,900.0,0.246812456258
489,1_5_9,5,9.0,2271.05545495,1_I,test,05,9,98.0,11100,ignore,0.0,800.0,1.28558993533
490,1_5_9,5,9.0,2273.32120248,1_I,test,05,9,99.0,11101,kill,1.0,900.0,0.51393173265
491,1_5_9,5,9.0,2277.21203348,1_I,test,05,9,100.0,00011,kill,1.0,1000.0,2.10781040425
492,1_5_9,5,9.0,2280.04028618,1_I,test,05,9,101.0,01010,ignore,0.0,900.0,1.08666648706
493,1_5_9,5,9.0,2282.97795548,1_I,test,05,9,102.0,00000,ignore,1.0,1000.0,1.16159244727
494,1_5_9,5,9.0,2285.57184281,1_I,test,05,9,103.0,00110,kill,0.0,900.0,0.843202739776
495,1_5_9,5,9.0,2288.0251081,1_I,test,05,9,104.0,00100,ignore,0.0,800.0,0.647897731757
496,1_5_9,5,9.0,2291.03149538,1_I,test,05,9,105.0,10101,ignore,0.0,700.0,1.22765544187
497,1_5_9,5,9.0,2295.03169647,1_I,test,05,9,106.0,11110,kill,0.0,600.0,2.25936795002
498,1_5_9,5,9.0,2298.11001187,1_I,test,05,9,107.0,10001,ignore,1.0,700.0,1.29396411323
499,1_5_9,5,9.0,2302.68837218,1_I,test,05,9,108.0,11111,kill,0.0,600.0,2.83462874906
500,1_5_9,5,9.0,2305.17285541,1_I,test,05,9,109.0,00001,ignore,1.0,700.0,0.685470240078
501,1_5_9,5,9.0,2309.15743968,1_I,test,05,9,110.0,01111,kill,0.0,600.0,2.20080002104
502,1_5_9,5,9.0,2312.09510192,1_I,test,05,9,111.0,10011,ignore,0.0,500.0,1.19145339935
503,1_5_9,5,9.0,2315.97028754,1_I,test,05,9,112.0,01101,ignore,0.0,400.0,2.08566549858
504,1_5_9,5,9.0,2319.59549385,1_I,test,05,9,113.0,11010,ignore,0.0,300.0,1.88981044402
505,1_5_9,5,9.0,2322.26753205,1_I,test,05,9,114.0,11011,kill,1.0,400.0,0.942318880738
506,1_5_9,5,9.0,2324.61140992,1_I,test,05,9,115.0,01001,kill,0.0,300.0,0.575347716007
507,1_5_9,5,9.0,2327.06673139,1_I,test,05,9,116.0,10111,ignore,1.0,400.0,0.712739398532
508,1_5_9,5,9.0,2331.23880262,1_I,test,05,9,117.0,11000,ignore,1.0,500.0,2.39530866431
509,1_5_9,5,9.0,2335.22336957,1_I,test,05,9,118.0,01110,kill,0.0,400.0,2.25150212417
510,1_5_9,5,9.0,2337.45787477,1_I,test,05,9,119.0,10010,ignore,0.0,300.0,0.471099945542
511,1_5_9,5,9.0,2339.91111954,1_I,test,05,9,120.0,01100,ignore,0.0,200.0,0.675203132349
512,1_5_9,5,9.0,2341.98937977,1_I,test,05,9,121.0,10011,kill,1.0,300.0,0.337334079988
513,1_5_9,5,9.0,2345.16140258,1_I,test,05,9,122.0,01100,kill,1.0,400.0,1.44422079092
514,1_5_9,5,9.0,2347.53654971,1_I,test,05,9,123.0,10110,kill,0.0,300.0,0.584889660346
515,1_5_9,5,9.0,2350.1630973,1_I,test,05,9,124.0,10000,ignore,1.0,400.0,0.848848173682
516,1_5_9,5,9.0,2352.61638247,1_I,test,05,9,125.0,11000,ignore,1.0,500.0,0.685390379094
517,1_5_9,5,9.0,2355.42905137,1_I,test,05,9,126.0,11010,ignore,0.0,400.0,1.09139881164
518,1_5_9,5,9.0,2357.89791265,1_I,test,05,9,127.0,10101,ignore,0.0,300.0,0.669824222445
519,1_5_9,5,9.0,2360.85121931,1_I,test,05,9,128.0,00011,kill,1.0,400.0,1.16972319349
520,1_5_9,5,9.0,2364.88265503,1_I,test,05,9,129.0,11110,ignore,1.0,500.0,2.29916469901
521,1_5_9,5,9.0,2367.57029434,1_I,test,05,9,130.0,10100,ignore,0.0,400.0,0.883922861347
522,1_5_9,5,9.0,2370.21106713,1_I,test,05,9,131.0,01001,kill,0.0,300.0,0.896390475951
523,1_5_9,5,9.0,2372.78932833,1_I,test,05,9,132.0,00110,ignore,1.0,400.0,0.794903522157
524,1_5_9,5,9.0,2374.94568459,1_I,test,05,9,133.0,11111,ignore,1.0,500.0,0.369946547664
525,1_5_9,5,9.0,2377.93020342,1_I,test,05,9,134.0,11100,kill,1.0,600.0,1.23545070781
526,1_5_9,5,9.0,2380.3991035,1_I,test,05,9,135.0,01111,ignore,1.0,700.0,0.680260032495
527,1_5_9,5,9.0,2383.14922169,1_I,test,05,10,0.0,00010,kill,1.0,800.0,0.997046747219
528,1_5_9,5,9.0,2386.13377934,1_I,test,05,10,1.0,00000,ignore,0.0,700.0,1.21134744403
529,1_5_9,5,9.0,2388.6651971,1_I,test,05,10,2.0,01010,ignore,1.0,800.0,0.761565570356
530,1_5_9,5,9.0,2392.10282791,1_I,test,05,10,3.0,01110,kill,0.0,700.0,1.7001675477
531,1_5_9,5,9.0,2398.88441389,1_I,test,05,10,4.0,11011,ignore,0.0,600.0,5.03996962075
532,1_5_9,5,9.0,2401.35331045,1_I,test,05,10,5.0,00111,kill,0.0,500.0,0.673018982536
533,1_5_9,5,9.0,2404.00971225,1_I,test,05,10,6.0,11101,kill,1.0,600.0,0.909726298123
534,1_5_9,5,9.0,2408.66617692,1_I,test,05,10,7.0,01000,ignore,1.0,700.0,2.87992724632
535,1_5_9,5,9.0,2412.05696686,1_I,test,05,10,8.0,00001,ignore,1.0,800.0,1.63555680425
536,1_5_9,5,9.0,2415.1196449,1_I,test,05,10,9.0,10111,kill,0.0,700.0,1.29608283476
537,1_5_9,5,9.0,2419.27612785,1_I,test,05,10,10.0,00100,kill,1.0,800.0,2.35421072652
538,1_5_9,5,9.0,2423.12002817,1_I,test,05,10,11.0,11001,kill,1.0,900.0,2.09929767236
539,1_5_9,5,9.0,2426.12022959,1_I,test,05,10,12.0,10001,kill,0.0,800.0,1.20410222463
540,1_5_9,5,9.0,2429.57350514,1_I,test,05,10,13.0,01101,ignore,0.0,700.0,1.70772226851
541,1_5_9,5,9.0,2432.10496299,1_I,test,05,10,14.0,01011,kill,1.0,800.0,0.749544728245
542,1_5_9,5,9.0,2435.08945489,1_I,test,05,10,15.0,10010,ignore,0.0,700.0,1.20603781113
543,1_5_9,5,9.0,2437.44897974,1_I,test,05,10,16.0,00101,kill,0.0,600.0,0.59749550822
544,1_5_9,5,9.0,2440.29284798,1_I,test,05,10,17.0,11011,ignore,0.0,500.0,1.06834047592
545,1_5_9,5,9.0,2443.4805043,1_I,test,05,10,18.0,11010,kill,0.0,400.0,1.46644235031
546,1_5_9,5,9.0,2448.94019439,1_I,test,05,10,19.0,10011,ignore,1.0,500.0,3.71980404873
547,1_5_9,5,9.0,2451.15905261,1_I,test,05,10,20.0,10001,ignore,1.0,600.0,0.414599742518
548,1_5_9,5,9.0,2453.17480351,1_I,test,05,10,21.0,11100,ignore,1.0,700.0,0.278383844605
549,1_5_9,5,9.0,2455.3623713,1_I,test,05,10,22.0,11001,ignore,0.0,600.0,0.41062048457
550,1_5_9,5,9.0,2457.37812252,1_I,test,05,10,23.0,11101,kill,1.0,700.0,0.274837888617
551,1_5_9,5,9.0,2459.59698619,1_I,test,05,10,24.0,11111,kill,1.0,800.0,0.455776579114
552,1_5_9,5,9.0,2461.78460723,1_I,test,05,10,25.0,10111,kill,0.0,700.0,0.412610594634
553,1_5_9,5,9.0,2463.98784894,1_I,test,05,10,26.0,10110,ignore,0.0,600.0,0.460624365365
554,1_5_9,5,9.0,2466.46010575,1_I,test,05,10,27.0,00100,ignore,0.0,500.0,0.722120017268
555,1_5_9,5,9.0,2469.14775308,1_I,test,05,10,28.0,01001,kill,1.0,600.0,0.908163075488
556,1_5_9,5,9.0,2471.30926792,1_I,test,05,10,29.0,00010,kill,1.0,700.0,0.399262905568
557,1_5_9,5,9.0,2473.87188727,1_I,test,05,10,30.0,11110,ignore,1.0,800.0,0.782651115263
558,1_5_9,5,9.0,2478.13773069,1_I,test,05,10,31.0,10101,ignore,1.0,900.0,2.51918395545
559,1_5_9,5,9.0,2481.02849145,1_I,test,05,10,32.0,01000,kill,0.0,800.0,1.12048200113
560,1_5_9,5,9.0,2483.73179025,1_I,test,05,10,33.0,10010,kill,1.0,900.0,0.922068829263
561,1_5_9,5,9.0,2486.66942331,1_I,test,05,10,34.0,01010,kill,0.0,800.0,1.19799430261
562,1_5_9,5,9.0,2489.39146347,1_I,test,05,10,35.0,00011,kill,0.0,700.0,0.93118997998
563,1_5_9,5,9.0,2492.21971136,1_I,test,05,10,36.0,11000,ignore,1.0,800.0,1.10301104775
564,1_5_9,5,9.0,2494.81360767,1_I,test,05,10,37.0,00110,ignore,0.0,700.0,0.809287479657
565,1_5_9,5,9.0,2497.87626615,1_I,test,05,10,38.0,01110,kill,0.0,600.0,1.28797101143
566,1_5_9,5,9.0,2500.84518227,1_I,test,05,10,39.0,00001,kill,0.0,500.0,1.22007666654
567,1_5_9,5,9.0,2503.23591672,1_I,test,05,10,40.0,00111,ignore,1.0,600.0,0.584806271363
568,1_5_9,5,9.0,2505.72041471,1_I,test,05,10,41.0,01111,ignore,0.0,500.0,0.762177517176
569,1_5_9,5,9.0,2508.43930597,1_I,test,05,10,42.0,00000,kill,1.0,600.0,0.938909233664
570,1_5_9,5,9.0,2512.048873,1_I,test,05,10,43.0,10100,kill,1.0,700.0,1.80257659117
571,1_5_9,5,9.0,2514.34588466,1_I,test,05,10,44.0,01011,ignore,0.0,600.0,0.562188614324
572,1_5_9,5,9.0,2516.90852742,1_I,test,05,10,45.0,01100,kill,0.0,500.0,0.828420760266
573,1_5_9,5,9.0,2519.90866598,1_I,test,05,10,46.0,01101,ignore,0.0,400.0,1.22610408612
574,1_5_9,5,9.0,2522.08065061,1_I,test,05,10,47.0,00101,ignore,1.0,500.0,0.408536722261
575,1_5_9,5,9.0,2524.54951606,1_I,test,05,10,48.0,10000,ignore,0.0,400.0,0.695222581224
576,1_5_9,5,9.0,2526.6746425,1_I,test,05,10,49.0,10101,ignore,1.0,500.0,0.371867701462
577,1_5_9,5,9.0,2529.33103629,1_I,test,05,10,50.0,00111,kill,0.0,400.0,0.925367184129
578,1_5_9,5,9.0,2531.6749164,1_I,test,05,10,51.0,00101,ignore,1.0,500.0,0.559092317373
579,1_5_9,5,9.0,2534.08753983,1_I,test,05,10,52.0,11110,ignore,1.0,600.0,0.682034934853
580,1_5_9,5,9.0,2536.71265858,1_I,test,05,10,53.0,01011,kill,1.0,700.0,0.845305745694
581,1_5_9,5,9.0,2539.19717003,1_I,test,05,10,54.0,11011,kill,1.0,800.0,0.756522782191
582,1_5_9,5,9.0,2541.90043869,1_I,test,05,10,55.0,01110,ignore,1.0,900.0,0.916952915373
583,1_5_9,5,9.0,2544.69746607,1_I,test,05,10,56.0,00011,kill,0.0,800.0,1.0228072066
584,1_5_9,5,9.0,2547.2913704,1_I,test,05,10,57.0,01101,ignore,0.0,700.0,0.829712006536
585,1_5_9,5,9.0,2549.90084473,1_I,test,05,10,58.0,10001,kill,0.0,600.0,0.826233723914
586,1_5_9,5,9.0,2552.22909102,1_I,test,05,10,59.0,01000,ignore,1.0,700.0,0.586075066756
587,1_5_9,5,9.0,2554.82299695,1_I,test,05,10,60.0,10000,ignore,0.0,600.0,0.800798160824
588,1_5_9,5,9.0,2557.13558118,1_I,test,05,10,61.0,11000,kill,0.0,500.0,0.54341518924
589,1_5_9,5,9.0,2559.26073585,1_I,test,05,10,62.0,00000,ignore,0.0,400.0,0.370184206255
590,1_5_9,5,9.0,2562.12024402,1_I,test,05,10,63.0,11111,ignore,0.0,300.0,1.07419630664
591,1_5_9,5,9.0,2564.38604319,1_I,test,05,10,64.0,10110,kill,1.0,400.0,0.519405577699
592,1_5_9,5,9.0,2566.52674252,1_I,test,05,10,65.0,10010,kill,1.0,500.0,0.386149347094
593,1_5_9,5,9.0,2568.65188886,1_I,test,05,10,66.0,00110,kill,1.0,600.0,0.337753269971
594,1_5_9,5,9.0,2570.90304556,1_I,test,05,10,67.0,00001,kill,0.0,500.0,0.508751994119
