,unique_id,pair_id,sbj_id,wall_time,condition,block,rule_id,rule_num,trial,stimulus,choice,correct,points,reaction_time
0,1_3_6,3,6.0,89.4830383609,1_I,training,03,1_A,1.0,10101,ignore,1.0,100.0,7.61964265898
1,1_3_6,3,6.0,95.7645974012,1_I,training,03,1_A,2.0,10010,kill,1.0,200.0,4.46701164046
2,1_3_6,3,6.0,103.327530423,1_I,training,03,1_A,3.0,01110,ignore,1.0,300.0,5.75437423306
3,1_3_6,3,6.0,111.827919464,1_I,training,03,1_A,4.0,10000,kill,0.0,200.0,6.69400285704
4,1_3_6,3,6.0,117.1094676,1_I,training,03,1_A,5.0,11010,kill,1.0,300.0,3.4836243288
5,1_3_6,3,6.0,121.937838327,1_I,training,03,1_A,6.0,01101,ignore,0.0,200.0,3.01131075288
6,1_3_6,3,6.0,126.281850581,1_I,training,03,1_A,7.0,01011,ignore,1.0,300.0,2.53443964851
7,1_3_6,3,6.0,139.094969784,1_I,training,03,1_A,8.0,10001,ignore,1.0,400.0,10.9970085807
8,1_3_6,3,6.0,148.579843986,1_I,training,03,1_A,9.0,11100,kill,0.0,300.0,7.69082573692
9,1_3_6,3,6.0,152.345670733,1_I,training,03,1_A,10.0,00010,ignore,1.0,400.0,1.95168025586
10,1_3_6,3,6.0,158.345977989,1_I,training,03,1_A,11.0,00100,ignore,0.0,300.0,4.15650636098
11,1_3_6,3,6.0,171.846687758,1_I,training,03,1_A,12.0,11110,kill,1.0,400.0,11.6897073624
12,1_3_6,3,6.0,177.206352123,1_I,training,03,1_A,13.0,01001,ignore,0.0,300.0,3.55460791464
13,1_3_6,3,6.0,181.597207175,1_I,training,03,1_A,14.0,10011,ignore,0.0,200.0,2.56740908516
14,1_3_6,3,6.0,185.362987417,1_I,training,03,1_A,15.0,00011,ignore,1.0,300.0,1.97307466072
15,1_3_6,3,6.0,193.879069302,1_I,training,03,1_A,16.0,01010,kill,0.0,200.0,6.73195318158
16,1_3_6,3,6.0,200.316927193,1_I,training,03,1_A,17.0,01000,ignore,0.0,100.0,4.64821974151
17,1_3_6,3,6.0,206.489104909,1_I,training,03,1_A,18.0,11001,ignore,1.0,200.0,4.38621926555
18,1_3_6,3,6.0,211.833127427,1_I,training,03,1_A,19.0,11000,kill,0.0,100.0,3.55756277106
19,1_3_6,3,6.0,215.614596984,1_I,training,03,1_A,20.0,11111,ignore,0.0,0.0,1.99595274796
20,1_3_6,3,6.0,220.786728195,1_I,training,03,1_A,21.0,00111,ignore,1.0,100.0,3.36947700356
21,1_3_6,3,6.0,231.459225355,1_I,training,03,1_A,22.0,10110,kill,1.0,200.0,8.87845799665
22,1_3_6,3,6.0,237.271958082,1_I,training,03,1_A,23.0,00001,ignore,0.0,100.0,4.01886483224
23,1_3_6,3,6.0,243.366047792,1_I,training,03,1_A,24.0,00101,ignore,0.0,0.0,4.28553765686
24,1_3_6,3,6.0,246.413047745,1_I,training,03,1_A,25.0,01100,ignore,0.0,0.0,1.26094881264
25,1_3_6,3,6.0,251.616445012,1_I,training,03,1_A,26.0,10100,kill,0.0,0.0,3.4172184772
26,1_3_6,3,6.0,256.210443636,1_I,training,03,1_A,27.0,00110,kill,0.0,0.0,2.80531078752
27,1_3_6,3,6.0,263.11703066,1_I,training,03,1_A,28.0,00000,ignore,0.0,0.0,5.10490878849
28,1_3_6,3,6.0,266.148467663,1_I,training,03,1_A,29.0,01111,ignore,1.0,100.0,1.25584765218
29,1_3_6,3,6.0,269.929940428,1_I,training,03,1_A,30.0,11011,ignore,0.0,0.0,2.01214303904
30,1_3_6,3,6.0,274.258265291,1_I,training,03,1_A,31.0,11101,kill,0.0,0.0,2.54570421672
31,1_3_6,3,6.0,283.352505101,1_I,training,03,1_A,32.0,10111,kill,1.0,100.0,7.2967021583
32,1_3_6,3,6.0,288.008966881,1_I,training,03,1_A,33.0,01010,ignore,1.0,200.0,2.87863535859
33,1_3_6,3,6.0,291.899798199,1_I,training,03,1_A,34.0,11101,kill,0.0,100.0,2.12073345097
34,1_3_6,3,6.0,296.181282189,1_I,training,03,1_A,35.0,10010,ignore,0.0,0.0,2.48944455884
35,1_3_6,3,6.0,299.2595931,1_I,training,03,1_A,36.0,10001,ignore,1.0,100.0,1.28256483974
36,1_3_6,3,6.0,303.16599314,1_I,training,03,1_A,37.0,00011,ignore,1.0,200.0,2.10866899001
37,1_3_6,3,6.0,308.775664722,1_I,training,03,1_A,38.0,11010,ignore,0.0,100.0,3.82214894683
38,1_3_6,3,6.0,311.525836151,1_I,training,03,1_A,39.0,11100,ignore,1.0,200.0,0.969538005811
39,1_3_6,3,6.0,323.651483458,1_I,training,03,1_A,40.0,11011,ignore,0.0,100.0,10.3449609643
40,1_3_6,3,6.0,328.167321591,1_I,training,03,1_A,41.0,10111,ignore,0.0,0.0,2.74644426184
41,1_3_6,3,6.0,332.46443909,1_I,training,03,1_A,42.0,00010,ignore,1.0,100.0,2.52998507337
42,1_3_6,3,6.0,340.746083123,1_I,training,03,1_A,43.0,11110,kill,1.0,200.0,6.51508987728
43,1_3_6,3,6.0,346.590174277,1_I,training,03,1_A,44.0,00001,ignore,0.0,100.0,4.05685171964
44,1_3_6,3,6.0,350.137195718,1_I,training,03,1_A,45.0,01001,ignore,0.0,0.0,1.75393836528
45,1_3_6,3,6.0,353.231112557,1_I,training,03,1_A,46.0,10110,ignore,0.0,0.0,1.32157131778
46,1_3_6,3,6.0,355.699980564,1_I,training,03,1_A,47.0,11001,ignore,1.0,100.0,0.699692871975
47,1_3_6,3,6.0,359.137663659,1_I,training,03,1_A,48.0,01110,ignore,1.0,200.0,1.67117063374
48,1_3_6,3,6.0,362.66913017,1_I,training,03,1_A,49.0,01011,ignore,1.0,300.0,1.75478155615
49,1_3_6,3,6.0,366.513073147,1_I,training,03,1_A,50.0,00110,kill,0.0,200.0,2.05795149199
50,1_3_6,3,6.0,369.231949654,1_I,training,03,1_A,51.0,00111,ignore,1.0,300.0,0.91670242771
51,1_3_6,3,6.0,374.935365843,1_I,training,03,1_A,52.0,11000,kill,0.0,200.0,3.92649870843
52,1_3_6,3,6.0,377.38858655,1_I,training,03,1_A,53.0,01111,ignore,1.0,300.0,0.669672518648
53,1_3_6,3,6.0,380.201299713,1_I,training,03,1_A,54.0,00000,ignore,0.0,200.0,1.01763452406
54,1_3_6,3,6.0,383.201449172,1_I,training,03,1_A,55.0,10100,ignore,1.0,300.0,1.19883204113
55,1_3_6,3,6.0,386.404744769,1_I,training,03,1_A,56.0,11111,ignore,0.0,200.0,1.42897247458
56,1_3_6,3,6.0,389.248606281,1_I,training,03,1_A,57.0,10011,ignore,0.0,100.0,1.06613579959
57,1_3_6,3,6.0,392.123731926,1_I,training,03,1_A,58.0,01000,ignore,0.0,0.0,1.09378983027
58,1_3_6,3,6.0,394.905145357,1_I,training,03,1_A,59.0,01101,ignore,0.0,0.0,1.00873820287
59,1_3_6,3,6.0,397.03026603,1_I,training,03,1_A,60.0,10101,ignore,1.0,100.0,0.326657724803
60,1_3_6,3,6.0,399.561670961,1_I,training,03,1_A,61.0,00100,ignore,0.0,0.0,0.736207302436
61,1_3_6,3,6.0,401.733631224,1_I,training,03,1_A,62.0,00101,ignore,0.0,0.0,0.376708752445
62,1_3_6,3,6.0,404.9681762,1_I,training,03,1_A,63.0,10000,ignore,1.0,100.0,1.45691483869
63,1_3_6,3,6.0,408.405860898,1_I,training,03,1_A,64.0,01100,ignore,0.0,0.0,1.6607803669
64,1_3_6,3,6.0,413.234234832,1_I,training,03,1_A,65.0,10111,ignore,0.0,0.0,3.05651399428
65,1_3_6,3,6.0,415.718722558,1_I,training,03,1_A,66.0,00010,ignore,1.0,100.0,0.699339430992
66,1_3_6,3,6.0,419.000137271,1_I,training,03,1_A,67.0,10000,ignore,1.0,200.0,1.502721688
67,1_3_6,3,6.0,425.078592509,1_I,training,03,1_A,68.0,11011,ignore,0.0,100.0,4.3292658755
68,1_3_6,3,6.0,428.48501917,1_I,training,03,1_A,69.0,01001,kill,1.0,200.0,1.62419281072
69,1_3_6,3,6.0,435.016585747,1_I,training,03,1_A,70.0,10001,kill,0.0,100.0,4.76525264616
70,1_3_6,3,6.0,440.094986141,1_I,training,03,1_A,71.0,01100,kill,1.0,200.0,3.29860920011
71,1_3_6,3,6.0,450.454918635,1_I,training,03,1_A,72.0,00110,kill,0.0,100.0,8.57215616318
72,1_3_6,3,6.0,453.517586094,1_I,training,03,1_A,73.0,11110,kill,1.0,200.0,1.29307762424
73,1_3_6,3,6.0,458.50222392,1_I,training,03,1_A,74.0,01000,ignore,0.0,100.0,3.19127026432
74,1_3_6,3,6.0,461.68986965,1_I,training,03,1_A,75.0,10010,ignore,0.0,0.0,1.42897471967
75,1_3_6,3,6.0,467.143297867,1_I,training,03,1_A,76.0,10101,ignore,1.0,100.0,3.67423133001
76,1_3_6,3,6.0,469.752774127,1_I,training,03,1_A,77.0,11100,ignore,1.0,200.0,0.836593200976
77,1_3_6,3,6.0,471.940443591,1_I,training,03,1_A,78.0,00011,ignore,1.0,300.0,0.401729936451
78,1_3_6,3,6.0,474.581200019,1_I,training,03,1_A,79.0,01101,ignore,0.0,200.0,0.864564109768
79,1_3_6,3,6.0,477.253183695,1_I,training,03,1_A,80.0,10011,ignore,0.0,100.0,0.908935706455
80,1_3_6,3,6.0,479.831467665,1_I,training,03,1_A,81.0,11010,kill,1.0,200.0,0.80809116853
81,1_3_6,3,6.0,482.878485579,1_I,training,03,1_A,82.0,01111,kill,0.0,100.0,1.28736419624
82,1_3_6,3,6.0,485.769235111,1_I,training,03,1_A,83.0,00100,kill,1.0,200.0,1.10605634914
83,1_3_6,3,6.0,488.906490806,1_I,training,03,1_A,84.0,01110,ignore,1.0,300.0,1.38034387049
84,1_3_6,3,6.0,491.969118816,1_I,training,03,1_A,85.0,11101,kill,0.0,200.0,1.28443082852
85,1_3_6,3,6.0,495.516174896,1_I,training,03,1_A,86.0,11111,kill,1.0,300.0,1.79200832094
86,1_3_6,3,6.0,500.375816811,1_I,training,03,1_A,87.0,00000,ignore,0.0,200.0,3.07840552574
87,1_3_6,3,6.0,503.657203621,1_I,training,03,1_A,88.0,10110,kill,1.0,300.0,1.50432788803
88,1_3_6,3,6.0,508.50123127,1_I,training,03,1_A,89.0,00111,ignore,1.0,400.0,3.05020754234
89,1_3_6,3,6.0,512.423299779,1_I,training,03,1_A,90.0,11001,kill,0.0,300.0,2.15760485042
90,1_3_6,3,6.0,515.501590164,1_I,training,03,1_A,91.0,10100,kill,0.0,200.0,1.30892762414
91,1_3_6,3,6.0,517.986136582,1_I,training,03,1_A,92.0,01010,ignore,1.0,300.0,0.727801372583
92,1_3_6,3,6.0,520.548734123,1_I,training,03,1_A,93.0,11000,ignore,1.0,400.0,0.803132731522
93,1_3_6,3,6.0,527.705373586,1_I,training,03,1_A,94.0,00001,ignore,0.0,300.0,5.35276200336
94,1_3_6,3,6.0,530.299242956,1_I,training,03,1_A,95.0,01011,ignore,1.0,400.0,0.838214475172
95,1_3_6,3,6.0,536.596449297,1_I,training,03,1_A,96.0,00101,kill,1.0,500.0,4.49203154156
96,1_3_6,3,6.0,543.706194005,1_I,training,03,1_A,97.0,11100,kill,0.0,400.0,5.34681829349
97,1_3_6,3,6.0,549.378372683,1_I,training,03,1_A,98.0,00000,kill,1.0,500.0,3.91288192954
98,1_3_6,3,6.0,554.238004014,1_I,training,03,1_A,99.0,00100,ignore,0.0,400.0,3.06462838343
99,1_3_6,3,6.0,556.878763329,1_I,training,03,1_A,100.0,10001,ignore,1.0,500.0,0.875493197704
100,1_3_6,3,6.0,570.648227118,1_I,training,03,1_A,101.0,11110,kill,1.0,600.0,12.0241302048
101,1_3_6,3,6.0,576.304789606,1_I,training,03,1_A,102.0,10101,ignore,1.0,700.0,3.87731781272
102,1_3_6,3,6.0,582.539452288,1_I,training,03,1_A,103.0,01010,ignore,1.0,800.0,4.49599700826
103,1_3_6,3,6.0,587.680389285,1_I,training,03,1_A,104.0,11101,kill,0.0,700.0,3.37683479809
104,1_3_6,3,6.0,592.50873243,1_I,training,03,1_A,105.0,10110,ignore,0.0,600.0,3.05517431825
105,1_3_6,3,6.0,595.415146903,1_I,training,03,1_A,106.0,01111,ignore,1.0,700.0,1.16252576238
106,1_3_6,3,6.0,599.68100444,1_I,training,03,1_A,107.0,00001,ignore,0.0,600.0,2.46666301038
107,1_3_6,3,6.0,602.228001506,1_I,training,03,1_A,108.0,10111,ignore,0.0,500.0,0.773298720493
108,1_3_6,3,6.0,604.931284594,1_I,training,03,1_A,109.0,01000,ignore,0.0,400.0,0.933864200406
109,1_3_6,3,6.0,608.384568805,1_I,training,03,1_A,110.0,11010,ignore,0.0,300.0,1.69552502664
110,1_3_6,3,6.0,612.322276275,1_I,training,03,1_A,111.0,00101,ignore,0.0,200.0,2.15398288217
111,1_3_6,3,6.0,614.509872934,1_I,training,03,1_A,112.0,10000,ignore,1.0,300.0,0.409293637613
112,1_3_6,3,6.0,616.760028006,1_I,training,03,1_A,113.0,11111,ignore,0.0,200.0,0.488755958302
113,1_3_6,3,6.0,618.900801432,1_I,training,03,1_A,114.0,00011,ignore,1.0,300.0,0.355553289086
114,1_3_6,3,6.0,621.369595672,1_I,training,03,1_A,115.0,10010,ignore,0.0,200.0,0.709312111479
115,1_3_6,3,6.0,623.963526623,1_I,training,03,1_A,116.0,01110,ignore,1.0,300.0,0.841239570764
116,1_3_6,3,6.0,627.776192318,1_I,training,03,1_A,117.0,00110,ignore,1.0,400.0,2.04653778579
117,1_3_6,3,6.0,630.901357573,1_I,training,03,1_A,118.0,11000,ignore,1.0,500.0,1.36376453775
118,1_3_6,3,6.0,633.604616927,1_I,training,03,1_A,119.0,01001,ignore,0.0,400.0,0.923141019104
119,1_3_6,3,6.0,636.339133678,1_I,training,03,1_A,120.0,00111,ignore,1.0,500.0,0.956884048908
120,1_3_6,3,6.0,638.9330255,1_I,training,03,1_A,121.0,01101,ignore,0.0,400.0,0.83808554298
121,1_3_6,3,6.0,641.339382242,1_I,training,03,1_A,122.0,00010,ignore,1.0,500.0,0.643786013616
122,1_3_6,3,6.0,645.073959289,1_I,training,03,1_A,123.0,10100,kill,0.0,400.0,1.96993282056
123,1_3_6,3,6.0,648.496035816,1_I,training,03,1_A,124.0,01100,kill,1.0,500.0,1.64953889102
124,1_3_6,3,6.0,651.777439625,1_I,training,03,1_A,125.0,11001,ignore,1.0,600.0,1.52597919509
125,1_3_6,3,6.0,654.793250817,1_I,training,03,1_A,126.0,10011,ignore,0.0,500.0,1.23199615897
126,1_3_6,3,6.0,658.059033945,1_I,training,03,1_A,127.0,01011,ignore,1.0,600.0,1.5012617394
127,1_3_6,3,6.0,661.106052821,1_I,training,03,1_A,128.0,11011,ignore,0.0,500.0,1.2712306738
128,1_3_6,3,6.0,663.871821838,1_I,training,03,1_A,129.0,01100,ignore,0.0,400.0,1.00354114508
129,1_3_6,3,6.0,666.246918296,1_I,training,03,1_A,130.0,00111,ignore,1.0,500.0,0.593730175071
130,1_3_6,3,6.0,669.700240353,1_I,training,03,1_A,131.0,01001,ignore,0.0,400.0,1.68976445179
131,1_3_6,3,6.0,678.575686083,1_I,training,03,1_A,132.0,11011,ignore,0.0,300.0,7.10014823995
132,1_3_6,3,6.0,681.904011587,1_I,training,03,1_A,133.0,10110,ignore,0.0,200.0,1.55435261607
133,1_3_6,3,6.0,685.341713926,1_I,training,03,1_A,134.0,11001,ignore,1.0,300.0,1.66683729335
134,1_3_6,3,6.0,688.310581292,1_I,training,03,1_A,135.0,10111,ignore,0.0,200.0,1.19010570515
135,1_3_6,3,6.0,693.592123975,1_I,training,03,1_A,136.0,11100,kill,0.0,100.0,3.50152730123
136,1_3_6,3,6.0,696.904827196,1_I,training,03,1_A,137.0,00001,ignore,0.0,0.0,1.51707325209
137,1_3_6,3,6.0,700.295568068,1_I,training,03,1_A,138.0,01010,kill,0.0,0.0,1.61500366591
138,1_3_6,3,6.0,703.420747435,1_I,training,03,1_A,139.0,01011,kill,0.0,0.0,1.3649743194
139,1_3_6,3,6.0,705.842751477,1_I,training,03,1_A,140.0,00011,ignore,1.0,100.0,0.64440854442
140,1_3_6,3,6.0,708.467898771,1_I,training,03,1_A,141.0,00101,ignore,0.0,0.0,0.833691264492
141,1_3_6,3,6.0,710.733632507,1_I,training,03,1_A,142.0,11110,ignore,0.0,0.0,0.528308634159
142,1_3_6,3,6.0,712.811859388,1_I,training,03,1_A,143.0,11000,ignore,1.0,100.0,0.323300035472
143,1_3_6,3,6.0,714.905703421,1_I,training,03,1_A,144.0,00010,ignore,1.0,200.0,0.325871623307
144,1_3_6,3,6.0,726.812576854,1_I,training,03,1_A,145.0,10101,ignore,1.0,300.0,10.1281682199
145,1_3_6,3,6.0,732.797288126,1_I,training,03,1_A,146.0,00100,ignore,0.0,200.0,4.21013445511
146,1_3_6,3,6.0,736.094299465,1_I,training,03,1_A,147.0,10010,ignore,0.0,100.0,1.52652827945
147,1_3_6,3,6.0,739.235100795,1_I,training,03,1_A,148.0,10000,ignore,1.0,200.0,1.37574015737
148,1_3_6,3,6.0,742.391521522,1_I,training,03,1_A,149.0,11111,ignore,0.0,100.0,1.40048583702
149,1_3_6,3,6.0,746.157349231,1_I,training,03,1_A,150.0,01101,ignore,0.0,0.0,1.99949902467
150,1_3_6,3,6.0,748.626211145,1_I,training,03,1_A,151.0,10100,ignore,1.0,100.0,0.68494745532
151,1_3_6,3,6.0,755.064055886,1_I,training,03,1_A,152.0,01110,ignore,1.0,200.0,4.6808562637
152,1_3_6,3,6.0,758.657985874,1_I,training,03,1_A,153.0,01111,kill,0.0,100.0,1.80954887204
153,1_3_6,3,6.0,762.220687972,1_I,training,03,1_A,154.0,11010,ignore,0.0,0.0,1.8243876202
154,1_3_6,3,6.0,765.70522541,1_I,training,03,1_A,155.0,10001,kill,0.0,0.0,1.70138919625
155,1_3_6,3,6.0,768.736662735,1_I,training,03,1_A,156.0,00110,ignore,1.0,100.0,1.23908839168
156,1_3_6,3,6.0,771.002390377,1_I,training,03,1_A,157.0,00000,ignore,0.0,0.0,0.48398803304
157,1_3_6,3,6.0,773.127518427,1_I,training,03,1_A,158.0,01000,ignore,0.0,0.0,0.359682326476
158,1_3_6,3,6.0,775.802644585,1_I,training,03,1_A,159.0,11101,ignore,1.0,100.0,0.937777709356
159,1_3_6,3,6.0,777.88087756,1_I,training,03,1_A,160.0,10011,ignore,0.0,0.0,0.307604625908
160,1_3_6,3,6.0,780.927945186,1_I,training,03,1_A,161.0,10101,kill,0.0,0.0,1.25460066621
161,1_3_6,3,6.0,783.162382718,1_I,training,03,1_A,162.0,11011,kill,1.0,100.0,0.492076122591
162,1_3_6,3,6.0,785.381245754,1_I,training,03,1_A,163.0,11010,kill,1.0,200.0,0.456248047576
163,1_3_6,3,6.0,787.553223016,1_I,training,03,1_A,164.0,01001,kill,1.0,300.0,0.40561618362
164,1_3_6,3,6.0,790.490893603,1_I,training,03,1_A,165.0,10110,ignore,0.0,200.0,1.17243397678
165,1_3_6,3,6.0,793.102319561,1_I,training,03,1_A,166.0,01101,kill,1.0,300.0,0.844828183421
166,1_3_6,3,6.0,795.9462016,1_I,training,03,1_A,167.0,01110,kill,0.0,200.0,1.09922550882
167,1_3_6,3,6.0,798.040078668,1_I,training,03,1_A,168.0,11000,kill,0.0,100.0,0.334792640475
168,1_3_6,3,6.0,800.743341871,1_I,training,03,1_A,169.0,01100,kill,1.0,200.0,0.920472251035
169,1_3_6,3,6.0,803.540339419,1_I,training,03,1_A,170.0,10011,kill,1.0,300.0,1.04279297916
170,1_3_6,3,6.0,806.603017783,1_I,training,03,1_A,171.0,10001,ignore,1.0,400.0,1.27979279763
171,1_3_6,3,6.0,810.040802869,1_I,training,03,1_A,172.0,11101,kill,0.0,300.0,1.68392016724
172,1_3_6,3,6.0,812.165811609,1_I,training,03,1_A,173.0,00011,kill,0.0,200.0,0.342368208529
173,1_3_6,3,6.0,814.619073048,1_I,training,03,1_A,174.0,11110,kill,1.0,300.0,0.680750103113
174,1_3_6,3,6.0,816.837935122,1_I,training,03,1_A,175.0,00000,kill,1.0,400.0,0.444042466801
175,1_3_6,3,6.0,819.463053871,1_I,training,03,1_A,176.0,10100,kill,0.0,300.0,0.833571954105
176,1_3_6,3,6.0,821.792635663,1_I,training,03,1_A,177.0,11001,ignore,1.0,400.0,0.56724711811
177,1_3_6,3,6.0,824.105162483,1_I,training,03,1_A,178.0,10000,ignore,1.0,500.0,0.535254615421
178,1_3_6,3,6.0,826.667804606,1_I,training,03,1_A,179.0,01000,kill,1.0,600.0,0.793348959145
179,1_3_6,3,6.0,829.214793013,1_I,training,03,1_A,180.0,00101,kill,1.0,700.0,0.776688161779
180,1_3_6,3,6.0,831.511788957,1_I,training,03,1_A,181.0,10111,ignore,0.0,600.0,0.528607551578
181,1_3_6,3,6.0,834.902597503,1_I,training,03,1_A,182.0,00010,ignore,1.0,700.0,1.62724484736
182,1_3_6,3,6.0,837.433947589,1_I,training,03,1_A,183.0,01010,ignore,1.0,800.0,0.769138893325
183,1_3_6,3,6.0,840.013910565,1_I,training,03,1_A,184.0,00111,ignore,1.0,900.0,0.785075168751
184,1_3_6,3,6.0,842.904679982,1_I,training,03,1_A,185.0,01011,kill,0.0,800.0,1.14482997949
185,1_3_6,3,6.0,845.404844836,1_I,training,03,1_A,186.0,00110,kill,0.0,700.0,0.7384100544
186,1_3_6,3,6.0,847.514293513,1_I,training,03,1_A,187.0,01111,kill,0.0,600.0,0.34052467063
187,1_3_6,3,6.0,849.920737171,1_I,training,03,1_A,188.0,11111,ignore,0.0,500.0,0.630623383937
188,1_3_6,3,6.0,852.04578504,1_I,training,03,1_A,189.0,10010,kill,1.0,600.0,0.355987553234
189,1_3_6,3,6.0,854.061536256,1_I,training,03,1_A,190.0,00001,kill,1.0,700.0,0.261508160253
190,1_3_6,3,6.0,856.124141494,1_I,training,03,1_A,191.0,00100,kill,1.0,800.0,0.291263593204
191,1_3_6,3,6.0,858.936787305,1_I,training,03,1_A,192.0,11100,kill,0.0,700.0,1.03907030268
192,1_3_6,3,6.0,860.994530324,1_I,training,03,1_A,193.0,10000,ignore,1.0,800.0,0.300449851471
193,1_3_6,3,6.0,863.041492753,1_I,training,03,1_A,194.0,10010,ignore,0.0,700.0,0.272319862164
194,1_3_6,3,6.0,865.166616313,1_I,training,03,1_A,195.0,10011,kill,1.0,800.0,0.357297401662
195,1_3_6,3,6.0,867.401090407,1_I,training,03,1_A,196.0,00101,ignore,0.0,700.0,0.445295867306
196,1_3_6,3,6.0,869.510599381,1_I,training,03,1_A,197.0,00000,kill,1.0,800.0,0.32232983677
197,1_3_6,3,6.0,871.541989238,1_I,training,03,1_A,198.0,00011,kill,0.0,700.0,0.277290166066
198,1_3_6,3,6.0,874.213935068,1_I,training,03,1_A,199.0,10110,ignore,0.0,600.0,0.905992716935
199,1_3_6,3,6.0,876.948478761,1_I,training,03,1_A,200.0,01011,ignore,1.0,700.0,0.989793509643
200,1_3_6,3,6.0,879.314219296,1_I,training,03,1_A,201.0,01110,kill,0.0,600.0,0.60547615428
201,1_3_6,3,6.0,881.595608031,1_I,training,03,1_A,202.0,10001,ignore,1.0,700.0,0.484345002018
202,1_3_6,3,6.0,883.65818729,1_I,training,03,1_A,203.0,01111,ignore,1.0,800.0,0.312402699494
203,1_3_6,3,6.0,885.736426038,1_I,training,03,1_A,204.0,00010,ignore,1.0,900.0,0.31639478652
204,1_3_6,3,6.0,888.377213576,1_I,training,03,1_A,205.0,10111,ignore,0.0,800.0,0.895845240319
205,1_3_6,3,6.0,890.752323826,1_I,training,03,1_A,206.0,11010,ignore,0.0,700.0,0.62005928315
206,1_3_6,3,6.0,892.783720098,1_I,training,03,1_A,207.0,00110,kill,0.0,600.0,0.250097661323
207,1_3_6,3,6.0,897.908987985,1_I,training,03,1_A,208.0,11100,kill,0.0,500.0,3.37640374121
208,1_3_6,3,6.0,899.955996598,1_I,training,03,1_A,209.0,11001,ignore,1.0,600.0,0.286926404093
209,1_3_6,3,6.0,902.019059513,1_I,training,03,1_A,210.0,01000,ignore,0.0,500.0,0.299297159194
210,1_3_6,3,6.0,904.30384699,1_I,training,03,1_A,211.0,11011,kill,1.0,600.0,0.543498898944
211,1_3_6,3,6.0,906.350823851,1_I,training,03,1_A,212.0,01100,kill,1.0,700.0,0.265505699637
212,1_3_6,3,6.0,908.42902796,1_I,training,03,1_A,213.0,00111,kill,0.0,600.0,0.326588447804
213,1_3_6,3,6.0,911.351062472,1_I,training,03,1_A,214.0,01101,ignore,0.0,500.0,1.13683073128
214,1_3_6,3,6.0,913.632430038,1_I,training,03,1_A,215.0,11101,ignore,1.0,600.0,0.505745821411
215,1_3_6,3,6.0,915.929457734,1_I,training,03,1_A,216.0,01001,kill,1.0,700.0,0.53304224165
216,1_3_6,3,6.0,918.16395011,1_I,training,03,1_A,217.0,11110,ignore,0.0,600.0,0.463267475283
217,1_3_6,3,6.0,920.742220289,1_I,training,03,1_A,218.0,00001,ignore,0.0,500.0,0.812151891101
218,1_3_6,3,6.0,922.820466093,1_I,training,03,1_A,219.0,11000,ignore,1.0,600.0,0.298434724711
219,1_3_6,3,6.0,925.554952055,1_I,training,03,1_A,220.0,10101,ignore,1.0,700.0,0.949446393395
220,1_3_6,3,6.0,928.164473537,1_I,training,03,1_A,221.0,00100,kill,1.0,800.0,0.830562574129
221,1_3_6,3,6.0,930.523965351,1_I,training,03,1_A,222.0,01010,kill,0.0,700.0,0.612449397322
222,1_3_6,3,6.0,932.852222541,1_I,training,03,1_A,223.0,10100,ignore,1.0,800.0,0.547685025713
223,1_3_6,3,6.0,935.086724859,1_I,training,03,1_A,224.0,11111,ignore,0.0,700.0,0.477083746269
224,1_3_6,3,6.0,937.262543787,1_I,training,03,1_A,225.0,11011,ignore,0.0,600.0,0.41002681918
225,1_3_6,3,6.0,939.575187994,1_I,training,03,1_A,226.0,01001,kill,1.0,700.0,0.553616868692
226,1_3_6,3,6.0,941.669043894,1_I,training,03,1_A,227.0,11101,kill,0.0,600.0,0.338925205859
227,1_3_6,3,6.0,944.106654184,1_I,training,03,1_A,228.0,00010,ignore,1.0,700.0,0.669126962286
228,1_3_6,3,6.0,946.778678272,1_I,training,03,1_A,229.0,00000,kill,1.0,800.0,0.905746077991
229,1_3_6,3,6.0,949.075656576,1_I,training,03,1_A,230.0,11001,kill,0.0,700.0,0.533021073677
230,1_3_6,3,6.0,952.482122044,1_I,training,03,1_A,231.0,00001,ignore,0.0,600.0,1.63895073571
231,1_3_6,3,6.0,954.622853455,1_I,training,03,1_A,232.0,10110,kill,1.0,700.0,0.355589851946
232,1_3_6,3,6.0,956.654202259,1_I,training,03,1_A,233.0,01000,kill,1.0,800.0,0.260406142817
233,1_3_6,3,6.0,958.685532461,1_I,training,03,1_A,234.0,01100,kill,1.0,900.0,0.266253634638
234,1_3_6,3,6.0,960.782541427,1_I,training,03,1_A,235.0,10001,kill,0.0,800.0,0.326518850079
235,1_3_6,3,6.0,963.095152599,1_I,training,03,1_A,236.0,00101,ignore,0.0,700.0,0.54538445206
236,1_3_6,3,6.0,965.847083214,1_I,training,03,1_A,237.0,01011,ignore,1.0,800.0,0.978663325977
237,1_3_6,3,6.0,968.190963329,1_I,training,03,1_A,238.0,00100,ignore,0.0,700.0,0.561676734282
238,1_3_6,3,6.0,970.89424353,1_I,training,03,1_A,239.0,01101,kill,1.0,800.0,0.947748144756
239,1_3_6,3,6.0,972.941196978,1_I,training,03,1_A,240.0,11111,kill,1.0,900.0,0.285059773862
240,1_3_6,3,6.0,975.113239989,1_I,training,03,1_A,241.0,10111,kill,1.0,1000.0,0.425784449752
241,1_3_6,3,6.0,977.504018707,1_I,training,03,1_A,242.0,00011,kill,0.0,900.0,0.633444817984
242,1_3_6,3,6.0,979.675992441,1_I,training,03,1_A,243.0,01110,ignore,1.0,1000.0,0.39950858233
243,1_3_6,3,6.0,982.019872877,1_I,training,03,1_A,244.0,10011,ignore,0.0,900.0,0.591051785197
244,1_3_6,3,6.0,984.113689969,1_I,training,03,1_A,245.0,11000,ignore,1.0,1000.0,0.319049763335
245,1_3_6,3,6.0,986.379480795,1_I,training,03,1_A,246.0,10000,kill,0.0,900.0,0.505839794376
246,1_3_6,3,6.0,988.598340623,1_I,training,03,1_A,247.0,01010,kill,0.0,800.0,0.469960403065
247,1_3_6,3,6.0,990.660925335,1_I,training,03,1_A,248.0,11010,ignore,0.0,700.0,0.306778754284
248,1_3_6,3,6.0,992.661053626,1_I,training,03,1_A,249.0,11100,kill,0.0,600.0,0.255173805084
249,1_3_6,3,6.0,994.676751602,1_I,training,03,1_A,250.0,01111,kill,0.0,500.0,0.277645210683
250,1_3_6,3,6.0,996.770649517,1_I,training,03,1_A,251.0,10010,kill,1.0,600.0,0.314419429889
251,1_3_6,3,6.0,998.786368019,1_I,training,03,1_A,252.0,11110,kill,1.0,700.0,0.270218139156
252,1_3_6,3,6.0,1001.28651716,1_I,training,03,1_A,253.0,00110,kill,0.0,600.0,0.722532151263
253,1_3_6,3,6.0,1003.4897268,1_I,training,03,1_A,254.0,00111,ignore,1.0,700.0,0.445088036311
254,1_3_6,3,6.0,1005.63050953,1_I,training,03,1_A,255.0,10100,ignore,1.0,800.0,0.346646063175
255,1_3_6,3,6.0,1007.73997007,1_I,training,03,1_A,256.0,10101,kill,0.0,700.0,0.314930989205
256,1_3_6,3,6.0,1009.83385002,1_I,training,03,1_A,257.0,01111,ignore,1.0,800.0,0.342231578894
257,1_3_6,3,6.0,1011.89643249,1_I,training,03,1_A,258.0,00011,ignore,1.0,900.0,0.279880035332
258,1_3_6,3,6.0,1014.55285226,1_I,training,03,1_A,259.0,01100,ignore,0.0,800.0,0.900824524571
259,1_3_6,3,6.0,1017.05299915,1_I,training,03,1_A,260.0,11111,kill,1.0,900.0,0.727153504358
260,1_3_6,3,6.0,1019.13124142,1_I,training,03,1_A,261.0,00100,kill,1.0,1000.0,0.297387230839
261,1_3_6,3,6.0,1021.22509765,1_I,training,03,1_A,262.0,11110,kill,1.0,1100.0,0.350166361015
262,1_3_6,3,6.0,1023.28769711,1_I,training,03,1_A,263.0,00010,kill,0.0,1000.0,0.279245637634
263,1_3_6,3,6.0,1025.36592944,1_I,training,03,1_A,264.0,00110,ignore,1.0,1100.0,0.316078870581
264,1_3_6,3,6.0,1027.38167489,1_I,training,03,1_A,265.0,11010,ignore,0.0,1000.0,0.271629016543
265,1_3_6,3,6.0,1029.69429857,1_I,training,03,1_A,266.0,00001,kill,1.0,1100.0,0.532083268386
266,1_3_6,3,6.0,1032.22565314,1_I,training,03,1_A,267.0,10111,kill,1.0,1200.0,0.782720071535
267,1_3_6,3,6.0,1034.26024931,1_I,training,03,1_A,268.0,00000,kill,1.0,1300.0,0.288082945093
268,1_3_6,3,6.0,1036.3228616,1_I,training,03,1_A,269.0,10110,kill,1.0,1400.0,0.29168502828
269,1_3_6,3,6.0,1038.32292318,1_I,training,03,1_A,270.0,11011,kill,1.0,1500.0,0.256580192296
270,1_3_6,3,6.0,1040.35429764,1_I,training,03,1_A,271.0,11000,kill,0.0,1400.0,0.27020851735
271,1_3_6,3,6.0,1042.37001518,1_I,training,03,1_A,272.0,01110,ignore,1.0,1500.0,0.292733805059
272,1_3_6,3,6.0,1044.52647793,1_I,training,03,1_A,273.0,00111,ignore,1.0,1600.0,0.320372120113
273,1_3_6,3,6.0,1046.54220412,1_I,training,03,1_A,274.0,11101,ignore,1.0,1700.0,0.257131842465
274,1_3_6,3,6.0,1048.55789729,1_I,training,03,1_A,275.0,11100,ignore,1.0,1800.0,0.263600582182
275,1_3_6,3,6.0,1050.57364786,1_I,training,03,1_A,276.0,10010,ignore,0.0,1700.0,0.260577090225
276,1_3_6,3,6.0,1052.7768822,1_I,training,03,1_A,277.0,01010,kill,0.0,1600.0,0.467379193424
277,1_3_6,3,6.0,1054.83948519,1_I,training,03,1_A,278.0,10000,kill,0.0,1500.0,0.271504895254
278,1_3_6,3,6.0,1056.91199544,1_I,training,03,1_A,279.0,10011,ignore,0.0,1400.0,0.307794816927
279,1_3_6,3,6.0,1058.95896974,1_I,training,03,1_A,280.0,01101,kill,1.0,1500.0,0.2881057167
280,1_3_6,3,6.0,1061.13093962,1_I,training,03,1_A,281.0,00101,kill,1.0,1600.0,0.378851528489
281,1_3_6,3,6.0,1063.16230831,1_I,training,03,1_A,282.0,01011,kill,0.0,1500.0,0.284710181602
282,1_3_6,3,6.0,1065.4436499,1_I,training,03,1_A,283.0,10001,ignore,1.0,1600.0,0.537949362362
283,1_3_6,3,6.0,1067.83440392,1_I,training,03,1_A,284.0,01001,ignore,0.0,1500.0,0.627689374767
284,1_3_6,3,6.0,1070.19388162,1_I,training,03,1_A,285.0,10100,ignore,1.0,1600.0,0.602336238477
285,1_3_6,3,6.0,1072.42842147,1_I,training,03,1_A,286.0,10101,kill,0.0,1500.0,0.490413474632
286,1_3_6,3,6.0,1074.44412521,1_I,training,03,1_A,287.0,11001,ignore,1.0,1600.0,0.280062849633
287,1_3_6,3,6.0,1076.5239413,1_I,training,03,1_A,288.0,01000,ignore,0.0,1500.0,0.325127216302
288,1_3_6,3,6.0,1078.66466629,1_I,training,03,1_A,289.0,00111,ignore,1.0,1600.0,0.367146281589
289,1_3_6,3,6.0,1080.8523117,1_I,training,03,1_A,290.0,11011,ignore,0.0,1500.0,0.457345254108
290,1_3_6,3,6.0,1082.9461413,1_I,training,03,1_A,291.0,10100,ignore,1.0,1600.0,0.33571986178
291,1_3_6,3,6.0,1086.00881486,1_I,training,03,1_A,292.0,11001,kill,0.0,1500.0,1.28114177474
292,1_3_6,3,6.0,1088.29019333,1_I,training,03,1_A,293.0,00000,ignore,0.0,1400.0,0.524738302933
293,1_3_6,3,6.0,1090.72783665,1_I,training,03,1_A,294.0,00110,ignore,1.0,1500.0,0.654665388891
294,1_3_6,3,6.0,1093.21230289,1_I,training,03,1_A,295.0,01111,ignore,1.0,1600.0,0.749411305878
295,1_3_6,3,6.0,1095.5405511,1_I,training,03,1_A,296.0,10101,ignore,1.0,1700.0,0.517264726013
296,1_3_6,3,6.0,1098.5346138,1_I,training,03,1_A,297.0,10111,kill,1.0,1800.0,1.21535781249
297,1_3_6,3,6.0,1100.55356684,1_I,training,03,1_A,298.0,01001,kill,1.0,1900.0,0.294412810086
298,1_3_6,3,6.0,1102.70985671,1_I,training,03,1_A,299.0,01000,kill,1.0,2000.0,0.387258099796
299,1_3_6,3,6.0,1104.89743957,1_I,training,03,1_A,300.0,11110,ignore,0.0,1900.0,0.460719300509
300,1_3_6,3,6.0,1107.00695721,1_I,training,03,1_A,301.0,00100,kill,1.0,2000.0,0.313092582935
301,1_3_6,3,6.0,1109.1164216,1_I,training,03,1_A,302.0,01101,kill,1.0,2100.0,0.34002561966
302,1_3_6,3,6.0,1111.47593202,1_I,training,03,1_A,303.0,01010,kill,0.0,2000.0,0.631509552208
303,1_3_6,3,6.0,1113.52929006,1_I,training,03,1_A,304.0,11100,ignore,1.0,2100.0,0.293457685546
304,1_3_6,3,6.0,1115.5293959,1_I,training,03,1_A,305.0,00010,ignore,1.0,2200.0,0.275287868379
305,1_3_6,3,6.0,1117.59199312,1_I,training,03,1_A,306.0,00101,ignore,0.0,2100.0,0.28012507064
306,1_3_6,3,6.0,1119.63896902,1_I,training,03,1_A,307.0,01100,kill,1.0,2200.0,0.275732075057
307,1_3_6,3,6.0,1121.63940745,1_I,training,03,1_A,308.0,11111,kill,1.0,2300.0,0.266234070299
308,1_3_6,3,6.0,1123.63947769,1_I,training,03,1_A,309.0,01011,kill,0.0,2200.0,0.272452322351
309,1_3_6,3,6.0,1125.7646051,1_I,training,03,1_A,310.0,00011,ignore,1.0,2300.0,0.340772271753
310,1_3_6,3,6.0,1127.86094022,1_I,training,03,1_A,311.0,10011,ignore,0.0,2200.0,0.343451944535
311,1_3_6,3,6.0,1129.97042065,1_I,training,03,1_A,312.0,00001,kill,1.0,2300.0,0.337059217081
312,1_3_6,3,6.0,1132.14237931,1_I,training,03,1_A,313.0,11000,ignore,1.0,2400.0,0.436222184164
313,1_3_6,3,6.0,1134.18940588,1_I,training,03,1_A,314.0,10000,kill,0.0,2300.0,0.257595613482
314,1_3_6,3,6.0,1136.23640615,1_I,training,03,1_A,315.0,10010,kill,1.0,2400.0,0.262720186996
315,1_3_6,3,6.0,1138.31464394,1_I,training,03,1_A,316.0,11101,ignore,1.0,2500.0,0.332433053083
316,1_3_6,3,6.0,1140.4084745,1_I,training,03,1_A,317.0,11010,kill,1.0,2600.0,0.318554881815
317,1_3_6,3,6.0,1142.43985826,1_I,training,03,1_A,318.0,01110,ignore,1.0,2700.0,0.298763149
318,1_3_6,3,6.0,1144.54935248,1_I,training,03,1_A,319.0,10110,kill,1.0,2800.0,0.325265128846
319,1_3_6,3,6.0,1146.64317631,1_I,training,03,1_A,320.0,10001,ignore,1.0,2900.0,0.303301754568
320,1_3_6,3,6.0,1148.67455943,1_I,training,03,1_A,321.0,00011,kill,0.0,2800.0,0.283756339968
321,1_3_6,3,6.0,1150.95590936,1_I,training,03,1_A,322.0,11100,ignore,1.0,2900.0,0.503145688885
322,1_3_6,3,6.0,1152.95605337,1_I,training,03,1_A,323.0,11001,ignore,1.0,3000.0,0.276192959533
323,1_3_6,3,6.0,1155.03490823,1_I,training,03,1_A,324.0,00111,ignore,1.0,3100.0,0.321658555486
324,1_3_6,3,6.0,1157.19127315,1_I,training,03,1_A,325.0,00000,ignore,0.0,3000.0,0.355228392793
325,1_3_6,3,6.0,1159.25391399,1_I,training,03,1_A,326.0,00100,kill,1.0,3100.0,0.300859419653
326,1_3_6,3,6.0,1161.30088347,1_I,training,03,1_A,327.0,10101,kill,0.0,3000.0,0.297272731355
327,1_3_6,3,6.0,1163.34786194,1_I,training,03,1_A,328.0,01001,ignore,0.0,2900.0,0.276260953624
328,1_3_6,3,6.0,1165.4104877,1_I,training,03,1_A,329.0,11011,kill,1.0,3000.0,0.289143268039
329,1_3_6,3,6.0,1167.56681478,1_I,training,03,1_A,330.0,11000,kill,0.0,2900.0,0.389494528079
330,1_3_6,3,6.0,1169.56694499,1_I,training,03,1_A,331.0,00010,kill,0.0,2800.0,0.254290844083
331,1_3_6,3,6.0,1171.67644242,1_I,training,03,1_A,332.0,11101,ignore,1.0,2900.0,0.372524229309
332,1_3_6,3,6.0,1173.69215707,1_I,training,03,1_A,333.0,10110,ignore,0.0,2800.0,0.261512971156
333,1_3_6,3,6.0,1175.72350299,1_I,training,03,1_A,334.0,11110,kill,1.0,2900.0,0.284554308357
334,1_3_6,3,6.0,1177.84863072,1_I,training,03,1_A,335.0,11111,kill,1.0,3000.0,0.360250333715
335,1_3_6,3,6.0,1179.92685055,1_I,training,03,1_A,336.0,01111,kill,0.0,2900.0,0.331175803854
336,1_3_6,3,6.0,1182.02069105,1_I,training,03,1_A,337.0,00001,kill,1.0,3000.0,0.275913606452
337,1_3_6,3,6.0,1184.31771682,1_I,training,03,1_A,338.0,01100,ignore,0.0,2900.0,0.526940092715
338,1_3_6,3,6.0,1186.45845882,1_I,training,03,1_A,339.0,01101,kill,1.0,3000.0,0.411015620039
339,1_3_6,3,6.0,1188.61478076,1_I,training,03,1_A,340.0,01000,kill,1.0,3100.0,0.378307255034
340,1_3_6,3,6.0,1190.73988893,1_I,training,03,1_A,341.0,00101,kill,1.0,3200.0,0.395544398538
341,1_3_6,3,6.0,1196.45894664,1_I,training,03,1_A,342.0,01110,kill,0.0,3100.0,3.96373894374
342,1_3_6,3,6.0,1198.53719501,1_I,training,03,1_A,343.0,10100,ignore,1.0,3200.0,0.298707663254
343,1_3_6,3,6.0,1200.64669212,1_I,training,03,1_A,344.0,10111,ignore,0.0,3100.0,0.366544277302
344,1_3_6,3,6.0,1202.69368085,1_I,training,03,1_A,345.0,10011,ignore,0.0,3000.0,0.271410280835
345,1_3_6,3,6.0,1204.72501875,1_I,training,03,1_A,346.0,10001,kill,0.0,2900.0,0.285174914799
346,1_3_6,3,6.0,1206.74072955,1_I,training,03,1_A,347.0,11010,ignore,0.0,2800.0,0.282828156482
347,1_3_6,3,6.0,1208.77209792,1_I,training,03,1_A,348.0,01011,ignore,1.0,2900.0,0.271087950357
348,1_3_6,3,6.0,1210.83471919,1_I,training,03,1_A,349.0,10010,kill,1.0,3000.0,0.325429661716
349,1_3_6,3,6.0,1212.91292747,1_I,training,03,1_A,350.0,01010,ignore,1.0,3100.0,0.345066804193
350,1_3_6,3,6.0,1214.99118771,1_I,training,03,1_A,351.0,00110,kill,0.0,3000.0,0.298669817486
351,1_3_6,3,6.0,1217.0381697,1_I,training,03,1_A,352.0,10000,kill,0.0,2900.0,0.294995891489
352,1_3_6,3,6.0,1219.11640588,1_I,training,03,1_A,353.0,01101,ignore,0.0,2800.0,0.306543661507
353,1_3_6,3,6.0,1221.41345635,1_I,training,03,1_A,354.0,00100,kill,1.0,2900.0,0.558856262416
354,1_3_6,3,6.0,1223.4603572,1_I,training,03,1_A,355.0,10011,ignore,0.0,2800.0,0.255576958727
355,1_3_6,3,6.0,1225.52298393,1_I,training,03,1_A,356.0,00001,kill,1.0,2900.0,0.284641225329
356,1_3_6,3,6.0,1227.52309394,1_I,training,03,1_A,357.0,11111,ignore,0.0,2800.0,0.266147153325
357,1_3_6,3,6.0,1229.66586421,1_I,training,03,1_A,358.0,10000,kill,0.0,2700.0,0.35836991223
358,1_3_6,3,6.0,1231.65034712,1_I,training,03,1_A,359.0,01100,ignore,0.0,2600.0,0.240848861324
359,1_3_6,3,6.0,1233.68169368,1_I,training,03,1_A,360.0,01111,ignore,1.0,2700.0,0.246379795748
360,1_3_6,3,6.0,1235.72869428,1_I,training,03,1_A,361.0,00000,kill,1.0,2800.0,0.267444493409
361,1_3_6,3,6.0,1237.79564408,1_I,training,03,1_A,362.0,00011,ignore,1.0,2900.0,0.320900998679
362,1_3_6,3,6.0,1239.8582506,1_I,training,03,1_A,363.0,10001,kill,0.0,2800.0,0.275406537312
363,1_3_6,3,6.0,1242.12395419,1_I,training,03,1_A,364.0,01000,kill,1.0,2900.0,0.512817206867
364,1_3_6,3,6.0,1244.17094356,1_I,training,03,1_A,365.0,11011,kill,1.0,3000.0,0.300283394239
365,1_3_6,3,6.0,1246.23355906,1_I,training,03,1_A,366.0,11100,ignore,1.0,3100.0,0.311894988899
366,1_3_6,3,6.0,1248.57742025,1_I,training,03,1_A,367.0,11000,ignore,1.0,3200.0,0.597143670873
367,1_3_6,3,6.0,1250.6556606,1_I,training,03,1_A,368.0,01011,ignore,1.0,3300.0,0.333098240555
368,1_3_6,3,6.0,1253.24952484,1_I,training,03,1_A,369.0,00111,ignore,1.0,3400.0,0.798593805224
369,1_3_6,3,6.0,1256.09342356,1_I,training,03,1_A,370.0,10010,kill,1.0,3500.0,1.0938129226
370,1_3_6,3,6.0,1258.14044019,1_I,training,03,1_A,371.0,10100,kill,0.0,3400.0,0.256815926525
371,1_3_6,3,6.0,1260.56239997,1_I,training,03,1_A,372.0,01110,ignore,1.0,3500.0,0.703734350935
372,1_3_6,3,6.0,1335.33191444,1_I,test,03,2,0.0,10101,ignore,0.0,0.0,4.49602876022
373,1_3_6,3,6.0,1337.56642157,1_I,test,03,2,1.0,00110,kill,1.0,100.0,0.456160809874
374,1_3_6,3,6.0,1339.72280541,1_I,test,03,2,2.0,01010,kill,1.0,200.0,0.406389776768
375,1_3_6,3,6.0,1341.73851429,1_I,test,03,2,3.0,11010,kill,0.0,100.0,0.253799811284
376,1_3_6,3,6.0,1343.70738198,1_I,test,03,2,4.0,11110,ignore,1.0,200.0,0.229045792737
377,1_3_6,3,6.0,1345.80121382,1_I,test,03,2,5.0,10111,ignore,0.0,100.0,0.297853888396
378,1_3_6,3,6.0,1347.81695253,1_I,test,03,2,6.0,11001,ignore,0.0,0.0,0.261608227029
379,1_3_6,3,6.0,1349.83266526,1_I,test,03,2,7.0,00010,ignore,0.0,0.0,0.259781366925
380,1_3_6,3,6.0,1351.87966746,1_I,test,03,2,8.0,10110,ignore,1.0,100.0,0.272911603191
381,1_3_6,3,6.0,1353.87975726,1_I,test,03,2,9.0,01001,ignore,1.0,200.0,0.271109759782
382,1_3_6,3,6.0,1355.92678127,1_I,test,03,2,10.0,11101,ignore,0.0,100.0,0.267435833784
383,1_3_6,3,6.0,1358.92735248,1_I,test,03,2,11.0,00101,ignore,1.0,200.0,1.16563520914
384,1_3_6,3,6.0,1361.02120004,1_I,test,03,2,12.0,01101,ignore,1.0,300.0,0.317918880484
385,1_3_6,3,6.0,1363.20879863,1_I,test,03,2,13.0,10100,ignore,1.0,400.0,0.350504407108
386,1_3_6,3,6.0,1365.22455594,1_I,test,03,2,14.0,11001,ignore,0.0,300.0,0.255821031857
387,1_3_6,3,6.0,1368.41226613,1_I,test,03,2,15.0,01100,kill,1.0,400.0,1.40457221774
388,1_3_6,3,6.0,1370.64671778,1_I,test,03,2,16.0,11100,ignore,1.0,500.0,0.434083898293
389,1_3_6,3,6.0,1372.69367604,1_I,test,03,2,17.0,11011,ignore,0.0,400.0,0.304847016503
390,1_3_6,3,6.0,1374.77195552,1_I,test,03,2,18.0,00000,kill,1.0,500.0,0.291195919841
391,1_3_6,3,6.0,1376.80888144,1_I,test,03,2,19.0,01111,kill,0.0,400.0,0.246030844943
392,1_3_6,3,6.0,1379.02770406,1_I,test,03,2,20.0,11110,ignore,1.0,500.0,0.46046817139
393,1_3_6,3,6.0,1381.49658586,1_I,test,03,2,21.0,11010,ignore,1.0,600.0,0.705867825902
394,1_3_6,3,6.0,1383.65298125,1_I,test,03,2,22.0,10001,kill,1.0,700.0,0.364618312604
395,1_3_6,3,6.0,1385.85619186,1_I,test,03,2,23.0,01001,ignore,1.0,800.0,0.387250402351
396,1_3_6,3,6.0,1387.93442611,1_I,test,03,2,24.0,00011,ignore,1.0,900.0,0.265437064092
397,1_3_6,3,6.0,1389.96579224,1_I,test,03,3,0.0,10000,ignore,0.0,800.0,0.246471523626
398,1_3_6,3,6.0,1392.40341375,1_I,test,03,3,1.0,00110,ignore,0.0,700.0,0.617540615245
399,1_3_6,3,6.0,1394.65352232,1_I,test,03,3,2.0,11000,kill,1.0,800.0,0.480855814681
400,1_3_6,3,6.0,1396.82551626,1_I,test,03,3,3.0,01010,kill,0.0,700.0,0.395748701538
401,1_3_6,3,6.0,1401.27887873,1_I,test,03,3,4.0,01110,ignore,0.0,600.0,2.66708200793
402,1_3_6,3,6.0,1404.18530795,1_I,test,03,3,5.0,00001,ignore,0.0,500.0,1.1254375516
403,1_3_6,3,6.0,1408.32614456,1_I,test,03,3,6.0,01000,ignore,0.0,400.0,2.34229251699
404,1_3_6,3,6.0,1410.57625377,1_I,test,03,3,7.0,10011,ignore,1.0,500.0,0.486865915011
405,1_3_6,3,6.0,1412.9044853,1_I,test,03,3,8.0,10111,ignore,0.0,400.0,0.5297942409
406,1_3_6,3,6.0,1415.5765142,1_I,test,03,3,9.0,00101,ignore,1.0,500.0,0.833013247942
407,1_3_6,3,6.0,1417.82662629,1_I,test,03,3,10.0,10010,ignore,1.0,600.0,0.486794713652
408,1_3_6,3,6.0,1419.88923634,1_I,test,03,3,11.0,00100,ignore,1.0,700.0,0.257691831535
409,1_3_6,3,6.0,1422.01431821,1_I,test,03,3,12.0,01011,ignore,1.0,800.0,0.333926357269
410,1_3_6,3,6.0,1424.07693179,1_I,test,03,3,13.0,00111,ignore,0.0,700.0,0.254977840983
411,1_3_6,3,6.0,1426.49925239,1_I,test,03,3,14.0,10110,ignore,0.0,600.0,0.618370335589
412,1_3_6,3,6.0,1430.32759938,1_I,test,03,3,15.0,11111,kill,1.0,700.0,2.06588467048
413,1_3_6,3,6.0,1433.46837441,1_I,test,03,3,16.0,10101,kill,0.0,600.0,1.34008270904
414,1_3_6,3,6.0,1436.23415818,1_I,test,03,3,17.0,11101,ignore,1.0,700.0,0.955414799235
415,1_3_6,3,6.0,1438.31239147,1_I,test,03,3,18.0,00010,ignore,1.0,800.0,0.283148241871
416,1_3_6,3,6.0,1440.43747526,1_I,test,03,3,19.0,10011,ignore,1.0,900.0,0.326073681219
417,1_3_6,3,6.0,1442.87509838,1_I,test,03,3,20.0,00111,kill,1.0,1000.0,0.65631584923
418,1_3_6,3,6.0,1445.07834555,1_I,test,03,3,21.0,00100,kill,0.0,900.0,0.354220669049
419,1_3_6,3,6.0,1447.32848074,1_I,test,03,3,22.0,10110,ignore,0.0,800.0,0.433605053115
420,1_3_6,3,6.0,1452.42247711,1_I,test,03,3,23.0,11111,ignore,0.0,700.0,3.34374348524
421,1_3_6,3,6.0,1454.51635963,1_I,test,03,3,24.0,00110,ignore,0.0,600.0,0.269709787108
422,1_3_6,3,6.0,1457.20401018,1_I,test,03,3,25.0,10000,ignore,0.0,500.0,0.905906120688
423,1_3_6,3,6.0,1459.29784074,1_I,test,03,3,26.0,11001,ignore,0.0,400.0,0.290920094756
424,1_3_6,3,6.0,1461.36042577,1_I,test,03,3,27.0,11101,ignore,1.0,500.0,0.277875171831
425,1_3_6,3,6.0,1463.43865426,1_I,test,03,3,28.0,11100,ignore,1.0,600.0,0.315703620172
426,1_3_6,3,6.0,1465.53251753,1_I,test,03,3,29.0,10001,ignore,0.0,500.0,0.284415433633
427,1_3_6,3,6.0,1467.86077119,1_I,test,03,3,30.0,01101,ignore,1.0,600.0,0.552682591397
428,1_3_6,3,6.0,1470.8296934,1_I,test,03,3,31.0,10100,ignore,1.0,700.0,1.16019568186
429,1_3_6,3,6.0,1473.09543067,1_I,test,03,3,32.0,11000,ignore,0.0,600.0,0.479567454948
430,1_3_6,3,6.0,1475.36117563,1_I,test,03,3,33.0,10010,ignore,1.0,700.0,0.50051027641
431,1_3_6,3,6.0,1477.38005041,1_I,test,03,3,34.0,00000,ignore,0.0,600.0,0.255568299102
432,1_3_6,3,6.0,1479.67703128,1_I,test,03,3,35.0,10111,ignore,0.0,500.0,0.474921405888
433,1_3_6,3,6.0,1482.02092101,1_I,test,03,3,36.0,00101,ignore,1.0,600.0,0.542214387933
434,1_3_6,3,6.0,1484.08348712,1_I,test,03,3,37.0,01010,ignore,1.0,700.0,0.295684812751
435,1_3_6,3,6.0,1486.08361253,1_I,test,03,3,38.0,01011,ignore,1.0,800.0,0.252743978514
436,1_3_6,3,6.0,1488.13063012,1_I,test,03,3,39.0,00001,ignore,0.0,700.0,0.224308015797
437,1_3_6,3,6.0,1493.20896476,1_I,test,03,3,40.0,01111,ignore,0.0,600.0,3.26918026709
438,1_3_6,3,6.0,1495.22472272,1_I,test,03,3,41.0,11010,ignore,1.0,700.0,0.272397798788
439,1_3_6,3,6.0,1497.49046158,1_I,test,03,3,42.0,10101,ignore,1.0,800.0,0.451462482335
440,1_3_6,3,6.0,1499.55308478,1_I,test,03,3,43.0,01001,ignore,0.0,700.0,0.28880265613
441,1_3_6,3,6.0,1502.61574968,1_I,test,03,3,44.0,11110,ignore,0.0,600.0,1.27571764235
442,1_3_6,3,6.0,1505.02210963,1_I,test,03,3,45.0,00011,ignore,1.0,700.0,0.581994459122
443,1_3_6,3,6.0,1507.28781578,1_I,test,03,3,46.0,01100,ignore,1.0,800.0,0.485346631951
444,1_3_6,3,6.0,1509.33485679,1_I,test,03,3,47.0,01110,ignore,0.0,700.0,0.272846174916
445,1_3_6,3,6.0,1511.39740237,1_I,test,03,3,48.0,00010,kill,0.0,600.0,0.293577316657
446,1_3_6,3,6.0,1513.46001819,1_I,test,03,3,49.0,01000,kill,1.0,700.0,0.297906487598
447,1_3_6,3,6.0,1515.5226616,1_I,test,03,3,50.0,11011,kill,0.0,600.0,0.285072602936
448,1_3_6,3,6.0,1518.21027782,1_I,test,03,3,51.0,10000,kill,1.0,700.0,0.929344517721
449,1_3_6,3,6.0,1520.28850727,1_I,test,03,3,52.0,01100,ignore,1.0,800.0,0.2997070481
450,1_3_6,3,6.0,1522.52297431,1_I,test,03,3,53.0,11111,kill,1.0,900.0,0.471343697942
451,1_3_6,3,6.0,1524.58558724,1_I,test,03,3,54.0,01000,ignore,0.0,800.0,0.283374354296
452,1_3_6,3,6.0,1526.94511947,1_I,test,03,3,55.0,10101,kill,0.0,700.0,0.525088215918
453,1_3_6,3,6.0,1529.28899381,1_I,test,03,3,56.0,11011,kill,0.0,600.0,0.591689390165
454,1_3_6,3,6.0,1531.33593924,1_I,test,03,3,57.0,01011,kill,0.0,500.0,0.287838871966
455,1_3_6,3,6.0,1533.55485808,1_I,test,03,3,58.0,11101,kill,0.0,400.0,0.418837506311
456,1_3_6,3,6.0,1535.66429136,1_I,test,03,3,59.0,11110,kill,1.0,500.0,0.354333564899
457,1_3_6,3,6.0,1537.83632828,1_I,test,03,3,60.0,01001,kill,1.0,600.0,0.361810028358
458,1_3_6,3,6.0,1539.89888637,1_I,test,03,3,61.0,11000,kill,1.0,700.0,0.30745388429
459,1_3_6,3,6.0,1542.07088769,1_I,test,03,3,62.0,10001,kill,1.0,800.0,0.356859288795
460,1_3_6,3,6.0,1544.2428967,1_I,test,03,3,63.0,11001,ignore,0.0,700.0,0.373402058682
461,1_3_6,3,6.0,1546.2898819,1_I,test,03,3,64.0,00111,ignore,0.0,600.0,0.26058061822
462,1_3_6,3,6.0,1548.55560954,1_I,test,03,3,65.0,01010,kill,0.0,500.0,0.473070491269
463,1_3_6,3,6.0,1550.34073058,1_I,test,03,3,66.0,10110,kill,1.0,600.0,0.0456974814588
464,1_3_6,3,6.0,1552.38770263,1_I,test,03,3,67.0,00010,kill,0.0,500.0,0.243017936969
465,1_3_6,3,6.0,1554.54719111,1_I,test,03,3,68.0,01101,ignore,1.0,600.0,0.35119429055
466,1_3_6,3,6.0,1556.59417919,1_I,test,03,3,69.0,01111,ignore,0.0,500.0,0.289661883347
467,1_3_6,3,6.0,1558.59740474,1_I,test,03,3,70.0,11010,ignore,1.0,600.0,0.245015423754
468,1_3_6,3,6.0,1560.72251323,1_I,test,03,3,71.0,00100,ignore,1.0,700.0,0.322796173601
469,1_3_6,3,6.0,1563.19139342,1_I,test,03,3,72.0,00001,kill,1.0,800.0,0.651557866498
470,1_3_6,3,6.0,1565.26963506,1_I,test,03,3,73.0,11100,ignore,1.0,900.0,0.263038348026
471,1_3_6,3,6.0,1567.50409793,1_I,test,03,3,74.0,10111,kill,1.0,1000.0,0.451311419993
472,1_3_6,3,6.0,1570.03551344,1_I,test,03,3,75.0,00110,ignore,0.0,900.0,0.752121768437
473,1_3_6,3,6.0,1572.12782921,1_I,test,03,3,76.0,01110,ignore,0.0,800.0,0.304686332354
474,1_3_6,3,6.0,1574.47174236,1_I,test,03,3,77.0,00011,ignore,1.0,900.0,0.546758125134
475,1_3_6,3,6.0,1576.59680466,1_I,test,03,3,78.0,10100,ignore,1.0,1000.0,0.298478985016
476,1_3_6,3,6.0,1579.47195949,1_I,test,03,3,79.0,00101,kill,0.0,900.0,1.06856562616
477,1_3_6,3,6.0,1581.5502085,1_I,test,03,3,80.0,10011,kill,0.0,800.0,0.278835428
478,1_3_6,3,6.0,1583.61282176,1_I,test,03,3,81.0,10010,kill,0.0,700.0,0.274288162806
479,1_3_6,3,6.0,1586.51861402,1_I,test,03,3,82.0,00000,ignore,0.0,600.0,1.11864391559
480,1_3_6,3,6.0,1588.76874729,1_I,test,03,3,83.0,00011,ignore,1.0,700.0,0.430829803734
481,1_3_6,3,6.0,1590.87817095,1_I,test,03,3,84.0,01001,ignore,0.0,600.0,0.341568636508
482,1_3_6,3,6.0,1593.33144265,1_I,test,03,3,85.0,01101,ignore,1.0,700.0,0.645405684178
483,1_3_6,3,6.0,1595.33158633,1_I,test,03,3,86.0,00000,ignore,0.0,600.0,0.16855446487
484,1_3_6,3,6.0,1597.40980905,1_I,test,03,3,87.0,10001,ignore,0.0,500.0,0.304910199691
485,1_3_6,3,6.0,1599.56618744,1_I,test,03,3,88.0,11000,ignore,0.0,400.0,0.355503576426
486,1_3_6,3,6.0,1601.66000196,1_I,test,03,3,89.0,01010,ignore,1.0,500.0,0.357438200748
487,1_3_6,3,6.0,1603.78514252,1_I,test,03,3,90.0,00010,ignore,1.0,600.0,0.359170446432
488,1_3_6,3,6.0,1605.84770158,1_I,test,03,3,91.0,11110,ignore,0.0,500.0,0.295904510638
489,1_3_6,3,6.0,1608.48847212,1_I,test,03,3,92.0,10101,kill,0.0,400.0,0.851480699621
490,1_3_6,3,6.0,1610.80111857,1_I,test,03,3,93.0,01100,kill,0.0,300.0,0.510748839451
491,1_3_6,3,6.0,1613.16060557,1_I,test,03,3,94.0,10000,ignore,0.0,200.0,0.586373663451
492,1_3_6,3,6.0,1615.42636464,1_I,test,03,3,95.0,10011,kill,0.0,100.0,0.472803325809
493,1_3_6,3,6.0,1617.91083858,1_I,test,03,3,96.0,01011,kill,0.0,0.0,0.692315833834
494,1_3_6,3,6.0,1619.94226243,1_I,test,03,3,97.0,00110,ignore,0.0,0.0,0.2475931054
495,1_3_6,3,6.0,1621.91113172,1_I,test,03,3,98.0,11111,ignore,0.0,0.0,0.214017815735
496,1_3_6,3,6.0,1623.91124783,1_I,test,03,3,99.0,10010,ignore,1.0,100.0,0.211437889002
497,1_3_6,3,6.0,1625.98952538,1_I,test,03,3,100.0,10111,ignore,0.0,0.0,0.273823429608
498,1_3_6,3,6.0,1628.17706784,1_I,test,03,3,101.0,01000,kill,1.0,100.0,0.38159630882
499,1_3_6,3,6.0,1630.16154113,1_I,test,03,3,102.0,00100,kill,0.0,0.0,0.188426058672
500,1_3_6,3,6.0,1632.22415343,1_I,test,03,3,103.0,11011,kill,0.0,0.0,0.275254512786
501,1_3_6,3,6.0,1634.53691534,1_I,test,03,3,104.0,01110,ignore,0.0,0.0,0.543548290878
502,1_3_6,3,6.0,1636.59938619,1_I,test,03,3,105.0,00001,ignore,0.0,0.0,0.273154393411
503,1_3_6,3,6.0,1638.59950294,1_I,test,03,3,106.0,11001,kill,1.0,100.0,0.204605445044
504,1_3_6,3,6.0,1640.66211587,1_I,test,03,3,107.0,11101,ignore,1.0,200.0,0.308315356595
505,1_3_6,3,6.0,1642.73464312,1_I,test,03,3,108.0,00101,kill,0.0,100.0,0.237464872393
506,1_3_6,3,6.0,1645.20348771,1_I,test,03,3,109.0,01111,ignore,0.0,0.0,0.674095021101
507,1_3_6,3,6.0,1647.20360382,1_I,test,03,3,110.0,11100,ignore,1.0,100.0,0.238847846545
508,1_3_6,3,6.0,1649.25059703,1_I,test,03,3,111.0,10110,ignore,0.0,0.0,0.235221067391
509,1_3_6,3,6.0,1651.23506199,1_I,test,03,3,112.0,11010,ignore,1.0,100.0,0.2509456631
510,1_3_6,3,6.0,1653.32896503,1_I,test,03,3,113.0,10100,ignore,1.0,200.0,0.29534548375
511,1_3_6,3,6.0,1655.43845124,1_I,test,03,3,114.0,00111,ignore,0.0,100.0,0.280923039028
512,1_3_6,3,6.0,1657.23539458,1_I,test,03,3,115.0,10101,ignore,1.0,200.0,0.00435835708413
513,1_3_6,3,6.0,1659.03239085,1_I,test,03,3,116.0,01010,ignore,1.0,300.0,0.0443462592666
514,1_3_6,3,6.0,1660.82935472,1_I,test,03,3,117.0,01000,ignore,0.0,200.0,0.000254657114056
515,1_3_6,3,6.0,1662.8763412,1_I,test,03,3,118.0,00110,ignore,0.0,100.0,0.247894909358
516,1_3_6,3,6.0,1665.34520696,1_I,test,03,3,119.0,10110,kill,1.0,200.0,0.676276284366
517,1_3_6,3,6.0,1667.45474544,1_I,test,03,3,120.0,10000,kill,1.0,300.0,0.345011639178
518,1_3_6,3,6.0,1669.59542907,1_I,test,03,3,121.0,11011,kill,0.0,200.0,0.345733274577
519,1_3_6,3,6.0,1672.07994822,1_I,test,03,3,122.0,11010,ignore,1.0,300.0,0.699350014978
520,1_3_6,3,6.0,1674.14257719,1_I,test,03,3,123.0,00101,ignore,1.0,400.0,0.269214584861
521,1_3_6,3,6.0,1676.14264455,1_I,test,03,3,124.0,00011,ignore,1.0,500.0,0.184157505104
522,1_3_6,3,6.0,1678.14276354,1_I,test,03,3,125.0,11000,ignore,0.0,400.0,0.240708703694
523,1_3_6,3,6.0,1681.14291332,1_I,test,03,3,126.0,11110,kill,1.0,500.0,1.23005383721
524,1_3_6,3,6.0,1683.39306229,1_I,test,03,3,127.0,11111,kill,1.0,600.0,0.459045747835
525,1_3_6,3,6.0,1685.72128292,1_I,test,03,3,128.0,00100,kill,0.0,500.0,0.519036421099
526,1_3_6,3,6.0,1688.2682957,1_I,test,03,3,129.0,01011,ignore,1.0,600.0,0.735651162089
527,1_3_6,3,6.0,1690.34653156,1_I,test,03,3,130.0,10111,ignore,0.0,500.0,0.281255632764
528,1_3_6,3,6.0,1692.44039805,1_I,test,03,3,131.0,10100,kill,0.0,400.0,0.266820358971
529,1_3_6,3,6.0,1694.65923543,1_I,test,03,3,132.0,00001,ignore,0.0,300.0,0.397599936881
530,1_3_6,3,6.0,1696.64371193,1_I,test,03,3,133.0,11100,ignore,1.0,400.0,0.221156874555
531,1_3_6,3,6.0,1698.69070707,1_I,test,03,3,134.0,11001,ignore,0.0,300.0,0.258776850449
532,1_3_6,3,6.0,1700.78459215,1_I,test,03,3,135.0,10001,kill,1.0,400.0,0.303875214166
533,1_3_6,3,6.0,1702.80030873,1_I,test,03,3,136.0,10011,kill,0.0,300.0,0.226017489875
534,1_3_6,3,6.0,1704.87856127,1_I,test,03,3,137.0,10010,ignore,1.0,400.0,0.279139797776
535,1_3_6,3,6.0,1706.86306471,1_I,test,03,3,138.0,01111,ignore,0.0,300.0,0.23667748799
536,1_3_6,3,6.0,1708.8474729,1_I,test,03,3,139.0,11101,kill,0.0,200.0,0.226996668931
537,1_3_6,3,6.0,1711.31638292,1_I,test,03,3,140.0,00000,ignore,0.0,100.0,0.639198978291
538,1_3_6,3,6.0,1713.39463225,1_I,test,03,3,141.0,01100,ignore,1.0,200.0,0.284632565705
539,1_3_6,3,6.0,1715.39471083,1_I,test,03,3,142.0,00111,ignore,0.0,100.0,0.16616633279
540,1_3_6,3,6.0,1717.14480208,1_I,test,03,3,143.0,01110,ignore,0.0,0.0,0.000384551485695
541,1_3_6,3,6.0,1718.95739849,1_I,test,03,3,144.0,01001,ignore,0.0,0.0,0.000260430197159
542,1_3_6,3,6.0,1721.19192294,1_I,test,03,3,145.0,01101,ignore,1.0,100.0,0.40301059874
543,1_3_6,3,6.0,1723.52011438,1_I,test,03,3,146.0,00010,ignore,1.0,200.0,0.546571141384
544,1_3_6,3,6.0,1725.62961245,1_I,test,03,3,147.0,11101,ignore,1.0,300.0,0.305833572274
545,1_3_6,3,6.0,1728.49397771,1_I,test,03,3,148.0,00111,ignore,0.0,200.0,1.08492526102
546,1_3_6,3,6.0,1730.82223266,1_I,test,03,3,149.0,10010,kill,0.0,100.0,0.519110829726
547,1_3_6,3,6.0,1733.63485185,1_I,test,03,3,150.0,11011,ignore,1.0,200.0,1.01645585291
548,1_3_6,3,6.0,1737.0569505,1_I,test,03,3,151.0,01001,ignore,0.0,100.0,1.65482767667
549,1_3_6,3,6.0,1739.76017522,1_I,test,03,3,152.0,10100,kill,0.0,0.0,0.86474275462
550,1_3_6,3,6.0,1742.49473399,1_I,test,03,3,153.0,11000,ignore,0.0,0.0,0.989845146665
551,1_3_6,3,6.0,1754.21403417,1_I,test,03,3,154.0,11100,ignore,1.0,100.0,9.93271439467
552,1_3_6,3,6.0,1756.27831842,1_I,test,03,3,155.0,01110,ignore,0.0,0.0,0.278263572038
553,1_3_6,3,6.0,1758.3097134,1_I,test,03,3,156.0,01011,ignore,1.0,100.0,0.275437006361
554,1_3_6,3,6.0,1760.4191717,1_I,test,03,3,157.0,00001,ignore,0.0,0.0,0.319754079486
555,1_3_6,3,6.0,1762.45052243,1_I,test,03,3,158.0,11111,ignore,0.0,0.0,0.233178037395
556,1_3_6,3,6.0,1764.49749384,1_I,test,03,3,159.0,01101,ignore,1.0,100.0,0.262279829039
557,1_3_6,3,6.0,1766.48197419,1_I,test,03,3,160.0,00011,ignore,1.0,200.0,0.177865165153
558,1_3_6,3,6.0,1768.41957678,1_I,test,03,3,161.0,11010,ignore,1.0,300.0,0.21213931861
559,1_3_6,3,6.0,1770.48221538,1_I,test,03,3,162.0,01000,ignore,0.0,200.0,0.307992063934
560,1_3_6,3,6.0,1772.52916048,1_I,test,03,3,163.0,01010,ignore,1.0,300.0,0.254901828719
561,1_3_6,3,6.0,1774.54493672,1_I,test,03,3,164.0,00010,ignore,1.0,400.0,0.235920251913
562,1_3_6,3,6.0,1776.63875445,1_I,test,03,3,165.0,00100,ignore,1.0,500.0,0.2547068268
563,1_3_6,3,6.0,1778.65447937,1_I,test,03,3,166.0,10111,ignore,0.0,400.0,0.252384764448
564,1_3_6,3,6.0,1780.74837664,1_I,test,03,3,167.0,10110,ignore,0.0,300.0,0.272173610725
565,1_3_6,3,6.0,1783.57661042,1_I,test,03,3,168.0,11001,ignore,0.0,200.0,1.03557085209
566,1_3_6,3,6.0,1785.71734728,1_I,test,03,3,169.0,10011,ignore,1.0,300.0,0.377783828824
567,1_3_6,3,6.0,1787.87371894,1_I,test,03,3,170.0,00000,ignore,0.0,200.0,0.319532136509
568,1_3_6,3,6.0,1790.24883143,1_I,test,03,3,171.0,01111,ignore,0.0,100.0,0.626253480688
569,1_3_6,3,6.0,1792.35834008,1_I,test,03,3,172.0,00101,ignore,1.0,200.0,0.278345357383
570,1_3_6,3,6.0,1794.65533122,1_I,test,03,3,173.0,10101,ignore,1.0,300.0,0.464745384581
571,1_3_6,3,6.0,1796.71794287,1_I,test,03,3,174.0,01100,ignore,1.0,400.0,0.285588010975
572,1_3_6,3,6.0,1799.32744703,1_I,test,03,3,175.0,10001,kill,1.0,500.0,0.782880434956
573,1_3_6,3,6.0,1801.34317708,1_I,test,03,3,176.0,00110,kill,1.0,600.0,0.24610108412
574,1_3_6,3,6.0,1803.40578906,1_I,test,03,3,177.0,10000,kill,1.0,700.0,0.275748752854
575,1_3_6,3,6.0,1805.82787296,1_I,test,03,3,178.0,11110,ignore,0.0,600.0,0.631422635233
576,1_3_6,3,6.0,1808.48414487,1_I,test,03,3,179.0,00111,ignore,0.0,500.0,0.876900226369
577,1_3_6,3,6.0,1811.24991421,1_I,test,03,4,0.0,11111,ignore,0.0,400.0,1.0013441662
578,1_3_6,3,6.0,1813.84384387,1_I,test,03,4,1.0,01000,ignore,1.0,500.0,0.782834250291
579,1_3_6,3,6.0,1815.95331243,1_I,test,03,4,2.0,01010,ignore,1.0,600.0,0.351234381404
580,1_3_6,3,6.0,1818.04716898,1_I,test,03,4,3.0,10011,ignore,1.0,700.0,0.287177853939
581,1_3_6,3,6.0,1820.21915329,1_I,test,03,4,4.0,10101,ignore,1.0,800.0,0.38673435286
582,1_3_6,3,6.0,1822.29747094,1_I,test,03,4,5.0,00000,ignore,0.0,700.0,0.256263955627
583,1_3_6,3,6.0,1825.04754359,1_I,test,03,4,6.0,11110,ignore,1.0,800.0,0.973024948058
584,1_3_6,3,6.0,1827.12578843,1_I,test,03,4,7.0,01111,ignore,0.0,700.0,0.301385732402
585,1_3_6,3,6.0,1829.20403583,1_I,test,03,4,8.0,10010,ignore,0.0,600.0,0.271193148761
586,1_3_6,3,6.0,1831.9541428,1_I,test,03,4,9.0,00001,ignore,1.0,700.0,0.963288963982
587,1_3_6,3,6.0,1834.22620768,1_I,test,03,4,10.0,00100,ignore,0.0,600.0,0.456955570993
588,1_3_6,3,6.0,1836.36694454,1_I,test,03,4,11.0,11000,ignore,1.0,700.0,0.333911603833
589,1_3_6,3,6.0,1838.41392878,1_I,test,03,4,12.0,10000,ignore,0.0,600.0,0.279483296224
590,1_3_6,3,6.0,1840.52437781,1_I,test,03,4,13.0,10111,ignore,1.0,700.0,0.28978343882
591,1_3_6,3,6.0,1842.55570448,1_I,test,03,4,14.0,00110,ignore,0.0,600.0,0.262088034387
592,1_3_6,3,6.0,1845.52463984,1_I,test,03,4,15.0,11010,ignore,1.0,700.0,1.22836809692
593,1_3_6,3,6.0,1847.57162023,1_I,test,03,4,16.0,10100,kill,1.0,800.0,0.223755724173
594,1_3_6,3,6.0,1849.61860928,1_I,test,03,4,17.0,10001,ignore,1.0,900.0,0.262588368263
595,1_3_6,3,6.0,1851.97812771,1_I,test,03,4,18.0,01100,kill,0.0,800.0,0.595036816234
596,1_3_6,3,6.0,1854.05633343,1_I,test,03,4,19.0,00011,kill,0.0,700.0,0.30646412125
597,1_3_6,3,6.0,1856.11893738,1_I,test,03,4,20.0,01101,kill,1.0,800.0,0.2767218381
598,1_3_6,3,6.0,1859.00974849,1_I,test,03,4,21.0,01011,ignore,0.0,700.0,1.09627514258
599,1_3_6,3,6.0,1861.19732879,1_I,test,03,4,22.0,11011,ignore,0.0,600.0,0.444839793734
600,1_3_6,3,6.0,1863.2130845,1_I,test,03,4,23.0,01110,ignore,1.0,700.0,0.275466192503
601,1_3_6,3,6.0,1865.26000972,1_I,test,03,4,24.0,11100,ignore,1.0,800.0,0.255229611554
602,1_3_6,3,6.0,1867.5574983,1_I,test,03,4,25.0,11101,kill,1.0,900.0,0.491344865388
603,1_3_6,3,6.0,1869.60446619,1_I,test,03,4,26.0,00010,kill,1.0,1000.0,0.245626087664
604,1_3_6,3,6.0,1871.69834229,1_I,test,03,4,27.0,00101,ignore,1.0,1100.0,0.298536395121
605,1_3_6,3,6.0,1873.74530632,1_I,test,03,4,28.0,01001,ignore,0.0,1000.0,0.244765577541
606,1_3_6,3,6.0,1875.79233707,1_I,test,03,4,29.0,11001,ignore,0.0,900.0,0.24116734308
607,1_3_6,3,6.0,1877.82366887,1_I,test,03,4,30.0,10110,ignore,0.0,800.0,0.262839497382
608,1_3_6,3,6.0,1879.91752798,1_I,test,03,4,31.0,10100,kill,1.0,900.0,0.249610477247
609,1_3_6,3,6.0,1882.01138356,1_I,test,03,4,32.0,10110,kill,1.0,1000.0,0.326584599083
610,1_3_6,3,6.0,1884.08958318,1_I,test,03,4,33.0,11111,kill,1.0,1100.0,0.264404644382
611,1_3_6,3,6.0,1886.27718817,1_I,test,03,4,34.0,00101,ignore,1.0,1200.0,0.353912129825
612,1_3_6,3,6.0,1888.29293105,1_I,test,03,4,35.0,11000,ignore,1.0,1300.0,0.260163352597
613,1_3_6,3,6.0,1890.35556323,1_I,test,03,4,36.0,00011,ignore,1.0,1400.0,0.230970795255
614,1_3_6,3,6.0,1892.34000958,1_I,test,03,4,37.0,11001,ignore,0.0,1300.0,0.221296070005
615,1_3_6,3,6.0,1894.4651402,1_I,test,03,4,38.0,10101,kill,0.0,1200.0,0.298331129939
616,1_3_6,3,6.0,1896.55897942,1_I,test,03,4,39.0,11010,kill,0.0,1100.0,0.300569482584
617,1_3_6,3,6.0,1899.2622561,1_I,test,03,4,40.0,00000,ignore,0.0,1000.0,0.927424967558
618,1_3_6,3,6.0,1901.54367113,1_I,test,03,4,41.0,11011,ignore,0.0,900.0,0.513831345146
619,1_3_6,3,6.0,1903.66881073,1_I,test,03,4,42.0,11110,ignore,1.0,1000.0,0.332309252521
620,1_3_6,3,6.0,1905.66891175,1_I,test,03,4,43.0,01111,ignore,0.0,900.0,0.197036291525
621,1_3_6,3,6.0,1907.71588092,1_I,test,03,4,44.0,01101,kill,1.0,1000.0,0.234606554759
622,1_3_6,3,6.0,1910.09099309,1_I,test,03,4,45.0,01100,ignore,1.0,1100.0,0.608851162859
623,1_3_6,3,6.0,1912.85676115,1_I,test,03,4,46.0,10000,kill,1.0,1200.0,0.950173801875
624,1_3_6,3,6.0,1914.91939429,1_I,test,03,4,47.0,10001,ignore,1.0,1300.0,0.244475961203
625,1_3_6,3,6.0,1916.9976279,1_I,test,03,4,48.0,01001,kill,1.0,1400.0,0.298853593969
626,1_3_6,3,6.0,1919.07585318,1_I,test,03,4,49.0,00111,ignore,1.0,1500.0,0.251929011603
627,1_3_6,3,6.0,1921.12284191,1_I,test,03,4,50.0,10010,kill,1.0,1600.0,0.281442937243
628,1_3_6,3,6.0,1923.18543432,1_I,test,03,5,0.0,01010,ignore,1.0,1700.0,0.277052507476
629,1_3_6,3,6.0,1925.32619331,1_I,test,03,5,1.0,01000,kill,1.0,1800.0,0.336058870054
630,1_3_6,3,6.0,1927.46692697,1_I,test,03,5,2.0,00001,ignore,0.0,1700.0,0.361460756825
631,1_3_6,3,6.0,1930.39232751,1_I,test,03,5,3.0,01011,ignore,1.0,1800.0,1.13774319915
632,1_3_6,3,6.0,1932.48618758,1_I,test,03,5,4.0,11101,ignore,1.0,1900.0,0.265453100434
633,1_3_6,3,6.0,1934.59568084,1_I,test,03,5,5.0,10111,kill,1.0,2000.0,0.267642061146
634,1_3_6,3,6.0,1936.64261504,1_I,test,03,5,6.0,11100,kill,0.0,1900.0,0.238556626569
635,1_3_6,3,6.0,1939.08146526,1_I,test,03,5,7.0,00110,ignore,0.0,1800.0,0.660161043363
636,1_3_6,3,6.0,1941.12845784,1_I,test,03,5,8.0,00010,ignore,1.0,1900.0,0.239450492285
637,1_3_6,3,6.0,1943.13395734,1_I,test,03,5,9.0,10011,kill,0.0,1800.0,0.245108755265
638,1_3_6,3,6.0,1946.04033108,1_I,test,03,5,10.0,01110,kill,1.0,1900.0,1.12341857612
639,1_3_6,3,6.0,1948.13420622,1_I,test,03,5,11.0,00100,kill,0.0,1800.0,0.258450671248
