,unique_id,pair_id,sbj_id,wall_time,condition,block,rule_id,rule_num,trial,stimulus,choice,correct,points,reaction_time
0,2_32_1,32,1.0,34.7452567981,2_ND,training,02,1_B,1.0,00011,ignore,1.0,100.0,2.43998305289
1,2_32_1,32,1.0,40.6518001011,2_ND,training,02,1_B,2.0,11101,kill,0.0,0.0,3.75582115861
2,2_32_1,32,1.0,47.4333604025,2_ND,training,02,1_B,3.0,11100,ignore,1.0,100.0,4.6429955586
3,2_32_1,32,1.0,53.6211548281,2_ND,training,02,1_B,4.0,01101,ignore,0.0,0.0,4.03827083045
4,2_32_1,32,1.0,58.8557484823,2_ND,training,02,1_B,5.0,11111,ignore,1.0,100.0,3.11430093498
5,2_32_1,32,1.0,63.3247876159,2_ND,training,02,1_B,6.0,10110,ignore,1.0,200.0,2.33279227027
6,2_32_1,32,1.0,67.4030313643,2_ND,training,02,1_B,7.0,01110,kill,1.0,300.0,1.9343456697
7,2_32_1,32,1.0,71.4032042351,2_ND,training,02,1_B,8.0,00000,kill,0.0,200.0,1.8557160891
8,2_32_1,32,1.0,76.090943496,2_ND,training,02,1_B,9.0,11110,ignore,1.0,300.0,2.5569793607
9,2_32_1,32,1.0,84.0131692889,2_ND,training,02,1_B,10.0,01100,ignore,0.0,200.0,5.75647704122
10,2_32_1,32,1.0,92.091676994,2_ND,training,02,1_B,11.0,11010,ignore,1.0,300.0,5.93845127033
11,2_32_1,32,1.0,96.4043905969,2_ND,training,02,1_B,12.0,10100,kill,0.0,200.0,2.18498615751
12,2_32_1,32,1.0,102.420262956,2_ND,training,02,1_B,13.0,10000,ignore,1.0,300.0,3.88076406957
13,2_32_1,32,1.0,108.498668029,2_ND,training,02,1_B,14.0,11001,ignore,1.0,400.0,3.9311618327
14,2_32_1,32,1.0,123.186884849,2_ND,training,02,1_B,15.0,10101,kill,0.0,300.0,12.5393619369
15,2_32_1,32,1.0,127.42145926,2_ND,training,02,1_B,16.0,10111,kill,0.0,200.0,2.12548012531
16,2_32_1,32,1.0,131.10912732,2_ND,training,02,1_B,17.0,00001,kill,0.0,100.0,1.59314046215
17,2_32_1,32,1.0,136.343766838,2_ND,training,02,1_B,18.0,00100,ignore,0.0,0.0,3.14702065726
18,2_32_1,32,1.0,140.765829061,2_ND,training,02,1_B,19.0,01010,kill,1.0,100.0,2.32539378614
19,2_32_1,32,1.0,144.236872726,2_ND,training,02,1_B,20.0,00111,kill,1.0,200.0,1.35209606612
20,2_32_1,32,1.0,149.565231294,2_ND,training,02,1_B,21.0,01011,kill,1.0,300.0,3.24343283505
21,2_32_1,32,1.0,159.159441695,2_ND,training,02,1_B,22.0,10011,kill,0.0,200.0,7.4893859271
22,2_32_1,32,1.0,164.48779449,2_ND,training,02,1_B,23.0,01000,ignore,0.0,100.0,3.2351485085
23,2_32_1,32,1.0,172.253776216,2_ND,training,02,1_B,24.0,00010,kill,0.0,0.0,5.6898586116
24,2_32_1,32,1.0,177.504028627,2_ND,training,02,1_B,25.0,11011,ignore,1.0,100.0,3.16482057361
25,2_32_1,32,1.0,190.723409012,2_ND,training,02,1_B,26.0,01111,kill,1.0,200.0,11.1430587414
26,2_32_1,32,1.0,202.606683075,2_ND,training,02,1_B,27.0,00110,kill,1.0,300.0,9.81139446095
27,2_32_1,32,1.0,205.950610917,2_ND,training,02,1_B,28.0,11000,ignore,1.0,400.0,1.28784041751
28,2_32_1,32,1.0,212.41965422,2_ND,training,02,1_B,29.0,01001,ignore,0.0,300.0,4.38149949197
29,2_32_1,32,1.0,216.622967886,2_ND,training,02,1_B,30.0,10010,kill,0.0,200.0,2.12607507017
30,2_32_1,32,1.0,221.154415613,2_ND,training,02,1_B,31.0,10001,ignore,1.0,300.0,2.46743069774
31,2_32_1,32,1.0,231.017268475,2_ND,training,02,1_B,32.0,00101,ignore,0.0,200.0,7.76946768632
32,2_32_1,32,1.0,238.398824415,2_ND,training,02,1_B,33.0,10011,ignore,1.0,300.0,5.30333624552
33,2_32_1,32,1.0,242.711549564,2_ND,training,02,1_B,34.0,10100,ignore,1.0,400.0,2.21812218082
34,2_32_1,32,1.0,245.852360664,2_ND,training,02,1_B,35.0,11000,ignore,1.0,500.0,1.06726180396
35,2_32_1,32,1.0,249.461867402,2_ND,training,02,1_B,36.0,00101,kill,1.0,600.0,1.54715234694
36,2_32_1,32,1.0,252.665166957,2_ND,training,02,1_B,37.0,11011,ignore,1.0,700.0,1.1355845662
37,2_32_1,32,1.0,255.805904932,2_ND,training,02,1_B,38.0,00010,kill,0.0,600.0,1.07694224641
38,2_32_1,32,1.0,261.540578447,2_ND,training,02,1_B,39.0,10110,ignore,1.0,700.0,3.66902559899
39,2_32_1,32,1.0,267.75958647,2_ND,training,02,1_B,40.0,01101,kill,1.0,800.0,4.15482197197
40,2_32_1,32,1.0,275.603781476,2_ND,training,02,1_B,41.0,00111,kill,1.0,900.0,5.77304248708
41,2_32_1,32,1.0,282.150872564,2_ND,training,02,1_B,42.0,00001,kill,0.0,800.0,4.47721986596
42,2_32_1,32,1.0,288.682433187,2_ND,training,02,1_B,43.0,01110,kill,1.0,900.0,4.46641848967
43,2_32_1,32,1.0,294.713969754,2_ND,training,02,1_B,44.0,00110,kill,1.0,1000.0,3.9757894325
44,2_32_1,32,1.0,304.870674061,2_ND,training,02,1_B,45.0,00100,kill,1.0,1100.0,8.09736633465
45,2_32_1,32,1.0,311.199076248,2_ND,training,02,1_B,46.0,01001,ignore,0.0,1000.0,4.29247393147
46,2_32_1,32,1.0,314.793048671,2_ND,training,02,1_B,47.0,01000,kill,1.0,1100.0,1.51326711004
47,2_32_1,32,1.0,318.136919424,2_ND,training,02,1_B,48.0,11111,ignore,1.0,1200.0,1.30349596656
48,2_32_1,32,1.0,321.621426161,2_ND,training,02,1_B,49.0,11010,ignore,1.0,1300.0,1.47228519123
49,2_32_1,32,1.0,325.965378058,2_ND,training,02,1_B,50.0,10101,ignore,1.0,1400.0,2.28047785458
50,2_32_1,32,1.0,330.73124753,2_ND,training,02,1_B,51.0,11001,ignore,1.0,1500.0,2.70296022754
51,2_32_1,32,1.0,334.137680825,2_ND,training,02,1_B,52.0,00011,kill,0.0,1400.0,1.3571275998
52,2_32_1,32,1.0,338.894204692,2_ND,training,02,1_B,53.0,01011,kill,1.0,1500.0,2.70566714647
53,2_32_1,32,1.0,342.894400976,2_ND,training,02,1_B,54.0,01010,kill,1.0,1600.0,1.9768468628
54,2_32_1,32,1.0,346.925819517,2_ND,training,02,1_B,55.0,10001,ignore,1.0,1700.0,1.94756467099
55,2_32_1,32,1.0,349.925933053,2_ND,training,02,1_B,56.0,10111,ignore,1.0,1800.0,0.935526899844
56,2_32_1,32,1.0,353.316745757,2_ND,training,02,1_B,57.0,11100,ignore,1.0,1900.0,1.35856476849
57,2_32_1,32,1.0,357.160642489,2_ND,training,02,1_B,58.0,10000,ignore,1.0,2000.0,1.78751135366
58,2_32_1,32,1.0,360.285805738,2_ND,training,02,1_B,59.0,00000,kill,0.0,1900.0,1.08698863607
59,2_32_1,32,1.0,365.301669117,2_ND,training,02,1_B,60.0,01100,kill,1.0,2000.0,2.94254404196
60,2_32_1,32,1.0,371.692686123,2_ND,training,02,1_B,61.0,11101,ignore,1.0,2100.0,4.34629318883
61,2_32_1,32,1.0,375.098979902,2_ND,training,02,1_B,62.0,10010,ignore,1.0,2200.0,1.34978812907
62,2_32_1,32,1.0,380.333612364,2_ND,training,02,1_B,63.0,11110,ignore,1.0,2300.0,3.21179940833
63,2_32_1,32,1.0,388.287096656,2_ND,training,02,1_B,64.0,01111,kill,1.0,2400.0,5.91003599817
64,2_32_1,32,1.0,393.896755097,2_ND,training,02,1_B,65.0,00111,kill,1.0,2500.0,3.56072831514
65,2_32_1,32,1.0,398.631365108,2_ND,training,02,1_B,66.0,01001,kill,1.0,2600.0,2.68391557749
66,2_32_1,32,1.0,401.631460043,2_ND,training,02,1_B,67.0,01110,kill,1.0,2700.0,0.964253275244
67,2_32_1,32,1.0,406.147300971,2_ND,training,02,1_B,68.0,00011,kill,0.0,2600.0,2.46497971735
68,2_32_1,32,1.0,409.459969993,2_ND,training,02,1_B,69.0,10011,ignore,1.0,2700.0,1.26438868534
69,2_32_1,32,1.0,424.257519718,2_ND,training,02,1_B,70.0,11100,ignore,1.0,2800.0,12.7614935008
70,2_32_1,32,1.0,429.210845893,2_ND,training,02,1_B,71.0,00000,kill,0.0,2700.0,2.9015294092
71,2_32_1,32,1.0,433.179809977,2_ND,training,02,1_B,72.0,10101,ignore,1.0,2800.0,1.93230233077
72,2_32_1,32,1.0,437.1487561,2_ND,training,02,1_B,73.0,11011,ignore,1.0,2900.0,1.95488425676
73,2_32_1,32,1.0,440.773929292,2_ND,training,02,1_B,74.0,11000,ignore,1.0,3000.0,1.57547108087
74,2_32_1,32,1.0,447.071076828,2_ND,training,02,1_B,75.0,10000,ignore,1.0,3100.0,4.28516909904
75,2_32_1,32,1.0,454.946441171,2_ND,training,02,1_B,76.0,10100,ignore,1.0,3200.0,5.82647944025
76,2_32_1,32,1.0,458.868497622,2_ND,training,02,1_B,77.0,01011,kill,1.0,3300.0,1.89869901114
77,2_32_1,32,1.0,463.681205772,2_ND,training,02,1_B,78.0,10010,ignore,1.0,3400.0,2.75356517902
78,2_32_1,32,1.0,468.728311293,2_ND,training,02,1_B,79.0,00100,kill,1.0,3500.0,2.98892504529
79,2_32_1,32,1.0,474.900456263,2_ND,training,02,1_B,80.0,01101,kill,1.0,3600.0,4.14408185415
80,2_32_1,32,1.0,477.96310091,2_ND,training,02,1_B,81.0,11110,ignore,1.0,3700.0,1.05300140863
81,2_32_1,32,1.0,481.291399182,2_ND,training,02,1_B,82.0,10111,ignore,1.0,3800.0,1.31174982424
82,2_32_1,32,1.0,484.88532093,2_ND,training,02,1_B,83.0,00010,kill,0.0,3700.0,1.55896978001
83,2_32_1,32,1.0,492.276271867,2_ND,training,02,1_B,84.0,11101,ignore,1.0,3800.0,5.36472461269
84,2_32_1,32,1.0,496.354589703,2_ND,training,02,1_B,85.0,01111,ignore,0.0,3700.0,2.03116773404
85,2_32_1,32,1.0,500.557894068,2_ND,training,02,1_B,86.0,10110,ignore,1.0,3800.0,2.16052959394
86,2_32_1,32,1.0,504.167480346,2_ND,training,02,1_B,87.0,11010,ignore,1.0,3900.0,1.62305287857
87,2_32_1,32,1.0,509.230199722,2_ND,training,02,1_B,88.0,00001,kill,0.0,3800.0,3.02581451319
88,2_32_1,32,1.0,515.293077536,2_ND,training,02,1_B,89.0,00101,kill,1.0,3900.0,4.00254238701
89,2_32_1,32,1.0,519.30878408,2_ND,training,02,1_B,90.0,00110,kill,1.0,4000.0,1.99673469885
90,2_32_1,32,1.0,523.137114104,2_ND,training,02,1_B,91.0,01010,kill,1.0,4100.0,1.82559071129
91,2_32_1,32,1.0,526.809105126,2_ND,training,02,1_B,92.0,10001,ignore,1.0,4200.0,1.62746060214
92,2_32_1,32,1.0,529.731122448,2_ND,training,02,1_B,93.0,11111,ignore,1.0,4300.0,0.894583468038
93,2_32_1,32,1.0,539.762858827,2_ND,training,02,1_B,94.0,01000,kill,1.0,4400.0,8.00753735805
94,2_32_1,32,1.0,543.434895392,2_ND,training,02,1_B,95.0,11001,ignore,1.0,4500.0,1.66264413381
95,2_32_1,32,1.0,554.232275133,2_ND,training,02,1_B,96.0,01100,kill,1.0,4600.0,8.76020322418
96,2_32_1,32,1.0,557.544939665,2_ND,training,02,1_B,97.0,00100,kill,1.0,4700.0,1.27913882774
97,2_32_1,32,1.0,573.123766812,2_ND,training,02,1_B,98.0,01110,kill,1.0,4800.0,13.5608899605
98,2_32_1,32,1.0,577.186479774,2_ND,training,02,1_B,99.0,01111,kill,1.0,4900.0,2.02094654926
99,2_32_1,32,1.0,580.749100366,2_ND,training,02,1_B,100.0,11010,ignore,1.0,5000.0,1.57705738668
100,2_32_1,32,1.0,587.280677987,2_ND,training,02,1_B,101.0,00111,kill,1.0,5100.0,4.46917961113
101,2_32_1,32,1.0,591.655878761,2_ND,training,02,1_B,102.0,10111,ignore,1.0,5200.0,2.35593129557
102,2_32_1,32,1.0,596.781102948,2_ND,training,02,1_B,103.0,01011,kill,1.0,5300.0,3.13048535955
103,2_32_1,32,1.0,600.15625882,2_ND,training,02,1_B,104.0,10010,ignore,1.0,5400.0,1.36066551719
104,2_32_1,32,1.0,608.844178008,2_ND,training,02,1_B,105.0,00110,kill,1.0,5500.0,6.68776716392
105,2_32_1,32,1.0,613.516252739,2_ND,training,02,1_B,106.0,10101,ignore,1.0,5600.0,2.6439734491
106,2_32_1,32,1.0,617.06329187,2_ND,training,02,1_B,107.0,10000,ignore,1.0,5700.0,1.52541938
107,2_32_1,32,1.0,621.485387128,2_ND,training,02,1_B,108.0,01100,kill,1.0,5800.0,2.42990491145
108,2_32_1,32,1.0,631.095176424,2_ND,training,02,1_B,109.0,00011,kill,0.0,5700.0,7.60143441046
109,2_32_1,32,1.0,635.470429156,2_ND,training,02,1_B,110.0,00101,kill,1.0,5800.0,2.34408852523
110,2_32_1,32,1.0,640.548725182,2_ND,training,02,1_B,111.0,11001,ignore,1.0,5900.0,3.06179023559
111,2_32_1,32,1.0,649.471048155,2_ND,training,02,1_B,112.0,00010,ignore,1.0,6000.0,6.91094461207
112,2_32_1,32,1.0,653.002469903,2_ND,training,02,1_B,113.0,11000,ignore,1.0,6100.0,1.53238809264
113,2_32_1,32,1.0,657.002655603,2_ND,training,02,1_B,114.0,10011,ignore,1.0,6200.0,1.95396153096
114,2_32_1,32,1.0,661.034155608,2_ND,training,02,1_B,115.0,01101,kill,1.0,6300.0,2.01591693992
115,2_32_1,32,1.0,664.37805266,2_ND,training,02,1_B,116.0,11111,ignore,1.0,6400.0,1.33196191327
116,2_32_1,32,1.0,668.725182621,2_ND,training,02,1_B,117.0,11110,ignore,1.0,6500.0,2.36312900585
117,2_32_1,32,1.0,673.600386923,2_ND,training,02,1_B,118.0,01000,kill,1.0,6600.0,2.87418535852
118,2_32_1,32,1.0,677.225585451,2_ND,training,02,1_B,119.0,11100,ignore,1.0,6700.0,1.60234238291
119,2_32_1,32,1.0,681.335131638,2_ND,training,02,1_B,120.0,10100,ignore,1.0,6800.0,2.08677888193
120,2_32_1,32,1.0,684.257105662,2_ND,training,02,1_B,121.0,10001,ignore,1.0,6900.0,0.911194136123
121,2_32_1,32,1.0,690.382504323,2_ND,training,02,1_B,122.0,00000,kill,0.0,6800.0,4.08736612939
122,2_32_1,32,1.0,699.195417417,2_ND,training,02,1_B,123.0,10110,ignore,1.0,6900.0,6.83091731197
123,2_32_1,32,1.0,707.30515636,2_ND,training,02,1_B,124.0,00001,ignore,1.0,7000.0,6.10297966347
124,2_32_1,32,1.0,715.149302936,2_ND,training,02,1_B,125.0,01010,kill,1.0,7100.0,5.84443009735
125,2_32_1,32,1.0,719.087004993,2_ND,training,02,1_B,126.0,11011,ignore,1.0,7200.0,1.95707609136
126,2_32_1,32,1.0,724.29036741,2_ND,training,02,1_B,127.0,01001,kill,1.0,7300.0,3.20400514956
127,2_32_1,32,1.0,729.212482553,2_ND,training,02,1_B,128.0,11101,ignore,1.0,7400.0,2.92764091373
128,2_32_1,32,1.0,732.447178518,2_ND,training,02,1_B,129.0,11001,ignore,1.0,7500.0,1.21429176224
129,2_32_1,32,1.0,738.353677561,2_ND,training,02,1_B,130.0,01111,kill,1.0,7600.0,3.88147383397
130,2_32_1,32,1.0,746.400946331,2_ND,training,02,1_B,131.0,00100,kill,1.0,7700.0,6.03249778058
131,2_32_1,32,1.0,749.932371287,2_ND,training,02,1_B,132.0,10100,ignore,1.0,7800.0,1.50461298757
132,2_32_1,32,1.0,753.83876866,2_ND,training,02,1_B,133.0,00010,ignore,1.0,7900.0,1.89648055637
133,2_32_1,32,1.0,760.060940314,2_ND,training,02,1_B,134.0,01101,kill,1.0,8000.0,4.20095345126
134,2_32_1,32,1.0,763.029846989,2_ND,training,02,1_B,135.0,10001,ignore,1.0,8100.0,0.938589823527
135,2_32_1,32,1.0,769.795758155,2_ND,training,02,1_B,136.0,10010,ignore,1.0,8200.0,4.77146676519
136,2_32_1,32,1.0,773.905338339,2_ND,training,02,1_B,137.0,00000,ignore,1.0,8300.0,2.07722865383
137,2_32_1,32,1.0,777.796147516,2_ND,training,02,1_B,138.0,01100,kill,1.0,8400.0,1.87852444694
138,2_32_1,32,1.0,781.093266507,2_ND,training,02,1_B,139.0,10011,ignore,1.0,8500.0,1.30473717229
139,2_32_1,32,1.0,785.280872346,2_ND,training,02,1_B,140.0,01001,kill,1.0,8600.0,2.17717810757
140,2_32_1,32,1.0,792.687429441,2_ND,training,02,1_B,141.0,00001,ignore,1.0,8700.0,5.42368637458
141,2_32_1,32,1.0,798.406472102,2_ND,training,02,1_B,142.0,00011,ignore,1.0,8800.0,3.69568329818
142,2_32_1,32,1.0,807.438123169,2_ND,training,02,1_B,143.0,01011,kill,1.0,8900.0,7.0147847807
143,2_32_1,32,1.0,810.500784493,2_ND,training,02,1_B,144.0,11000,ignore,1.0,9000.0,1.07138151649
144,2_32_1,32,1.0,814.094690526,2_ND,training,02,1_B,145.0,01010,kill,1.0,9100.0,1.57757054667
145,2_32_1,32,1.0,817.657379754,2_ND,training,02,1_B,146.0,00110,ignore,0.0,9000.0,1.57586974204
146,2_32_1,32,1.0,826.814027613,2_ND,training,02,1_B,147.0,00101,ignore,0.0,8900.0,7.14150611174
147,2_32_1,32,1.0,831.614511331,2_ND,training,02,1_B,148.0,01000,kill,1.0,9000.0,2.79185300789
148,2_32_1,32,1.0,834.895952322,2_ND,training,02,1_B,149.0,10111,ignore,1.0,9100.0,1.29343899297
149,2_32_1,32,1.0,841.986019598,2_ND,training,02,1_B,150.0,00111,kill,1.0,9200.0,5.07059574026
150,2_32_1,32,1.0,959.46018552,2_ND,test,02,2,0.0,11110,ignore,0.0,0.0,15.7451253008
151,2_32_1,32,1.0,969.804427673,2_ND,test,02,2,1.0,11111,ignore,0.0,0.0,8.34906104551
152,2_32_1,32,1.0,981.711230121,2_ND,test,02,2,2.0,10101,ignore,1.0,100.0,9.87780089136
153,2_32_1,32,1.0,990.39913199,2_ND,test,02,2,3.0,11100,ignore,1.0,200.0,6.70584546957
154,2_32_1,32,1.0,1012.91578756,2_ND,test,02,2,4.0,11101,ignore,1.0,300.0,20.5018262081
155,2_32_1,32,1.0,1022.24433183,2_ND,test,02,2,5.0,10110,kill,1.0,400.0,7.31990169137
156,2_32_1,32,1.0,1025.94765095,2_ND,test,02,2,6.0,11010,kill,1.0,500.0,1.73312826177
157,2_32_1,32,1.0,1036.79186969,2_ND,test,02,2,7.0,01110,ignore,1.0,600.0,8.84453465369
158,2_32_1,32,1.0,1048.9643543,2_ND,test,02,2,8.0,10000,ignore,1.0,700.0,10.2031096854
159,2_32_1,32,1.0,1057.40222153,2_ND,test,02,2,9.0,11011,kill,1.0,800.0,6.44148372513
160,2_32_1,32,1.0,1064.96843842,2_ND,test,02,2,10.0,01101,ignore,1.0,900.0,5.56031650425
161,2_32_1,32,1.0,1081.31295607,2_ND,test,02,2,11.0,00110,kill,1.0,1000.0,14.3574682097
162,2_32_1,32,1.0,1088.25077391,2_ND,test,02,3,0.0,01000,ignore,0.0,900.0,4.93792367771
163,2_32_1,32,1.0,1094.45419758,2_ND,test,02,3,1.0,10110,ignore,1.0,1000.0,4.22337565621
164,2_32_1,32,1.0,1098.9543897,2_ND,test,02,3,2.0,11011,ignore,1.0,1100.0,2.51438676099
165,2_32_1,32,1.0,1103.64213281,2_ND,test,02,3,3.0,00111,kill,0.0,1000.0,2.6820755782
166,2_32_1,32,1.0,1107.56414243,2_ND,test,02,3,4.0,11110,ignore,1.0,1100.0,1.95615432773
167,2_32_1,32,1.0,1112.62689228,2_ND,test,02,3,5.0,10111,ignore,1.0,1200.0,3.06744397576
168,2_32_1,32,1.0,1129.54956452,2_ND,test,02,3,6.0,11101,kill,0.0,1100.0,14.9325197823
169,2_32_1,32,1.0,1136.78114913,2_ND,test,02,3,7.0,00100,kill,1.0,1200.0,5.23395605298
170,2_32_1,32,1.0,1141.34383259,2_ND,test,02,3,8.0,00101,kill,0.0,1100.0,2.56267479512
171,2_32_1,32,1.0,1150.73490476,2_ND,test,02,3,9.0,11001,ignore,1.0,1200.0,7.41808362968
172,2_32_1,32,1.0,1156.15702567,2_ND,test,02,3,10.0,11111,ignore,1.0,1300.0,3.45915823801
173,2_32_1,32,1.0,1164.15743781,2_ND,test,02,3,11.0,10000,kill,1.0,1400.0,6.0125531762
174,2_32_1,32,1.0,1174.01723801,2_ND,test,02,3,12.0,11010,kill,1.0,1500.0,7.88723533774
175,2_32_1,32,1.0,1184.25211197,2_ND,test,02,3,13.0,11000,kill,1.0,1600.0,8.22768780373
176,2_32_1,32,1.0,1188.23667035,2_ND,test,02,3,14.0,10101,ignore,1.0,1700.0,1.98641344787
177,2_32_1,32,1.0,1193.06497247,2_ND,test,02,3,15.0,01111,kill,0.0,1600.0,2.81514052886
178,2_32_1,32,1.0,1197.40893784,2_ND,test,02,3,16.0,01100,ignore,0.0,1500.0,2.33057958855
179,2_32_1,32,1.0,1204.3936431,2_ND,test,02,3,17.0,01011,kill,0.0,1400.0,5.01040912963
180,2_32_1,32,1.0,1209.84701225,2_ND,test,02,3,18.0,00011,ignore,1.0,1500.0,3.46051971561
181,2_32_1,32,1.0,1217.78488301,2_ND,test,02,3,19.0,00000,ignore,0.0,1400.0,5.96649033207
182,2_32_1,32,1.0,1223.84768129,2_ND,test,02,3,20.0,10001,kill,0.0,1300.0,4.04120418123
183,2_32_1,32,1.0,1230.98863158,2_ND,test,02,3,21.0,10010,ignore,0.0,1200.0,5.14716658713
184,2_32_1,32,1.0,1239.52028361,2_ND,test,02,3,22.0,00001,ignore,1.0,1300.0,6.53563896116
185,2_32_1,32,1.0,1250.86457291,2_ND,test,02,3,23.0,11100,ignore,0.0,1200.0,9.34713092251
186,2_32_1,32,1.0,1259.31807548,2_ND,test,02,3,24.0,01001,ignore,1.0,1300.0,6.48590541948
187,2_32_1,32,1.0,1271.61554888,2_ND,test,02,3,25.0,01010,kill,1.0,1400.0,10.3082353198
188,2_32_1,32,1.0,1279.03770828,2_ND,test,02,3,26.0,00010,kill,1.0,1500.0,5.42987572548
189,2_32_1,32,1.0,1284.66299404,2_ND,test,02,3,27.0,01110,kill,0.0,1400.0,3.66449664137
190,2_32_1,32,1.0,1291.66332311,2_ND,test,02,3,28.0,10100,kill,1.0,1500.0,4.99302358996
191,2_32_1,32,1.0,1296.88230259,2_ND,test,02,3,29.0,10011,ignore,1.0,1600.0,3.22808742707
192,2_32_1,32,1.0,1303.07009124,2_ND,test,02,3,30.0,01111,kill,0.0,1500.0,4.19955797682
193,2_32_1,32,1.0,1307.33588438,2_ND,test,02,3,31.0,10111,ignore,1.0,1600.0,2.25048204967
194,2_32_1,32,1.0,1316.43005244,2_ND,test,02,3,32.0,11110,ignore,1.0,1700.0,7.14225660822
195,2_32_1,32,1.0,1322.32103866,2_ND,test,02,3,33.0,01001,ignore,1.0,1800.0,3.88164830837
196,2_32_1,32,1.0,1326.27434912,2_ND,test,02,3,34.0,11011,ignore,1.0,1900.0,1.96984768128
197,2_32_1,32,1.0,1332.97777472,2_ND,test,02,3,35.0,10001,kill,0.0,1800.0,4.72073576879
198,2_32_1,32,1.0,1338.25923335,2_ND,test,02,3,36.0,00011,ignore,1.0,1900.0,3.27044846334
199,2_32_1,32,1.0,1345.16875491,2_ND,test,02,3,37.0,11101,ignore,1.0,2000.0,4.93678766979
200,2_32_1,32,1.0,1351.40964728,2_ND,test,02,3,38.0,00101,ignore,1.0,2100.0,4.22813297002
201,2_32_1,32,1.0,1356.15986281,2_ND,test,02,3,39.0,01100,kill,1.0,2200.0,2.74231093903
202,2_32_1,32,1.0,1363.16016685,2_ND,test,02,3,40.0,10101,ignore,1.0,2300.0,5.01303843312
203,2_32_1,32,1.0,1366.19157032,2_ND,test,02,3,41.0,11000,kill,1.0,2400.0,1.03922210078
204,2_32_1,32,1.0,1369.58232369,2_ND,test,02,3,42.0,00000,kill,1.0,2500.0,1.39610659103
205,2_32_1,32,1.0,1373.00439265,2_ND,test,02,3,43.0,00010,kill,1.0,2600.0,1.4174691206
206,2_32_1,32,1.0,1376.12951292,2_ND,test,02,3,44.0,10000,kill,1.0,2700.0,1.13389723202
207,2_32_1,32,1.0,1378.97342152,2_ND,test,02,3,45.0,11010,kill,1.0,2800.0,0.895951360129
208,2_32_1,32,1.0,1382.06729356,2_ND,test,02,4,0.0,01010,kill,0.0,2700.0,1.13162072602
209,2_32_1,32,1.0,1388.83326053,2_ND,test,02,4,1.0,00001,kill,0.0,2600.0,4.7636336987
210,2_32_1,32,1.0,1393.89596932,2_ND,test,02,4,2.0,00100,ignore,1.0,2700.0,3.08006450421
211,2_32_1,32,1.0,1398.47429646,2_ND,test,02,4,3.0,01101,kill,0.0,2600.0,2.58588213485
212,2_32_1,32,1.0,1402.39637055,2_ND,test,02,4,4.0,00110,ignore,1.0,2700.0,1.95225174603
213,2_32_1,32,1.0,1405.91214669,2_ND,test,02,4,5.0,11001,kill,1.0,2800.0,1.5022688086
214,2_32_1,32,1.0,1409.19356491,2_ND,test,02,4,6.0,00111,ignore,1.0,2900.0,1.27863496877
215,2_32_1,32,1.0,1413.27814618,2_ND,test,02,4,7.0,01011,kill,0.0,2800.0,2.09778712584
216,2_32_1,32,1.0,1419.41911765,2_ND,test,02,4,8.0,11100,ignore,1.0,2900.0,4.14648793304
217,2_32_1,32,1.0,1423.29427865,2_ND,test,02,4,9.0,10110,ignore,0.0,2800.0,1.90532262368
218,2_32_1,32,1.0,1429.48303012,2_ND,test,02,4,10.0,01110,kill,0.0,2700.0,4.16943291972
219,2_32_1,32,1.0,1441.85759041,2_ND,test,02,4,11.0,10100,ignore,0.0,2600.0,10.3647791359
220,2_32_1,32,1.0,1446.87350863,2_ND,test,02,4,12.0,10010,ignore,0.0,2500.0,3.03723232292
221,2_32_1,32,1.0,1452.24874821,2_ND,test,02,4,13.0,01000,ignore,1.0,2600.0,3.39267643723
222,2_32_1,32,1.0,1468.2079475,2_ND,test,02,4,14.0,11111,kill,1.0,2700.0,13.9981458888
223,2_32_1,32,1.0,1475.16134103,2_ND,test,02,4,15.0,10011,kill,1.0,2800.0,4.97014018248
224,2_32_1,32,1.0,1481.36475508,2_ND,test,02,4,16.0,10000,ignore,0.0,2700.0,4.23027252644
225,2_32_1,32,1.0,1485.86496836,2_ND,test,02,4,17.0,11000,kill,0.0,2600.0,2.52996982619
226,2_32_1,32,1.0,1491.55297351,2_ND,test,02,4,18.0,00000,kill,0.0,2500.0,3.69749282859
227,2_32_1,32,1.0,1496.50942194,2_ND,test,02,4,19.0,11001,ignore,0.0,2400.0,3.00285894258
228,2_32_1,32,1.0,1505.7754816,2_ND,test,02,4,20.0,10101,kill,1.0,2500.0,7.27142410877
229,2_32_1,32,1.0,1510.55694408,2_ND,test,02,4,21.0,01100,kill,0.0,2400.0,2.79756832725
230,2_32_1,32,1.0,1514.04296047,2_ND,test,02,4,22.0,00101,kill,0.0,2300.0,1.52302452648
231,2_32_1,32,1.0,1520.6838633,2_ND,test,02,4,23.0,11110,ignore,1.0,2400.0,4.68562792822
232,2_32_1,32,1.0,1525.74900832,2_ND,test,02,4,24.0,01000,kill,0.0,2300.0,3.07735085005
233,2_32_1,32,1.0,1533.42121679,2_ND,test,02,4,25.0,10001,kill,1.0,2400.0,5.68708754766
234,2_32_1,32,1.0,1538.93709781,2_ND,test,02,4,26.0,11100,ignore,1.0,2500.0,3.54215962098
235,2_32_1,32,1.0,1543.18732104,2_ND,test,02,4,27.0,11101,ignore,0.0,2400.0,2.28544812979
236,2_32_1,32,1.0,1550.65642239,2_ND,test,02,4,28.0,11011,ignore,0.0,2300.0,5.47864484711
237,2_32_1,32,1.0,1557.35984574,2_ND,test,02,4,29.0,11111,ignore,0.0,2200.0,4.7183335386
238,2_32_1,32,1.0,1562.8913403,2_ND,test,02,4,30.0,10011,kill,1.0,2300.0,3.54940576074
239,2_32_1,32,1.0,1571.5511319,2_ND,test,02,4,31.0,00001,ignore,1.0,2400.0,6.68288572953
240,2_32_1,32,1.0,1576.78890971,2_ND,test,02,4,32.0,10010,kill,1.0,2500.0,3.28314436217
241,2_32_1,32,1.0,1582.82041613,2_ND,test,02,4,33.0,01110,kill,0.0,2400.0,4.03594300845
242,2_32_1,32,1.0,1589.91447996,2_ND,test,02,4,34.0,01010,ignore,1.0,2500.0,5.1102844959
243,2_32_1,32,1.0,1595.57098414,2_ND,test,02,4,35.0,10110,ignore,0.0,2400.0,3.6937124431
244,2_32_1,32,1.0,1599.79309646,2_ND,test,02,4,36.0,00011,kill,0.0,2300.0,2.24579882332
245,2_32_1,32,1.0,1605.66835496,2_ND,test,02,4,37.0,01001,ignore,1.0,2400.0,3.92296891277
246,2_32_1,32,1.0,1611.18421962,2_ND,test,02,4,38.0,01101,ignore,1.0,2500.0,3.54663181027
247,2_32_1,32,1.0,1620.09090308,2_ND,test,02,4,39.0,01011,kill,0.0,2400.0,6.92150031303
248,2_32_1,32,1.0,1624.32548744,2_ND,test,02,4,40.0,00110,kill,0.0,2300.0,2.27091319386
249,2_32_1,32,1.0,1628.96628667,2_ND,test,02,4,41.0,01111,ignore,1.0,2400.0,2.69068479918
250,2_32_1,32,1.0,1635.0134387,2_ND,test,02,4,42.0,10111,ignore,0.0,2300.0,4.05127654961
251,2_32_1,32,1.0,1643.29505705,2_ND,test,02,4,43.0,00111,ignore,1.0,2400.0,6.29304385978
252,2_32_1,32,1.0,1652.2018704,2_ND,test,02,4,44.0,11010,kill,0.0,2300.0,6.93166152224
253,2_32_1,32,1.0,1658.78026746,2_ND,test,02,4,45.0,10100,kill,1.0,2400.0,4.61689560017
254,2_32_1,32,1.0,1668.70263982,2_ND,test,02,4,46.0,00100,kill,0.0,2300.0,7.91390811101
255,2_32_1,32,1.0,1674.2654025,2_ND,test,02,4,47.0,00010,kill,0.0,2200.0,3.59092649753
256,2_32_1,32,1.0,1686.87537846,2_ND,test,02,4,48.0,11011,ignore,0.0,2100.0,10.6522750948
257,2_32_1,32,1.0,1691.35995479,2_ND,test,02,4,49.0,01111,ignore,1.0,2200.0,2.51338866481
258,2_32_1,32,1.0,1702.35109637,2_ND,test,02,4,50.0,11101,kill,1.0,2300.0,9.04360288345
259,2_32_1,32,1.0,1707.21068906,2_ND,test,02,4,51.0,00010,kill,0.0,2200.0,2.8323846288
260,2_32_1,32,1.0,1716.66426155,2_ND,test,02,4,52.0,01101,kill,0.0,2100.0,7.42580508388
261,2_32_1,32,1.0,1722.74538637,2_ND,test,02,4,53.0,01100,ignore,1.0,2200.0,4.11534040468
262,2_32_1,32,1.0,1726.01114519,2_ND,test,02,4,54.0,10100,kill,1.0,2300.0,1.26544451201
263,2_32_1,32,1.0,1730.24573436,2_ND,test,02,4,55.0,10011,kill,1.0,2400.0,2.26948789199
264,2_32_1,32,1.0,1733.77714264,2_ND,test,02,4,56.0,01001,ignore,1.0,2500.0,1.57673537879
265,2_32_1,32,1.0,1736.99606021,2_ND,test,02,4,57.0,00100,kill,0.0,2400.0,1.22306551514
266,2_32_1,32,1.0,1744.05886843,2_ND,test,02,4,58.0,10001,ignore,0.0,2300.0,5.10958371179
267,2_32_1,32,1.0,1749.18406856,2_ND,test,02,4,59.0,11001,ignore,0.0,2200.0,3.18190880121
268,2_32_1,32,1.0,1752.94989121,2_ND,test,02,4,60.0,00111,ignore,1.0,2300.0,1.8123268085
269,2_32_1,32,1.0,1759.73147717,2_ND,test,02,4,61.0,01000,kill,0.0,2200.0,4.81851263143
270,2_32_1,32,1.0,1766.35677127,2_ND,test,02,4,62.0,01110,ignore,1.0,2300.0,4.65372348887
271,2_32_1,32,1.0,1772.88831233,2_ND,test,02,4,63.0,11000,kill,0.0,2200.0,4.60074741752
272,2_32_1,32,1.0,1777.85730656,2_ND,test,02,4,64.0,11111,kill,1.0,2300.0,3.02917025879
273,2_32_1,32,1.0,1781.60747783,2_ND,test,02,4,65.0,01011,ignore,1.0,2400.0,1.7699423593
274,2_32_1,32,1.0,1787.9515221,2_ND,test,02,4,66.0,00000,ignore,1.0,2500.0,4.37654397011
275,2_32_1,32,1.0,1797.17068311,2_ND,test,02,4,67.0,10110,kill,1.0,2600.0,7.24609356959
276,2_32_1,32,1.0,1801.74902339,2_ND,test,02,4,68.0,00110,ignore,1.0,2700.0,2.64722111038
277,2_32_1,32,1.0,1806.13985245,2_ND,test,02,5,0.0,10111,kill,1.0,2800.0,2.38586391767
278,2_32_1,32,1.0,1814.15900423,2_ND,test,02,5,1.0,00101,kill,0.0,2700.0,6.05586612426
279,2_32_1,32,1.0,1819.23733136,2_ND,test,02,5,2.0,11010,kill,1.0,2800.0,3.14657549097
280,2_32_1,32,1.0,1823.86257255,2_ND,test,02,5,3.0,10010,kill,1.0,2900.0,2.64942898122
281,2_32_1,32,1.0,1827.09705555,2_ND,test,02,5,4.0,00011,ignore,0.0,2800.0,1.31905401522
282,2_32_1,32,1.0,1834.01928102,2_ND,test,02,5,5.0,00001,ignore,1.0,2900.0,4.91966929405
283,2_32_1,32,1.0,1850.59818515,2_ND,test,02,5,6.0,10000,ignore,1.0,3000.0,14.6065342586
284,2_32_1,32,1.0,1857.77041671,2_ND,test,02,5,7.0,01010,kill,0.0,2900.0,5.22755341995
285,2_32_1,32,1.0,1863.41766091,2_ND,test,02,5,8.0,11110,kill,1.0,3000.0,3.70220684453
286,2_32_1,32,1.0,1867.04282737,2_ND,test,02,5,9.0,10101,kill,0.0,2900.0,1.68092866563
287,2_32_1,32,1.0,1870.33983026,2_ND,test,02,5,10.0,11100,kill,0.0,2800.0,1.34861331342
288,2_32_1,32,1.0,1876.52766638,2_ND,test,02,5,11.0,01101,kill,0.0,2700.0,4.22104174043
289,2_32_1,32,1.0,1885.23117697,2_ND,test,02,5,12.0,11001,kill,0.0,2600.0,6.77002286128
290,2_32_1,32,1.0,1889.82510321,2_ND,test,02,5,13.0,01110,ignore,1.0,2700.0,2.67127163611
291,2_32_1,32,1.0,1894.70038737,2_ND,test,02,5,14.0,01111,ignore,1.0,2800.0,2.9142429479
292,2_32_1,32,1.0,1903.90394896,2_ND,test,02,5,15.0,11100,ignore,1.0,2900.0,7.26003195704
293,2_32_1,32,1.0,1911.51366513,2_ND,test,02,5,16.0,10001,kill,0.0,2800.0,5.62698304263
294,2_32_1,32,1.0,1916.46703781,2_ND,test,02,5,17.0,01000,kill,0.0,2700.0,3.02275479676
295,2_32_1,32,1.0,1922.24857181,2_ND,test,02,5,18.0,11110,kill,1.0,2800.0,3.80286317615
296,2_32_1,32,1.0,1926.73318343,2_ND,test,02,5,19.0,10010,kill,1.0,2900.0,2.52710992143
297,2_32_1,32,1.0,1930.89584071,2_ND,test,02,5,20.0,00011,ignore,0.0,2800.0,2.23356701356
298,2_32_1,32,1.0,1939.78694912,2_ND,test,02,5,21.0,11000,ignore,1.0,2900.0,6.91853873845
299,2_32_1,32,1.0,1944.02148665,2_ND,test,02,5,22.0,00110,ignore,0.0,2800.0,2.30942456805
300,2_32_1,32,1.0,1952.50621629,2_ND,test,02,5,23.0,11111,ignore,0.0,2700.0,6.47710761222
301,2_32_1,32,1.0,1960.81912939,2_ND,test,02,5,24.0,00001,ignore,1.0,2800.0,6.34060641399
302,2_32_1,32,1.0,1968.2882115,2_ND,test,02,5,25.0,10000,ignore,1.0,2900.0,5.53069819265
303,2_32_1,32,1.0,1974.16347706,2_ND,test,02,5,26.0,01010,kill,0.0,2800.0,3.90489605944
304,2_32_1,32,1.0,1979.66374518,2_ND,test,02,5,27.0,10110,kill,1.0,2900.0,3.57876781307
305,2_32_1,32,1.0,1992.72996752,2_ND,test,02,5,28.0,01100,ignore,1.0,3000.0,11.1213443765
306,2_32_1,32,1.0,1997.19890658,2_ND,test,02,5,29.0,01011,kill,0.0,2900.0,2.50810151331
307,2_32_1,32,1.0,2001.71479787,2_ND,test,02,5,30.0,00111,ignore,0.0,2800.0,2.59967234735
308,2_32_1,32,1.0,2007.01187099,2_ND,test,02,5,31.0,11010,kill,1.0,2900.0,3.383297797
309,2_32_1,32,1.0,2012.02774688,2_ND,test,02,5,32.0,00101,ignore,1.0,3000.0,3.04488161399
310,2_32_1,32,1.0,2017.44987389,2_ND,test,02,5,33.0,11011,ignore,0.0,2900.0,3.47339457898
311,2_32_1,32,1.0,2024.2783399,2_ND,test,02,5,34.0,00010,kill,1.0,3000.0,4.85070828907
312,2_32_1,32,1.0,2036.81016865,2_ND,test,02,5,35.0,10101,kill,0.0,2900.0,10.5978124631
313,2_32_1,32,1.0,2041.65410419,2_ND,test,02,5,36.0,11101,ignore,1.0,3000.0,2.90295374889
314,2_32_1,32,1.0,2046.15430496,2_ND,test,02,5,37.0,01001,ignore,1.0,3100.0,2.54413689056
315,2_32_1,32,1.0,2053.65467444,2_ND,test,02,5,38.0,00100,kill,0.0,3000.0,5.56102081634
316,2_32_1,32,1.0,2064.90536592,2_ND,test,02,5,39.0,10011,ignore,0.0,2900.0,9.28593883903
317,2_32_1,32,1.0,2070.85877613,2_ND,test,02,5,40.0,00000,ignore,1.0,3000.0,4.02100844918
318,2_32_1,32,1.0,2077.68722033,2_ND,test,02,5,41.0,10100,ignore,1.0,3100.0,4.83925808612
319,2_32_1,32,1.0,2084.20316228,2_ND,test,02,5,42.0,10111,ignore,0.0,3000.0,4.54546757855
320,2_32_1,32,1.0,2089.20341277,2_ND,test,02,5,43.0,11111,kill,1.0,3100.0,3.07345500357
321,2_32_1,32,1.0,2092.5316376,2_ND,test,02,5,44.0,00011,kill,1.0,3200.0,1.36398854883
322,2_32_1,32,1.0,2098.25067064,2_ND,test,02,5,45.0,00000,ignore,1.0,3300.0,3.78989049166
323,2_32_1,32,1.0,2106.31353787,2_ND,test,02,5,46.0,11101,ignore,1.0,3400.0,6.07361408316
324,2_32_1,32,1.0,2112.54821747,2_ND,test,02,5,47.0,01100,ignore,1.0,3500.0,4.28250002566
325,2_32_1,32,1.0,2117.7984872,2_ND,test,02,5,48.0,00100,ignore,1.0,3600.0,3.30065338095
326,2_32_1,32,1.0,2121.48611517,2_ND,test,02,5,49.0,00111,kill,1.0,3700.0,1.71778221233
327,2_32_1,32,1.0,2124.19539593,2_ND,test,02,5,50.0,01110,kill,0.0,3600.0,0.801515489733
328,2_32_1,32,1.0,2130.18002486,2_ND,test,02,5,51.0,11010,kill,1.0,3700.0,4.04960493095
329,2_32_1,32,1.0,2133.69583917,2_ND,test,02,5,52.0,01101,ignore,1.0,3800.0,1.54851542815
330,2_32_1,32,1.0,2136.66477984,2_ND,test,02,5,53.0,11001,ignore,1.0,3900.0,1.05502967348
331,2_32_1,32,1.0,2141.61498504,2_ND,test,02,5,54.0,10010,kill,1.0,4000.0,3.02913722411
332,2_32_1,32,1.0,2145.33389556,2_ND,test,02,5,55.0,11011,kill,1.0,4100.0,1.77040612764
333,2_32_1,32,1.0,2148.39653572,2_ND,test,02,5,56.0,10101,ignore,1.0,4200.0,1.13930722119
334,2_32_1,32,1.0,2153.55302835,2_ND,test,02,5,57.0,01111,kill,0.0,4100.0,3.21352490879
335,2_32_1,32,1.0,2157.86571758,2_ND,test,02,5,58.0,10011,kill,1.0,4200.0,2.40527259059
336,2_32_1,32,1.0,2161.38149981,2_ND,test,02,5,59.0,00101,ignore,1.0,4300.0,1.51353651903
337,2_32_1,32,1.0,2164.54105601,2_ND,test,02,5,60.0,01000,ignore,1.0,4400.0,1.21220480472
338,2_32_1,32,1.0,2167.60368654,2_ND,test,02,5,61.0,10100,ignore,1.0,4500.0,1.1322018797
339,2_32_1,32,1.0,2173.10390111,2_ND,test,02,5,62.0,10111,ignore,0.0,4400.0,3.53353404304
