,unique_id,pair_id,sbj_id,wall_time,condition,block,rule_id,rule_num,trial,stimulus,choice,correct,points,reaction_time
0,2_31_1,31,1.0,36.9464434164,2_ND,training,01,1_A,1.0,01010,ignore,0.0,0.0,5.70690450349
1,2_31_1,31,1.0,46.5250082106,2_ND,training,01,1_A,2.0,10000,ignore,1.0,100.0,7.42443462598
2,2_31_1,31,1.0,51.1970890358,2_ND,training,01,1_A,3.0,01100,kill,0.0,0.0,2.53777178236
3,2_31_1,31,1.0,60.4943841054,2_ND,training,01,1_A,4.0,11111,kill,1.0,100.0,7.15522640619
4,2_31_1,31,1.0,67.9166291418,2_ND,training,01,1_A,5.0,10111,kill,1.0,200.0,5.2713808109
5,2_31_1,31,1.0,71.9168119551,2_ND,training,01,1_A,6.0,10110,kill,1.0,300.0,1.84852639695
6,2_31_1,31,1.0,79.9327712307,2_ND,training,01,1_A,7.0,00011,ignore,0.0,200.0,5.8781017314
7,2_31_1,31,1.0,83.3235666159,2_ND,training,01,1_A,8.0,00110,kill,1.0,300.0,1.24598612672
8,2_31_1,31,1.0,87.4487738042,2_ND,training,01,1_A,9.0,01011,kill,1.0,400.0,1.98852285615
9,2_31_1,31,1.0,91.4176968353,2_ND,training,01,1_A,10.0,00000,ignore,1.0,500.0,1.80322527467
10,2_31_1,31,1.0,95.0741025473,2_ND,training,01,1_A,11.0,10100,kill,0.0,400.0,1.4810958275
11,2_31_1,31,1.0,98.4492699658,2_ND,training,01,1_A,12.0,10001,ignore,1.0,500.0,1.21193988587
12,2_31_1,31,1.0,105.559024624,2_ND,training,01,1_A,13.0,11101,kill,0.0,400.0,4.97121396975
13,2_31_1,31,1.0,111.199844064,2_ND,training,01,1_A,14.0,00101,kill,0.0,300.0,3.47185253321
14,2_31_1,31,1.0,114.293741757,2_ND,training,01,1_A,15.0,01000,ignore,1.0,400.0,0.955099463235
15,2_31_1,31,1.0,118.543960492,2_ND,training,01,1_A,16.0,10101,kill,0.0,300.0,2.11735135038
16,2_31_1,31,1.0,122.606621816,2_ND,training,01,1_A,17.0,11100,ignore,1.0,400.0,1.96917447953
17,2_31_1,31,1.0,125.794262615,2_ND,training,01,1_A,18.0,11010,kill,0.0,300.0,1.12425367294
18,2_31_1,31,1.0,129.200697833,2_ND,training,01,1_A,19.0,00010,kill,1.0,400.0,1.29712733039
19,2_31_1,31,1.0,132.700858196,2_ND,training,01,1_A,20.0,01001,ignore,1.0,500.0,1.40627998779
20,2_31_1,31,1.0,136.060398931,2_ND,training,01,1_A,21.0,11110,kill,1.0,600.0,1.28070204135
21,2_31_1,31,1.0,140.201190146,2_ND,training,01,1_A,22.0,00111,ignore,0.0,500.0,2.01315293194
22,2_31_1,31,1.0,143.295084312,2_ND,training,01,1_A,23.0,11001,ignore,1.0,600.0,1.03918585885
23,2_31_1,31,1.0,147.420267446,2_ND,training,01,1_A,24.0,00001,kill,0.0,500.0,2.00663355502
24,2_31_1,31,1.0,151.26418278,2_ND,training,01,1_A,25.0,10011,kill,0.0,400.0,1.75909993021
25,2_31_1,31,1.0,154.82688644,2_ND,training,01,1_A,26.0,01111,kill,1.0,500.0,1.46682132026
26,2_31_1,31,1.0,158.233255269,2_ND,training,01,1_A,27.0,11000,ignore,1.0,600.0,1.29679794582
27,2_31_1,31,1.0,161.561563483,2_ND,training,01,1_A,28.0,00100,kill,0.0,500.0,1.22925165879
28,2_31_1,31,1.0,164.74922577,2_ND,training,01,1_A,29.0,11011,kill,0.0,400.0,1.07714205808
29,2_31_1,31,1.0,169.874487802,2_ND,training,01,1_A,30.0,01101,kill,0.0,300.0,3.03658542061
30,2_31_1,31,1.0,172.999613847,2_ND,training,01,1_A,31.0,10010,kill,0.0,200.0,1.06845105223
31,2_31_1,31,1.0,175.921621547,2_ND,training,01,1_A,32.0,01110,kill,1.0,300.0,0.860645311514
32,2_31_1,31,1.0,178.815790638,2_ND,training,01,1_A,33.0,11111,kill,1.0,400.0,0.829453843825
33,2_31_1,31,1.0,188.269296098,2_ND,training,01,1_A,34.0,11100,ignore,1.0,500.0,7.39958421212
34,2_31_1,31,1.0,192.25391958,2_ND,training,01,1_A,35.0,00011,ignore,0.0,400.0,1.90914726922
35,2_31_1,31,1.0,195.675885586,2_ND,training,01,1_A,36.0,01001,ignore,1.0,500.0,1.36381343299
36,2_31_1,31,1.0,199.582381742,2_ND,training,01,1_A,37.0,00010,ignore,0.0,400.0,1.83161777535
37,2_31_1,31,1.0,202.629400026,2_ND,training,01,1_A,38.0,00110,kill,1.0,500.0,0.984404105793
38,2_31_1,31,1.0,206.910816001,2_ND,training,01,1_A,39.0,10100,ignore,1.0,600.0,2.22768138923
39,2_31_1,31,1.0,210.473502022,2_ND,training,01,1_A,40.0,00101,kill,0.0,500.0,1.48476652503
40,2_31_1,31,1.0,213.473634802,2_ND,training,01,1_A,41.0,00100,kill,0.0,400.0,0.956640226098
41,2_31_1,31,1.0,216.864412227,2_ND,training,01,1_A,42.0,00000,ignore,1.0,500.0,1.32944935367
42,2_31_1,31,1.0,224.489884334,2_ND,training,01,1_A,43.0,01101,ignore,1.0,600.0,5.56715468182
43,2_31_1,31,1.0,227.802491777,2_ND,training,01,1_A,44.0,11101,kill,0.0,500.0,1.26481845683
44,2_31_1,31,1.0,233.849657594,2_ND,training,01,1_A,45.0,10000,ignore,1.0,600.0,4.02618655418
45,2_31_1,31,1.0,240.709342013,2_ND,training,01,1_A,46.0,01011,ignore,0.0,500.0,4.81028860118
46,2_31_1,31,1.0,243.709522582,2_ND,training,01,1_A,47.0,10101,ignore,1.0,600.0,0.946954972777
47,2_31_1,31,1.0,246.819019056,2_ND,training,01,1_A,48.0,01111,kill,1.0,700.0,1.05651944107
48,2_31_1,31,1.0,249.85038147,2_ND,training,01,1_A,49.0,10010,kill,0.0,600.0,1.0104472959
49,2_31_1,31,1.0,252.70993792,2_ND,training,01,1_A,50.0,10110,kill,1.0,700.0,0.805862596282
50,2_31_1,31,1.0,255.678774677,2_ND,training,01,1_A,51.0,11010,ignore,1.0,800.0,0.938360505155
51,2_31_1,31,1.0,258.963342096,2_ND,training,01,1_A,52.0,10001,ignore,1.0,900.0,1.25623778038
52,2_31_1,31,1.0,262.275980649,2_ND,training,01,1_A,53.0,01010,kill,1.0,1000.0,1.29097646648
53,2_31_1,31,1.0,265.604263526,2_ND,training,01,1_A,54.0,11001,ignore,1.0,1100.0,1.30023451411
54,2_31_1,31,1.0,269.401321259,2_ND,training,01,1_A,55.0,10011,kill,0.0,1000.0,1.75548119012
55,2_31_1,31,1.0,272.385826072,2_ND,training,01,1_A,56.0,01110,kill,1.0,1100.0,0.960994388596
56,2_31_1,31,1.0,276.105564065,2_ND,training,01,1_A,57.0,01100,ignore,1.0,1200.0,1.68717382268
57,2_31_1,31,1.0,279.30883251,2_ND,training,01,1_A,58.0,00001,ignore,1.0,1300.0,1.15874508008
58,2_31_1,31,1.0,282.324602558,2_ND,training,01,1_A,59.0,11110,kill,1.0,1400.0,1.00546258807
59,2_31_1,31,1.0,285.559119559,2_ND,training,01,1_A,60.0,01000,ignore,1.0,1500.0,1.17608603897
60,2_31_1,31,1.0,288.809286015,2_ND,training,01,1_A,61.0,11011,ignore,1.0,1600.0,1.22951112531
61,2_31_1,31,1.0,291.74694766,2_ND,training,01,1_A,62.0,10111,kill,1.0,1700.0,0.863527025571
62,2_31_1,31,1.0,294.575144904,2_ND,training,01,1_A,63.0,11000,ignore,1.0,1800.0,0.809731501865
63,2_31_1,31,1.0,298.059727332,2_ND,training,01,1_A,64.0,00111,kill,1.0,1900.0,1.43718793458
64,2_31_1,31,1.0,300.841065692,2_ND,training,01,1_A,65.0,11011,ignore,1.0,2000.0,0.743070736539
65,2_31_1,31,1.0,304.325636254,2_ND,training,01,1_A,66.0,11000,ignore,1.0,2100.0,1.43740923483
66,2_31_1,31,1.0,307.388237603,2_ND,training,01,1_A,67.0,01100,kill,0.0,2000.0,1.03250002566
67,2_31_1,31,1.0,310.263346329,2_ND,training,01,1_A,68.0,11010,ignore,1.0,2100.0,0.859175749598
68,2_31_1,31,1.0,313.232267436,2_ND,training,01,1_A,69.0,00101,kill,0.0,2000.0,0.916791428689
69,2_31_1,31,1.0,316.279298228,2_ND,training,01,1_A,70.0,10000,ignore,1.0,2100.0,1.01241301938
70,2_31_1,31,1.0,319.21690535,2_ND,training,01,1_A,71.0,01011,ignore,0.0,2000.0,0.912579988813
71,2_31_1,31,1.0,322.123271934,2_ND,training,01,1_A,72.0,00110,kill,1.0,2100.0,0.881033157833
72,2_31_1,31,1.0,324.982830308,2_ND,training,01,1_A,73.0,00000,ignore,1.0,2200.0,0.809177930528
73,2_31_1,31,1.0,327.951711324,2_ND,training,01,1_A,74.0,01110,kill,1.0,2300.0,0.933231791801
74,2_31_1,31,1.0,330.82683769,2_ND,training,01,1_A,75.0,01001,ignore,1.0,2400.0,0.860368525845
75,2_31_1,31,1.0,334.373886443,2_ND,training,01,1_A,76.0,00001,ignore,1.0,2500.0,1.51055409733
76,2_31_1,31,1.0,337.467776439,2_ND,training,01,1_A,77.0,11001,ignore,1.0,2600.0,1.10358775806
77,2_31_1,31,1.0,340.342904409,2_ND,training,01,1_A,78.0,11100,kill,0.0,2500.0,0.83963654161
78,2_31_1,31,1.0,343.874333213,2_ND,training,01,1_A,79.0,01000,ignore,1.0,2600.0,1.49861158151
79,2_31_1,31,1.0,347.421377155,2_ND,training,01,1_A,80.0,10011,ignore,1.0,2700.0,1.50640263302
80,2_31_1,31,1.0,350.780879723,2_ND,training,01,1_A,81.0,10100,ignore,1.0,2800.0,1.34602345911
81,2_31_1,31,1.0,353.874795057,2_ND,training,01,1_A,82.0,01101,kill,0.0,2700.0,1.08982159993
82,2_31_1,31,1.0,356.921809492,2_ND,training,01,1_A,83.0,10111,kill,1.0,2800.0,1.01867613703
83,2_31_1,31,1.0,360.984491664,2_ND,training,01,1_A,84.0,11110,kill,1.0,2900.0,2.04614911916
84,2_31_1,31,1.0,364.078386792,2_ND,training,01,1_A,85.0,00111,kill,1.0,3000.0,1.08130186123
85,2_31_1,31,1.0,366.953495197,2_ND,training,01,1_A,86.0,10110,kill,1.0,3100.0,0.850728815473
86,2_31_1,31,1.0,369.938019254,2_ND,training,01,1_A,87.0,00010,ignore,0.0,3000.0,0.95697570444
87,2_31_1,31,1.0,372.797525671,2_ND,training,01,1_A,88.0,00011,kill,1.0,3100.0,0.835299698262
88,2_31_1,31,1.0,376.266415988,2_ND,training,01,1_A,89.0,00100,ignore,1.0,3200.0,1.43028240477
89,2_31_1,31,1.0,379.063461534,2_ND,training,01,1_A,90.0,01111,kill,1.0,3300.0,0.78623326457
90,2_31_1,31,1.0,382.329213942,2_ND,training,01,1_A,91.0,11111,kill,1.0,3400.0,1.23907482386
91,2_31_1,31,1.0,385.657479499,2_ND,training,01,1_A,92.0,10010,ignore,1.0,3500.0,1.32218397042
92,2_31_1,31,1.0,388.720155257,2_ND,training,01,1_A,93.0,01010,kill,1.0,3600.0,1.0676203745
93,2_31_1,31,1.0,392.110946793,2_ND,training,01,1_A,94.0,11101,ignore,1.0,3700.0,1.37341273201
94,2_31_1,31,1.0,395.12668124,2_ND,training,01,1_A,95.0,10101,ignore,1.0,3800.0,1.00361072196
95,2_31_1,31,1.0,398.048764311,2_ND,training,01,1_A,96.0,10001,kill,0.0,3700.0,0.911970611328
96,2_31_1,31,1.0,400.986311457,2_ND,training,01,1_A,97.0,10100,ignore,1.0,3800.0,0.911816663331
97,2_31_1,31,1.0,404.627105239,2_ND,training,01,1_A,98.0,00011,kill,1.0,3900.0,1.61682953082
98,2_31_1,31,1.0,409.33044296,2_ND,training,01,1_A,99.0,01110,kill,1.0,4000.0,2.69246546433
99,2_31_1,31,1.0,413.127575101,2_ND,training,01,1_A,100.0,01001,ignore,1.0,4100.0,1.77995058269
100,2_31_1,31,1.0,416.205870486,2_ND,training,01,1_A,101.0,00110,kill,1.0,4200.0,1.01599808335
101,2_31_1,31,1.0,419.471622253,2_ND,training,01,1_A,102.0,10101,ignore,1.0,4300.0,1.23547147857
102,2_31_1,31,1.0,422.837545735,2_ND,training,01,1_A,103.0,11001,ignore,1.0,4400.0,1.3507265704
103,2_31_1,31,1.0,427.822153502,2_ND,training,01,1_A,104.0,11010,ignore,1.0,4500.0,2.98996483571
104,2_31_1,31,1.0,430.837988657,2_ND,training,01,1_A,105.0,01111,kill,1.0,4600.0,1.00234097172
105,2_31_1,31,1.0,433.747195901,2_ND,training,01,1_A,106.0,10000,ignore,1.0,4700.0,0.886777663172
106,2_31_1,31,1.0,436.606704564,2_ND,training,01,1_A,107.0,00001,kill,0.0,4600.0,0.798804722098
107,2_31_1,31,1.0,439.419343758,2_ND,training,01,1_A,108.0,11011,ignore,1.0,4700.0,0.80361655916
108,2_31_1,31,1.0,442.153838629,2_ND,training,01,1_A,109.0,00010,kill,1.0,4800.0,0.687446759651
109,2_31_1,31,1.0,445.107100659,2_ND,training,01,1_A,110.0,11100,ignore,1.0,4900.0,0.937152975558
110,2_31_1,31,1.0,447.904130489,2_ND,training,01,1_A,111.0,11110,kill,1.0,5000.0,0.802315698591
111,2_31_1,31,1.0,451.279282513,2_ND,training,01,1_A,112.0,01101,kill,0.0,4900.0,1.31706584099
112,2_31_1,31,1.0,454.248146851,2_ND,training,01,1_A,113.0,00100,ignore,1.0,5000.0,0.932310669623
113,2_31_1,31,1.0,457.342062505,2_ND,training,01,1_A,114.0,00101,kill,0.0,4900.0,1.04246110247
114,2_31_1,31,1.0,460.154677004,2_ND,training,01,1_A,115.0,10010,ignore,1.0,5000.0,0.78136947006
115,2_31_1,31,1.0,463.014180214,2_ND,training,01,1_A,116.0,11000,ignore,1.0,5100.0,0.851450767431
116,2_31_1,31,1.0,465.90490055,2_ND,training,01,1_A,117.0,01010,kill,1.0,5200.0,0.894406427842
117,2_31_1,31,1.0,469.108197538,2_ND,training,01,1_A,118.0,10111,ignore,0.0,5100.0,1.20075748829
118,2_31_1,31,1.0,471.920832243,2_ND,training,01,1_A,119.0,00111,kill,1.0,5200.0,0.748044860446
119,2_31_1,31,1.0,474.749108705,2_ND,training,01,1_A,120.0,00000,kill,0.0,5100.0,0.793765811742
120,2_31_1,31,1.0,477.452349888,2_ND,training,01,1_A,121.0,01100,kill,0.0,5000.0,0.69556751646
121,2_31_1,31,1.0,480.108713264,2_ND,training,01,1_A,122.0,11101,ignore,1.0,5100.0,0.649729179816
122,2_31_1,31,1.0,482.827577923,2_ND,training,01,1_A,123.0,11111,kill,1.0,5200.0,0.742357444155
123,2_31_1,31,1.0,486.077949002,2_ND,training,01,1_A,124.0,10110,kill,1.0,5300.0,1.23806486086
124,2_31_1,31,1.0,489.625001604,2_ND,training,01,1_A,125.0,01000,ignore,1.0,5400.0,1.52918661576
125,2_31_1,31,1.0,492.593882941,2_ND,training,01,1_A,126.0,10001,ignore,1.0,5500.0,0.993633929625
126,2_31_1,31,1.0,495.79717159,2_ND,training,01,1_A,127.0,10011,ignore,1.0,5600.0,1.21669655824
127,2_31_1,31,1.0,498.672257865,2_ND,training,01,1_A,128.0,01011,kill,1.0,5700.0,0.869235288986
128,2_31_1,31,1.0,501.953679614,2_ND,training,01,1_A,129.0,10010,ignore,1.0,5800.0,1.28819129065
129,2_31_1,31,1.0,505.063198218,2_ND,training,01,1_A,130.0,10101,ignore,1.0,5900.0,1.08931389227
130,2_31_1,31,1.0,508.235229973,2_ND,training,01,1_A,131.0,11100,ignore,1.0,6000.0,1.1802275608
131,2_31_1,31,1.0,510.90724088,2_ND,training,01,1_A,132.0,01111,kill,1.0,6100.0,0.656908929497
132,2_31_1,31,1.0,513.735487836,2_ND,training,01,1_A,133.0,10011,ignore,1.0,6200.0,0.812686661945
133,2_31_1,31,1.0,516.626249224,2_ND,training,01,1_A,134.0,00100,kill,0.0,6100.0,0.872997393147
134,2_31_1,31,1.0,519.298224851,2_ND,training,01,1_A,135.0,10111,ignore,0.0,6000.0,0.667333133201
135,2_31_1,31,1.0,522.189021199,2_ND,training,01,1_A,136.0,01110,kill,1.0,6100.0,0.919463067876
136,2_31_1,31,1.0,525.079762061,2_ND,training,01,1_A,137.0,11000,ignore,1.0,6200.0,0.871943811547
137,2_31_1,31,1.0,528.767442629,2_ND,training,01,1_A,138.0,11011,ignore,1.0,6300.0,1.67421300501
138,2_31_1,31,1.0,531.626921463,2_ND,training,01,1_A,139.0,01001,kill,0.0,6200.0,0.868544447352
139,2_31_1,31,1.0,534.573455645,2_ND,training,01,1_A,140.0,00010,kill,1.0,6300.0,0.934774479014
140,2_31_1,31,1.0,537.495475533,2_ND,training,01,1_A,141.0,01101,ignore,1.0,6400.0,0.935623438069
141,2_31_1,31,1.0,540.995634291,2_ND,training,01,1_A,142.0,01011,kill,1.0,6500.0,1.48771238409
142,2_31_1,31,1.0,544.230191062,2_ND,training,01,1_A,143.0,00011,kill,1.0,6600.0,1.22480384459
143,2_31_1,31,1.0,547.230312617,2_ND,training,01,1_A,144.0,00000,ignore,1.0,6700.0,1.01456572553
144,2_31_1,31,1.0,550.32420101,2_ND,training,01,1_A,145.0,00111,ignore,0.0,6600.0,1.10710899775
145,2_31_1,31,1.0,553.168112816,2_ND,training,01,1_A,146.0,10100,ignore,1.0,6700.0,0.836434423285
146,2_31_1,31,1.0,556.340098386,2_ND,training,01,1_A,147.0,01000,ignore,1.0,6800.0,1.17682402718
147,2_31_1,31,1.0,559.402747523,2_ND,training,01,1_A,148.0,10000,ignore,1.0,6900.0,1.0633572979
148,2_31_1,31,1.0,562.543543229,2_ND,training,01,1_A,149.0,01100,ignore,1.0,7000.0,1.14722078965
149,2_31_1,31,1.0,565.537547275,2_ND,training,01,1_A,150.0,10001,ignore,1.0,7100.0,0.97713102514
150,2_31_1,31,1.0,569.068993077,2_ND,training,01,1_A,151.0,11110,kill,1.0,7200.0,1.53687824253
151,2_31_1,31,1.0,572.178482175,2_ND,training,01,1_A,152.0,00001,ignore,1.0,7300.0,1.12820917427
152,2_31_1,31,1.0,577.4755893,2_ND,training,01,1_A,153.0,11111,kill,1.0,7400.0,3.30570896901
153,2_31_1,31,1.0,580.803908419,2_ND,training,01,1_A,154.0,01010,kill,1.0,7500.0,1.37851450447
154,2_31_1,31,1.0,583.616543444,2_ND,training,01,1_A,155.0,11101,ignore,1.0,7600.0,0.800390707186
155,2_31_1,31,1.0,587.257331132,2_ND,training,01,1_A,156.0,11010,ignore,1.0,7700.0,1.65460740695
156,2_31_1,31,1.0,590.148085144,2_ND,training,01,1_A,157.0,11001,ignore,1.0,7800.0,0.906465366832
157,2_31_1,31,1.0,593.195077449,2_ND,training,01,1_A,158.0,10110,kill,1.0,7900.0,1.01856997706
158,2_31_1,31,1.0,596.085848459,2_ND,training,01,1_A,159.0,00110,kill,1.0,8000.0,0.903968522766
159,2_31_1,31,1.0,599.085961033,2_ND,training,01,1_A,160.0,00101,ignore,1.0,8100.0,1.00151702921
160,2_31_1,31,1.0,602.570502409,2_ND,training,01,1_A,161.0,00010,kill,1.0,8200.0,1.49515384536
161,2_31_1,31,1.0,605.773772457,2_ND,training,01,1_A,162.0,01001,ignore,1.0,8300.0,1.23406766528
162,2_31_1,31,1.0,609.055187149,2_ND,training,01,1_A,163.0,11011,ignore,1.0,8400.0,1.31946871264
163,2_31_1,31,1.0,611.930329231,2_ND,training,01,1_A,164.0,10010,ignore,1.0,8500.0,0.888720615176
164,2_31_1,31,1.0,615.649253865,2_ND,training,01,1_A,165.0,10100,ignore,1.0,8600.0,1.72315756321
165,2_31_1,31,1.0,618.852512046,2_ND,training,01,1_A,166.0,10001,kill,0.0,8500.0,1.20340282802
166,2_31_1,31,1.0,621.587045725,2_ND,training,01,1_A,167.0,10000,ignore,1.0,8600.0,0.770208881773
167,2_31_1,31,1.0,624.46214098,2_ND,training,01,1_A,168.0,01000,kill,0.0,8500.0,0.90656094288
168,2_31_1,31,1.0,627.227910708,2_ND,training,01,1_A,169.0,01101,ignore,1.0,8600.0,0.771864784909
169,2_31_1,31,1.0,630.103038998,2_ND,training,01,1_A,170.0,01011,kill,1.0,8700.0,0.883801014517
170,2_31_1,31,1.0,633.431335666,2_ND,training,01,1_A,171.0,00000,ignore,1.0,8800.0,1.31741286543
171,2_31_1,31,1.0,636.665840479,2_ND,training,01,1_A,172.0,01100,ignore,1.0,8900.0,1.27913594121
172,2_31_1,31,1.0,639.57224138,2_ND,training,01,1_A,173.0,00001,ignore,1.0,9000.0,0.881375692124
173,2_31_1,31,1.0,642.525474545,2_ND,training,01,1_A,174.0,00011,kill,1.0,9100.0,0.94746717059
174,2_31_1,31,1.0,645.869378332,2_ND,training,01,1_A,175.0,11100,ignore,1.0,9200.0,1.37171770043
175,2_31_1,31,1.0,648.900770253,2_ND,training,01,1_A,176.0,01111,kill,1.0,9300.0,1.03479705805
176,2_31_1,31,1.0,651.760289178,2_ND,training,01,1_A,177.0,11001,ignore,1.0,9400.0,0.904287323409
177,2_31_1,31,1.0,654.916675326,2_ND,training,01,1_A,178.0,11101,ignore,1.0,9500.0,1.15387679542
178,2_31_1,31,1.0,657.823085849,2_ND,training,01,1_A,179.0,11111,kill,1.0,9600.0,0.914076491628
179,2_31_1,31,1.0,661.44823242,2_ND,training,01,1_A,180.0,11010,ignore,1.0,9700.0,1.65951610296
180,2_31_1,31,1.0,664.715224431,2_ND,training,01,1_A,181.0,01110,kill,1.0,9800.0,1.27130415762
181,2_31_1,31,1.0,668.621662536,2_ND,training,01,1_A,182.0,01010,kill,1.0,9900.0,1.94625001924
182,2_31_1,31,1.0,671.9655381,2_ND,training,01,1_A,183.0,00111,kill,1.0,10000.0,1.33767434611
183,2_31_1,31,1.0,674.950082683,2_ND,training,01,1_A,184.0,10101,ignore,1.0,10100.0,0.985747302061
184,2_31_1,31,1.0,678.950260685,2_ND,training,01,1_A,185.0,00110,kill,1.0,10200.0,2.01643683514
185,2_31_1,31,1.0,682.809820343,2_ND,training,01,1_A,186.0,10111,kill,1.0,10300.0,1.87720690867
186,2_31_1,31,1.0,685.559943501,2_ND,training,01,1_A,187.0,10011,ignore,1.0,10400.0,0.759396600828
187,2_31_1,31,1.0,688.763179873,2_ND,training,01,1_A,188.0,00100,kill,0.0,10300.0,1.19917471045
188,2_31_1,31,1.0,691.57582003,2_ND,training,01,1_A,189.0,00101,ignore,1.0,10400.0,0.812372992903
189,2_31_1,31,1.0,694.669746909,2_ND,training,01,1_A,190.0,10110,kill,1.0,10500.0,1.12275460433
190,2_31_1,31,1.0,697.622986168,2_ND,training,01,1_A,191.0,11000,ignore,1.0,10600.0,0.955467976251
191,2_31_1,31,1.0,700.982550957,2_ND,training,01,1_A,192.0,11110,kill,1.0,10700.0,1.37978425471
192,2_31_1,31,1.0,704.03352827,2_ND,training,01,1_A,193.0,00011,kill,1.0,10800.0,1.09101950778
193,2_31_1,31,1.0,707.205577985,2_ND,training,01,1_A,194.0,00000,ignore,1.0,10900.0,1.17315974414
194,2_31_1,31,1.0,710.299448096,2_ND,training,01,1_A,195.0,10000,ignore,1.0,11000.0,1.13395816976
195,2_31_1,31,1.0,713.362069651,2_ND,training,01,1_A,196.0,01011,kill,1.0,11100.0,1.05313290587
196,2_31_1,31,1.0,716.971640855,2_ND,training,01,1_A,197.0,10101,ignore,1.0,11200.0,1.60065184147
197,2_31_1,31,1.0,719.721756957,2_ND,training,01,1_A,198.0,00010,kill,1.0,11300.0,0.766305017165
198,2_31_1,31,1.0,723.690690572,2_ND,training,01,1_A,199.0,11111,kill,1.0,11400.0,1.9818453618
199,2_31_1,31,1.0,726.690821749,2_ND,training,01,1_A,200.0,00101,ignore,1.0,11500.0,1.02788190649
200,2_31_1,31,1.0,729.784741573,2_ND,training,01,1_A,201.0,10111,kill,1.0,11600.0,1.10555027428
201,2_31_1,31,1.0,733.003626117,2_ND,training,01,1_A,202.0,01010,kill,1.0,11700.0,1.22700273514
202,2_31_1,31,1.0,735.785604323,2_ND,training,01,1_A,203.0,10001,ignore,1.0,11800.0,0.808448922621
203,2_31_1,31,1.0,738.692002017,2_ND,training,01,1_A,204.0,11110,kill,1.0,11900.0,0.943181643241
204,2_31_1,31,1.0,741.707772385,2_ND,training,01,1_A,205.0,01000,ignore,1.0,12000.0,1.01559300768
205,2_31_1,31,1.0,744.707874055,2_ND,training,01,1_A,206.0,10110,kill,1.0,12100.0,1.02891239589
206,2_31_1,31,1.0,747.723675213,2_ND,training,01,1_A,207.0,11101,ignore,1.0,12200.0,1.03440032124
207,2_31_1,31,1.0,750.630056871,2_ND,training,01,1_A,208.0,10010,ignore,1.0,12300.0,0.935866868339
208,2_31_1,31,1.0,753.458302544,2_ND,training,01,1_A,209.0,00111,kill,1.0,12400.0,0.823454041391
209,2_31_1,31,1.0,756.380315375,2_ND,training,01,1_A,210.0,01100,ignore,1.0,12500.0,0.933247507325
210,2_31_1,31,1.0,759.536691901,2_ND,training,01,1_A,211.0,11011,ignore,1.0,12600.0,1.19095100092
211,2_31_1,31,1.0,762.302633537,2_ND,training,01,1_A,212.0,01110,kill,1.0,12700.0,0.789418063745
212,2_31_1,31,1.0,765.00587023,2_ND,training,01,1_A,213.0,11000,ignore,1.0,12800.0,0.749749193056
213,2_31_1,31,1.0,767.818486653,2_ND,training,01,1_A,214.0,01111,kill,1.0,12900.0,0.821962028727
214,2_31_1,31,1.0,770.849905514,2_ND,training,01,1_A,215.0,01001,ignore,1.0,13000.0,1.04330492993
215,2_31_1,31,1.0,773.725010391,2_ND,training,01,1_A,216.0,01101,ignore,1.0,13100.0,0.895459688717
216,2_31_1,31,1.0,776.600145737,2_ND,training,01,1_A,217.0,10100,ignore,1.0,13200.0,0.890222891041
217,2_31_1,31,1.0,779.365890769,2_ND,training,01,1_A,218.0,11100,ignore,1.0,13300.0,0.814915379918
218,2_31_1,31,1.0,782.1941621,2_ND,training,01,1_A,219.0,00001,ignore,1.0,13400.0,0.861180601526
219,2_31_1,31,1.0,785.131870892,2_ND,training,01,1_A,220.0,10011,ignore,1.0,13500.0,0.960857118299
220,2_31_1,31,1.0,787.944508803,2_ND,training,01,1_A,221.0,00100,ignore,1.0,13600.0,0.816983093944
221,2_31_1,31,1.0,790.819616567,2_ND,training,01,1_A,222.0,11010,ignore,1.0,13700.0,0.919091026884
222,2_31_1,31,1.0,793.538528693,2_ND,training,01,1_A,223.0,11001,ignore,1.0,13800.0,0.778136562136
223,2_31_1,31,1.0,796.382391749,2_ND,training,01,1_A,224.0,00110,kill,1.0,13900.0,0.857911772403
224,2_31_1,31,1.0,799.023134535,2_ND,training,01,1_A,225.0,11010,ignore,1.0,14000.0,0.662870244931
225,2_31_1,31,1.0,802.117034153,2_ND,training,01,1_A,226.0,01011,kill,1.0,14100.0,1.13936847966
226,2_31_1,31,1.0,804.960892077,2_ND,training,01,1_A,227.0,00111,kill,1.0,14200.0,0.868760615997
227,2_31_1,31,1.0,807.74224936,2_ND,training,01,1_A,228.0,11101,ignore,1.0,14300.0,0.791590975568
228,2_31_1,31,1.0,811.008050518,2_ND,training,01,1_A,229.0,10110,kill,1.0,14400.0,1.29449225385
229,2_31_1,31,1.0,813.898807416,2_ND,training,01,1_A,230.0,00010,kill,1.0,14500.0,0.897167870027
230,2_31_1,31,1.0,816.758356169,2_ND,training,01,1_A,231.0,01101,ignore,1.0,14600.0,0.908266879115
231,2_31_1,31,1.0,819.632853914,2_ND,training,01,1_A,232.0,00100,ignore,1.0,14700.0,0.853325725736
232,2_31_1,31,1.0,822.773575853,2_ND,training,01,1_A,233.0,11011,ignore,1.0,14800.0,1.17014428776
233,2_31_1,31,1.0,825.601866427,2_ND,training,01,1_A,234.0,01001,ignore,1.0,14900.0,0.874087216672
234,2_31_1,31,1.0,828.195737501,2_ND,training,01,1_A,235.0,01000,ignore,1.0,15000.0,0.605888318426
235,2_31_1,31,1.0,831.133340133,2_ND,training,01,1_A,236.0,00011,kill,1.0,15100.0,0.97309085241
236,2_31_1,31,1.0,834.02412301,2_ND,training,01,1_A,237.0,10010,ignore,1.0,15200.0,0.866383081628
237,2_31_1,31,1.0,836.914880549,2_ND,training,01,1_A,238.0,01110,kill,1.0,15300.0,0.918884800714
238,2_31_1,31,1.0,839.868201913,2_ND,training,01,1_A,239.0,00101,ignore,1.0,15400.0,0.985003540804
239,2_31_1,31,1.0,843.008941813,2_ND,training,01,1_A,240.0,10101,ignore,1.0,15500.0,1.15202204279
240,2_31_1,31,1.0,1195.21271957,2_ND,test,01,2,0.0,00110,kill,0.0,0.0,10.1993822195
241,2_31_1,31,1.0,1228.7132895,2_ND,test,01,2,1.0,10100,,,0.0,
242,2_31_1,31,1.0,1233.71348867,2_ND,test,01,2,2.0,01010,kill,0.0,0.0,2.99937362409
243,2_31_1,31,1.0,1238.97940721,2_ND,test,01,2,3.0,10011,kill,1.0,100.0,3.30074446685
244,2_31_1,31,1.0,1243.74526738,2_ND,test,01,2,4.0,00001,kill,0.0,0.0,2.80532666482
245,2_31_1,31,1.0,1249.21511731,2_ND,test,01,2,5.0,11000,ignore,1.0,100.0,3.49875334195
246,2_31_1,31,1.0,1256.98109422,2_ND,test,01,2,6.0,01100,ignore,1.0,200.0,5.79532068651
247,2_31_1,31,1.0,1267.98159488,2_ND,test,01,2,7.0,11001,ignore,0.0,100.0,9.03024019736
248,2_31_1,31,1.0,1271.63802657,2_ND,test,01,2,8.0,10001,kill,1.0,200.0,1.71062715848
249,2_31_1,31,1.0,1278.06019784,2_ND,test,01,2,9.0,10111,kill,1.0,300.0,4.4238765645
250,2_31_1,31,1.0,1284.95114781,2_ND,test,01,2,10.0,01111,ignore,1.0,400.0,4.91400625285
251,2_31_1,31,1.0,1291.18580401,2_ND,test,01,2,11.0,11111,kill,1.0,500.0,4.28165395313
252,2_31_1,31,1.0,1299.67060581,2_ND,test,01,2,12.0,00000,ignore,1.0,600.0,6.51489158212
253,2_31_1,31,1.0,1307.25146315,2_ND,test,01,2,13.0,11110,kill,0.0,500.0,5.64218252074
254,2_31_1,31,1.0,1314.67371748,2_ND,test,01,2,14.0,10000,ignore,0.0,400.0,5.41864682277
255,2_31_1,31,1.0,1319.58329998,2_ND,test,01,2,15.0,11100,ignore,1.0,500.0,2.93246141037
256,2_31_1,31,1.0,1328.0837862,2_ND,test,01,2,16.0,10011,kill,1.0,600.0,6.54876270712
257,2_31_1,31,1.0,1332.52148825,2_ND,test,01,2,17.0,01100,ignore,1.0,700.0,2.4492420627
258,2_31_1,31,1.0,1338.84992732,2_ND,test,01,2,18.0,01010,ignore,1.0,800.0,4.37355064376
259,2_31_1,31,1.0,1343.10011463,2_ND,test,01,2,19.0,00011,ignore,1.0,900.0,2.26624343797
260,2_31_1,31,1.0,1346.72529295,2_ND,test,01,2,20.0,11110,kill,0.0,800.0,1.65303296796
261,2_31_1,31,1.0,1357.06952195,2_ND,test,01,2,21.0,01101,ignore,1.0,900.0,8.39367517486
262,2_31_1,31,1.0,1372.96089625,2_ND,test,01,2,22.0,01000,ignore,1.0,1000.0,13.9396273689
263,2_31_1,31,1.0,1380.11747515,2_ND,test,01,2,23.0,00010,kill,0.0,900.0,5.18756606935
264,2_31_1,31,1.0,1384.33642384,2_ND,test,01,2,24.0,10001,ignore,0.0,800.0,2.24671641753
265,2_31_1,31,1.0,1389.41475932,2_ND,test,01,2,25.0,11100,ignore,1.0,900.0,3.05664837251
266,2_31_1,31,1.0,1394.75876317,2_ND,test,01,2,26.0,01001,ignore,1.0,1000.0,3.4131277871
267,2_31_1,31,1.0,1398.36832507,2_ND,test,01,2,27.0,00000,ignore,1.0,1100.0,1.65787944332
268,2_31_1,31,1.0,1402.38411276,2_ND,test,01,2,28.0,10100,ignore,0.0,1000.0,2.02943517763
269,2_31_1,31,1.0,1405.99366664,2_ND,test,01,2,29.0,10110,ignore,0.0,900.0,1.64224377922
270,2_31_1,31,1.0,1409.13442066,2_ND,test,01,2,30.0,11010,kill,0.0,800.0,1.17547377496
271,2_31_1,31,1.0,1412.41583022,2_ND,test,01,2,31.0,01011,ignore,1.0,900.0,1.36090157078
272,2_31_1,31,1.0,1416.61913426,2_ND,test,01,2,32.0,11001,ignore,0.0,800.0,2.20783556815
273,2_31_1,31,1.0,1419.96304318,2_ND,test,01,2,33.0,00001,kill,0.0,700.0,1.36581636057
274,2_31_1,31,1.0,1426.55710605,2_ND,test,01,2,34.0,00111,ignore,1.0,800.0,4.63770231333
275,2_31_1,31,1.0,1430.46351657,2_ND,test,01,2,35.0,00101,ignore,1.0,900.0,1.94423009324
276,2_31_1,31,1.0,1433.79181965,2_ND,test,01,2,36.0,11101,kill,1.0,1000.0,1.38647874748
277,2_31_1,31,1.0,1437.12010189,2_ND,test,01,2,37.0,01111,ignore,1.0,1100.0,1.32754360577
278,2_31_1,31,1.0,1440.49523435,2_ND,test,01,2,38.0,00100,ignore,1.0,1200.0,1.38482733449
279,2_31_1,31,1.0,1443.60475231,2_ND,test,01,2,39.0,10000,kill,1.0,1300.0,1.168602242
280,2_31_1,31,1.0,1446.85491396,2_ND,test,01,2,40.0,11111,kill,1.0,1400.0,1.27295011828
281,2_31_1,31,1.0,1449.94882961,2_ND,test,01,2,41.0,10111,kill,1.0,1500.0,1.14920639808
282,2_31_1,31,1.0,1454.52710287,2_ND,test,01,2,42.0,11011,ignore,0.0,1400.0,2.63080897106
283,2_31_1,31,1.0,1458.01169716,2_ND,test,01,2,43.0,00110,ignore,1.0,1500.0,1.50707743841
284,2_31_1,31,1.0,1460.99619171,2_ND,test,01,2,44.0,10101,kill,1.0,1600.0,1.04604680789
285,2_31_1,31,1.0,1464.50273899,2_ND,test,01,2,45.0,11000,kill,0.0,1500.0,1.58088459802
286,2_31_1,31,1.0,1467.83102026,2_ND,test,01,2,46.0,10010,kill,1.0,1600.0,1.37289604405
287,2_31_1,31,1.0,1470.94053438,2_ND,test,01,2,47.0,01110,ignore,1.0,1700.0,1.16568043732
288,2_31_1,31,1.0,1474.55005138,2_ND,test,01,2,48.0,11100,kill,0.0,1600.0,1.65407788999
289,2_31_1,31,1.0,1477.50331822,2_ND,test,01,2,49.0,00010,ignore,1.0,1700.0,1.02799768821
290,2_31_1,31,1.0,1480.78468673,2_ND,test,01,2,50.0,10000,ignore,0.0,1600.0,1.28864639941
291,2_31_1,31,1.0,1483.81610206,2_ND,test,01,2,51.0,00000,ignore,1.0,1700.0,1.05180446295
292,2_31_1,31,1.0,1486.72249013,2_ND,test,01,2,52.0,01000,ignore,1.0,1800.0,0.977324101585
293,2_31_1,31,1.0,1490.95708411,2_ND,test,01,2,53.0,10001,ignore,0.0,1700.0,2.25773652827
294,2_31_1,31,1.0,1496.44811696,2_ND,test,01,2,54.0,00001,ignore,1.0,1800.0,3.56706872752
295,2_31_1,31,1.0,1500.01072921,2_ND,test,01,2,55.0,10110,kill,1.0,1900.0,1.57213971037
296,2_31_1,31,1.0,1503.21404705,2_ND,test,01,2,56.0,01100,ignore,1.0,2000.0,1.23582940766
297,2_31_1,31,1.0,1506.24541203,2_ND,test,01,2,57.0,11011,kill,1.0,2100.0,1.10656023729
298,2_31_1,31,1.0,1509.63617085,2_ND,test,01,2,58.0,01001,ignore,1.0,2200.0,1.42955467976
299,2_31_1,31,1.0,1513.4019858,2_ND,test,01,2,59.0,11010,kill,0.0,2100.0,1.85336870289
300,2_31_1,31,1.0,1517.44906053,2_ND,test,01,2,60.0,10100,kill,1.0,2200.0,2.11419573718
301,2_31_1,31,1.0,1521.88677125,2_ND,test,01,2,61.0,00100,ignore,1.0,2300.0,2.47598828199
302,2_31_1,31,1.0,1524.7306497,2_ND,test,01,2,62.0,11110,kill,0.0,2200.0,0.937749203319
303,2_31_1,31,1.0,1527.48080236,2_ND,test,01,2,63.0,01011,ignore,1.0,2300.0,0.812660362496
304,2_31_1,31,1.0,1531.01217632,2_ND,test,01,2,64.0,11001,ignore,0.0,2200.0,1.57903369408
305,2_31_1,31,1.0,1533.84042809,2_ND,test,01,2,65.0,10111,ignore,0.0,2100.0,0.867353595455
306,2_31_1,31,1.0,1539.41885241,2_ND,test,01,2,66.0,01010,ignore,1.0,2200.0,3.61553380185
307,2_31_1,31,1.0,1543.60650924,2_ND,test,01,2,67.0,10011,ignore,0.0,2100.0,2.26971945543
308,2_31_1,31,1.0,1547.35667891,2_ND,test,01,2,68.0,00110,ignore,1.0,2200.0,1.81832821456
309,2_31_1,31,1.0,1551.88815678,2_ND,test,01,2,69.0,11101,ignore,0.0,2100.0,2.56857902151
310,2_31_1,31,1.0,1555.20328288,2_ND,test,01,2,70.0,00111,ignore,1.0,2200.0,1.35953688594
311,2_31_1,31,1.0,1568.8445709,2_ND,test,01,2,71.0,11000,kill,0.0,2100.0,11.7046000944
312,2_31_1,31,1.0,1572.11031657,2_ND,test,01,2,72.0,01101,ignore,1.0,2200.0,1.34931954986
313,2_31_1,31,1.0,1575.98550804,2_ND,test,01,2,73.0,00101,ignore,1.0,2300.0,1.87669663521
314,2_31_1,31,1.0,1579.25130695,2_ND,test,01,2,74.0,01111,ignore,1.0,2400.0,1.30404761355
315,2_31_1,31,1.0,1583.22022678,2_ND,test,01,2,75.0,11111,kill,1.0,2500.0,2.05277593895
316,2_31_1,31,1.0,1589.84554622,2_ND,test,01,2,76.0,10101,ignore,0.0,2400.0,4.66475482499
317,2_31_1,31,1.0,1594.33012705,2_ND,test,01,2,77.0,10010,kill,1.0,2500.0,2.5806507895
318,2_31_1,31,1.0,1597.6391212,2_ND,test,01,2,78.0,00011,ignore,1.0,2600.0,1.29818251561
319,2_31_1,31,1.0,1601.49865552,2_ND,test,01,2,79.0,01110,ignore,1.0,2700.0,1.90929384054
320,2_31_1,31,1.0,1604.9206552,2_ND,test,01,2,80.0,00101,ignore,1.0,2800.0,1.48019106229
321,2_31_1,31,1.0,1608.1396953,2_ND,test,01,3,0.0,10011,kill,1.0,2900.0,1.26815688327
322,2_31_1,31,1.0,1610.99910646,2_ND,test,01,3,1.0,00010,ignore,0.0,2800.0,0.96272790718
323,2_31_1,31,1.0,1623.71841917,2_ND,test,01,3,2.0,11111,kill,0.0,2700.0,10.7969069923
324,2_31_1,31,1.0,1627.71864111,2_ND,test,01,3,3.0,00100,ignore,1.0,2800.0,2.02854324143
325,2_31_1,31,1.0,1632.60943393,2_ND,test,01,3,4.0,01110,kill,0.0,2700.0,3.01237132513
326,2_31_1,31,1.0,1636.39091566,2_ND,test,01,3,5.0,11000,ignore,1.0,2800.0,1.85979988043
327,2_31_1,31,1.0,1639.53168667,2_ND,test,01,3,6.0,11101,kill,0.0,2700.0,1.18380781389
328,2_31_1,31,1.0,1643.76623029,2_ND,test,01,3,7.0,10010,kill,1.0,2800.0,2.28868167916
329,2_31_1,31,1.0,1646.98515204,2_ND,test,01,3,8.0,00000,ignore,0.0,2700.0,1.2509381206
330,2_31_1,31,1.0,1650.00088616,2_ND,test,01,3,9.0,00111,ignore,1.0,2800.0,1.0890768765
331,2_31_1,31,1.0,1652.96981753,2_ND,test,01,3,10.0,10001,kill,0.0,2700.0,0.97140512185
332,2_31_1,31,1.0,1658.75133101,2_ND,test,01,3,11.0,11010,kill,1.0,2800.0,3.84439417615
333,2_31_1,31,1.0,1661.87646379,2_ND,test,01,3,12.0,11110,ignore,1.0,2900.0,1.20948601896
334,2_31_1,31,1.0,1664.90784577,2_ND,test,01,3,13.0,11011,kill,1.0,3000.0,1.08875454788
335,2_31_1,31,1.0,1668.12676431,2_ND,test,01,3,14.0,01111,ignore,1.0,3100.0,1.3272321818
336,2_31_1,31,1.0,1672.81451095,2_ND,test,01,3,15.0,00001,ignore,0.0,3000.0,2.68737331363
337,2_31_1,31,1.0,1675.75210203,2_ND,test,01,3,16.0,01101,ignore,1.0,3100.0,0.977685879377
338,2_31_1,31,1.0,1678.76786085,2_ND,test,01,3,17.0,11100,kill,0.0,3000.0,1.08307001811
339,2_31_1,31,1.0,1681.90864662,2_ND,test,01,3,18.0,10111,kill,0.0,2900.0,1.17484579542
340,2_31_1,31,1.0,1684.81501641,2_ND,test,01,3,19.0,00011,ignore,0.0,2800.0,0.99281511872
341,2_31_1,31,1.0,1688.06516587,2_ND,test,01,3,20.0,10000,ignore,1.0,2900.0,1.31305934439
342,2_31_1,31,1.0,1692.37785317,2_ND,test,01,3,21.0,01000,ignore,0.0,2800.0,2.36364312802
343,2_31_1,31,1.0,1695.3155161,2_ND,test,01,3,22.0,01100,ignore,1.0,2900.0,1.03789397858
344,2_31_1,31,1.0,1698.26873194,2_ND,test,01,3,23.0,01001,kill,1.0,3000.0,1.02987809885
345,2_31_1,31,1.0,1702.12830603,2_ND,test,01,3,24.0,11001,kill,0.0,2900.0,1.9077803393
346,2_31_1,31,1.0,1705.19099077,2_ND,test,01,3,25.0,10100,ignore,1.0,3000.0,1.12652344371
347,2_31_1,31,1.0,1708.90989809,2_ND,test,01,3,26.0,10110,ignore,1.0,3100.0,1.7774957536
348,2_31_1,31,1.0,1712.62880861,2_ND,test,01,3,27.0,01011,kill,1.0,3200.0,1.8198404329
349,2_31_1,31,1.0,1715.75397956,2_ND,test,01,3,28.0,00110,ignore,1.0,3300.0,1.21113775267
350,2_31_1,31,1.0,1719.34786057,2_ND,test,01,3,29.0,10101,ignore,1.0,3400.0,1.63397901689
351,2_31_1,31,1.0,1723.72305974,2_ND,test,01,3,30.0,01010,kill,1.0,3500.0,2.47371851122
352,2_31_1,31,1.0,1726.8391128,2_ND,test,01,3,31.0,00101,ignore,1.0,3600.0,1.15656222578
353,2_31_1,31,1.0,1729.79236424,2_ND,test,01,3,32.0,10110,ignore,1.0,3700.0,1.0562131487
354,2_31_1,31,1.0,1733.0112536,2_ND,test,01,3,33.0,01000,kill,1.0,3800.0,1.24411116841
355,2_31_1,31,1.0,1736.35515995,2_ND,test,01,3,34.0,00010,kill,1.0,3900.0,1.38628631248
356,2_31_1,31,1.0,1739.68346015,2_ND,test,01,4,0.0,00111,ignore,0.0,3800.0,1.40285817284
357,2_31_1,31,1.0,1742.62110672,2_ND,test,01,4,1.0,10101,ignore,0.0,3700.0,0.977404603559
358,2_31_1,31,1.0,1745.41809518,2_ND,test,01,4,2.0,11000,ignore,1.0,3800.0,0.90044567945
359,2_31_1,31,1.0,1749.02764168,2_ND,test,01,4,3.0,11110,ignore,1.0,3900.0,1.631277871
360,2_31_1,31,1.0,1752.26217119,2_ND,test,01,4,4.0,01100,ignore,1.0,4000.0,1.28512066957
361,2_31_1,31,1.0,1755.16856055,2_ND,test,01,4,5.0,01011,kill,0.0,3900.0,0.994454344156
362,2_31_1,31,1.0,1758.38745119,2_ND,test,01,4,6.0,10100,kill,1.0,4000.0,1.24979954688
363,2_31_1,31,1.0,1761.30945985,2_ND,test,01,4,7.0,01110,ignore,1.0,4100.0,1.04200310718
364,2_31_1,31,1.0,1764.40333253,2_ND,test,01,4,8.0,10000,kill,0.0,4000.0,1.17679291685
365,2_31_1,31,1.0,1767.46596306,2_ND,test,01,4,9.0,00110,ignore,0.0,3900.0,1.09758442765
366,2_31_1,31,1.0,1771.15472383,2_ND,test,01,4,10.0,11111,ignore,1.0,4000.0,1.78346733223
367,2_31_1,31,1.0,1774.65491562,2_ND,test,01,4,11.0,00001,kill,1.0,4100.0,1.56734711681
368,2_31_1,31,1.0,1777.79566482,2_ND,test,01,4,12.0,11011,ignore,1.0,4200.0,1.20790869344
369,2_31_1,31,1.0,1781.0614663,2_ND,test,01,4,13.0,11100,ignore,1.0,4300.0,1.34496891533
370,2_31_1,31,1.0,1784.18657759,2_ND,test,01,4,14.0,10010,kill,0.0,4200.0,1.16963497647
371,2_31_1,31,1.0,1787.18672096,2_ND,test,01,4,15.0,01111,kill,0.0,4100.0,1.12554394959
372,2_31_1,31,1.0,1790.577525,2_ND,test,01,4,16.0,10011,ignore,0.0,4000.0,1.40680469387
373,2_31_1,31,1.0,1801.21862412,2_ND,test,01,4,17.0,01101,ignore,1.0,4100.0,8.70170266484
374,2_31_1,31,1.0,1809.87527871,2_ND,test,01,4,18.0,11010,ignore,1.0,4200.0,6.76558338593
375,2_31_1,31,1.0,1821.78216455,2_ND,test,01,4,19.0,01010,kill,0.0,4100.0,9.97099010371
376,2_31_1,31,1.0,1828.46996667,2_ND,test,01,4,20.0,00011,ignore,0.0,4000.0,4.79048832304
377,2_31_1,31,1.0,1843.64996684,2_ND,test,01,4,21.0,01001,kill,0.0,3900.0,13.1942836543
378,2_31_1,31,1.0,1849.65024715,2_ND,test,01,4,22.0,00000,ignore,1.0,4000.0,4.03251093031
379,2_31_1,31,1.0,1858.77562208,2_ND,test,01,4,23.0,00100,kill,1.0,4100.0,7.18882395277
380,2_31_1,31,1.0,1868.04171766,2_ND,test,01,4,24.0,10001,ignore,0.0,4000.0,7.3031422069
381,2_31_1,31,1.0,1872.0106346,2_ND,test,01,4,25.0,11001,kill,0.0,3900.0,2.08844921769
382,2_31_1,31,1.0,1877.27648226,2_ND,test,01,4,26.0,10111,ignore,0.0,3800.0,3.33208827891
383,2_31_1,31,1.0,1880.72977444,2_ND,test,01,4,27.0,11101,ignore,1.0,3900.0,1.52525420663
384,2_31_1,31,1.0,1883.58930267,2_ND,test,01,4,28.0,01100,ignore,1.0,4000.0,0.97837607956
385,2_31_1,31,1.0,1886.66755347,2_ND,test,01,4,29.0,01101,ignore,1.0,4100.0,1.17269341
386,2_31_1,31,1.0,1897.76185335,2_ND,test,01,4,30.0,00010,kill,0.0,4000.0,9.14929491818
387,2_31_1,31,1.0,1903.40270326,2_ND,test,01,4,31.0,01000,kill,0.0,3900.0,3.72999830657
388,2_31_1,31,1.0,1909.46550442,2_ND,test,01,4,32.0,00100,ignore,0.0,3800.0,4.09017728395
389,2_31_1,31,1.0,1917.9034358,2_ND,test,01,4,33.0,01010,ignore,1.0,3900.0,6.55833731032
390,2_31_1,31,1.0,1928.62262824,2_ND,test,01,4,34.0,11111,ignore,1.0,4000.0,8.82953338362
391,2_31_1,31,1.0,1942.35764653,2_ND,test,01,4,35.0,00101,ignore,0.0,3900.0,11.7817418318
392,2_31_1,31,1.0,1945.71718214,2_ND,test,01,4,36.0,11000,kill,0.0,3800.0,1.45519375638
393,2_31_1,31,1.0,1949.62359458,2_ND,test,01,4,37.0,10100,ignore,0.0,3700.0,1.948164106
394,2_31_1,31,1.0,1957.24893648,2_ND,test,01,4,38.0,11010,ignore,1.0,3800.0,5.75252987874
395,2_31_1,31,1.0,1960.68660871,2_ND,test,01,4,39.0,10111,ignore,0.0,3700.0,1.43616065243
396,2_31_1,31,1.0,1963.98361641,2_ND,test,01,4,40.0,11001,kill,0.0,3600.0,1.36195868036
397,2_31_1,31,1.0,1967.4681658,2_ND,test,01,4,41.0,10110,kill,1.0,3700.0,1.58906885837
398,2_31_1,31,1.0,1979.15619692,2_ND,test,01,4,42.0,10001,kill,1.0,3800.0,9.73301472513
399,2_31_1,31,1.0,1985.35959686,2_ND,test,01,4,43.0,11100,ignore,1.0,3900.0,4.30687640798
400,2_31_1,31,1.0,2004.65734896,2_ND,test,01,4,44.0,11110,ignore,1.0,4000.0,17.32223689
401,2_31_1,31,1.0,2007.84505487,2_ND,test,01,4,45.0,01001,kill,0.0,3900.0,1.24018934321
402,2_31_1,31,1.0,2010.75140125,2_ND,test,01,4,46.0,10101,kill,1.0,4000.0,0.982825818106
403,2_31_1,31,1.0,2014.39222005,2_ND,test,01,4,47.0,00011,kill,1.0,4100.0,1.69535359289
404,2_31_1,31,1.0,2017.67361229,2_ND,test,01,4,48.0,00000,ignore,1.0,4200.0,1.38884505647
405,2_31_1,31,1.0,2021.455018,2_ND,test,01,4,49.0,01110,kill,0.0,4100.0,1.8706714955
406,2_31_1,31,1.0,2032.9868352,2_ND,test,01,4,50.0,11011,kill,0.0,4000.0,9.60273559175
407,2_31_1,31,1.0,2036.15886279,2_ND,test,01,4,51.0,01111,ignore,1.0,4100.0,1.28663513299
408,2_31_1,31,1.0,2039.09648402,2_ND,test,01,4,52.0,10011,ignore,0.0,4000.0,1.0032646597
409,2_31_1,31,1.0,2052.58147281,2_ND,test,01,4,53.0,10000,kill,0.0,3900.0,11.5313014764
410,2_31_1,31,1.0,2058.48800456,2_ND,test,01,4,54.0,00001,ignore,0.0,3800.0,3.97350330475
411,2_31_1,31,1.0,2068.44157353,2_ND,test,01,4,55.0,00110,ignore,0.0,3700.0,7.99546879731
412,2_31_1,31,1.0,2073.67621914,2_ND,test,01,4,56.0,10010,kill,0.0,3600.0,3.33568168173
413,2_31_1,31,1.0,2078.20765532,2_ND,test,01,4,57.0,01011,ignore,1.0,3700.0,2.55850889819
414,2_31_1,31,1.0,2082.9735017,2_ND,test,01,4,58.0,11101,ignore,1.0,3800.0,2.79901223117
415,2_31_1,31,1.0,2085.94238176,2_ND,test,01,4,59.0,00111,ignore,0.0,3700.0,1.03000061579
416,2_31_1,31,1.0,2089.73942634,2_ND,test,01,4,60.0,11011,ignore,1.0,3800.0,1.86021457785
417,2_31_1,31,1.0,2092.41143308,2_ND,test,01,4,61.0,01011,kill,0.0,3700.0,0.787579668088
418,2_31_1,31,1.0,2095.22411621,2_ND,test,01,4,62.0,11101,ignore,1.0,3800.0,0.842756875061
419,2_31_1,31,1.0,2098.08356393,2_ND,test,01,4,63.0,10001,ignore,0.0,3700.0,0.912856774482
420,2_31_1,31,1.0,2101.03682115,2_ND,test,01,4,64.0,11001,kill,0.0,3600.0,1.03836608577
421,2_31_1,31,1.0,2114.49057389,2_ND,test,01,4,65.0,00000,ignore,1.0,3700.0,11.4914667909
422,2_31_1,31,1.0,2129.27250848,2_ND,test,01,4,66.0,00110,ignore,0.0,3600.0,12.9058941556
423,2_31_1,31,1.0,2132.1320149,2_ND,test,01,4,67.0,10010,ignore,1.0,3700.0,0.941275895336
424,2_31_1,31,1.0,2150.64852774,2_ND,test,01,4,68.0,00001,kill,1.0,3800.0,16.5668198449
425,2_31_1,31,1.0,2157.55505084,2_ND,test,01,4,69.0,01001,ignore,1.0,3900.0,5.03073154805
426,2_31_1,31,1.0,2181.13427408,2_ND,test,01,5,0.0,10000,ignore,0.0,3800.0,21.6759843691
427,2_31_1,31,1.0,2195.04117275,2_ND,test,01,5,1.0,10111,ignore,0.0,3700.0,11.9683434811
428,2_31_1,31,1.0,2199.74454351,2_ND,test,01,5,2.0,00111,ignore,1.0,3800.0,2.77762821302
429,2_31_1,31,1.0,2207.11985076,2_ND,test,01,5,3.0,00101,ignore,1.0,3900.0,5.4249416922
430,2_31_1,31,1.0,2212.96387514,2_ND,test,01,5,4.0,01110,ignore,1.0,4000.0,3.95085883739
431,2_31_1,31,1.0,2216.62032832,2_ND,test,01,5,5.0,10011,kill,1.0,4100.0,1.74283404149
432,2_31_1,31,1.0,2220.1361019,2_ND,test,01,5,6.0,01111,ignore,1.0,4200.0,1.5602376059
433,2_31_1,31,1.0,2228.48022249,2_ND,test,01,5,7.0,00011,ignore,1.0,4300.0,6.44246706796
434,2_31_1,31,1.0,2232.69918562,2_ND,test,01,5,8.0,01101,kill,0.0,4200.0,2.26842597154
435,2_31_1,31,1.0,2235.96493514,2_ND,test,01,5,9.0,01100,ignore,1.0,4300.0,1.39576149094
436,2_31_1,31,1.0,2241.0120615,2_ND,test,01,5,10.0,11010,kill,0.0,4200.0,3.0825988731
437,2_31_1,31,1.0,2247.09043996,2_ND,test,01,5,11.0,11000,kill,0.0,4100.0,4.14181464918
438,2_31_1,31,1.0,2251.07502752,2_ND,test,01,5,12.0,10110,ignore,0.0,4000.0,2.07095912168
439,2_31_1,31,1.0,2264.43500765,2_ND,test,01,5,13.0,00100,ignore,1.0,4100.0,11.3943698652
440,2_31_1,31,1.0,2268.68519495,2_ND,test,01,5,14.0,01010,kill,0.0,4000.0,2.36475732664
441,2_31_1,31,1.0,2273.59167924,2_ND,test,01,5,15.0,10101,kill,1.0,4100.0,2.90632488929
442,2_31_1,31,1.0,2276.77933126,2_ND,test,01,5,16.0,10100,kill,1.0,4200.0,1.24428147339
443,2_31_1,31,1.0,2283.70149708,2_ND,test,01,5,17.0,11110,kill,0.0,4100.0,5.00387179211
444,2_31_1,31,1.0,2286.51416161,2_ND,test,01,5,18.0,11100,kill,0.0,4000.0,0.864010678859
445,2_31_1,31,1.0,2289.4674137,2_ND,test,01,5,19.0,01000,kill,0.0,3900.0,1.08845499074
446,2_31_1,31,1.0,2294.34262377,2_ND,test,01,5,20.0,11111,kill,1.0,4000.0,2.9577836107
447,2_31_1,31,1.0,2301.31169851,2_ND,test,01,5,21.0,00010,ignore,1.0,4100.0,5.029767128
448,2_31_1,31,1.0,2309.51524342,2_ND,test,01,5,22.0,01000,ignore,1.0,4200.0,6.3166142602
449,2_31_1,31,1.0,2312.84350673,2_ND,test,01,5,23.0,01011,ignore,1.0,4300.0,1.42066482442
450,2_31_1,31,1.0,2320.78257764,2_ND,test,01,5,24.0,11001,kill,1.0,4400.0,5.98720852513
451,2_31_1,31,1.0,2325.86093268,2_ND,test,01,5,25.0,01010,ignore,1.0,4500.0,3.17675956145
452,2_31_1,31,1.0,2329.9549112,2_ND,test,01,5,26.0,00000,ignore,1.0,4600.0,2.1440286138
453,2_31_1,31,1.0,2333.53317002,2_ND,test,01,5,27.0,01101,kill,0.0,4500.0,1.70802319227
454,2_31_1,31,1.0,2336.95519921,2_ND,test,01,5,28.0,10001,kill,1.0,4600.0,1.44561273868
455,2_31_1,31,1.0,2346.34637177,2_ND,test,01,5,29.0,11101,ignore,0.0,4500.0,7.43447748767
456,2_31_1,31,1.0,2349.87969028,2_ND,test,01,5,30.0,11010,kill,0.0,4400.0,1.66282887141
457,2_31_1,31,1.0,2352.942333,2_ND,test,01,5,31.0,00101,ignore,1.0,4500.0,1.09993983199
458,2_31_1,31,1.0,2356.91126534,2_ND,test,01,5,32.0,11011,kill,1.0,4600.0,2.10665228536
459,2_31_1,31,1.0,2360.47390934,2_ND,test,01,5,33.0,10010,kill,1.0,4700.0,1.60456725218
460,2_31_1,31,1.0,2363.52093468,2_ND,test,01,5,34.0,01100,ignore,1.0,4800.0,1.09154998691
461,2_31_1,31,1.0,2366.39606746,2_ND,test,01,5,35.0,10101,kill,1.0,4900.0,0.969183780552
462,2_31_1,31,1.0,2369.1461919,2_ND,test,01,5,36.0,11000,kill,0.0,4800.0,0.82669111874
463,2_31_1,31,1.0,2371.78690743,2_ND,test,01,5,37.0,00010,ignore,1.0,4900.0,0.773514273545
