,unique_id,pair_id,sbj_id,wall_time,condition,block,rule_id,rule_num,trial,stimulus,choice,correct,points,reaction_time
0,1_23_1,23,1.0,66.0565483063,1_I,training,03,1_A,1.0,01010,ignore,0.0,0.0,4.05072169538
1,1_23_1,23,1.0,74.0257131641,1_I,training,03,1_A,2.0,11101,kill,0.0,0.0,5.82794354984
2,1_23_1,23,1.0,78.2602234299,1_I,training,03,1_A,3.0,11100,kill,1.0,100.0,2.11146668822
3,1_23_1,23,1.0,83.6667442821,1_I,training,03,1_A,4.0,10011,ignore,1.0,200.0,3.2498306572
4,1_23_1,23,1.0,88.5576124718,1_I,training,03,1_A,5.0,11001,kill,0.0,100.0,2.75020879197
5,1_23_1,23,1.0,93.7765839324,1_I,training,03,1_A,6.0,11111,ignore,1.0,200.0,3.09475563321
6,1_23_1,23,1.0,97.2298786761,1_I,training,03,1_A,7.0,11010,kill,1.0,300.0,1.32187030138
7,1_23_1,23,1.0,102.511350137,1_I,training,03,1_A,8.0,01101,kill,1.0,400.0,3.13221631233
8,1_23_1,23,1.0,106.245938339,1_I,training,03,1_A,9.0,10111,ignore,1.0,500.0,1.58847359279
9,1_23_1,23,1.0,109.652334108,1_I,training,03,1_A,10.0,11000,kill,1.0,600.0,1.19675740618
10,1_23_1,23,1.0,114.433800758,1_I,training,03,1_A,11.0,10100,kill,0.0,500.0,2.65012816171
11,1_23_1,23,1.0,118.777753296,1_I,training,03,1_A,12.0,01100,kill,1.0,600.0,2.19870164109
12,1_23_1,23,1.0,122.199804935,1_I,training,03,1_A,13.0,00010,kill,0.0,500.0,1.26905491325
13,1_23_1,23,1.0,125.621837652,1_I,training,03,1_A,14.0,01011,ignore,0.0,400.0,1.2902888321
14,1_23_1,23,1.0,129.215740477,1_I,training,03,1_A,15.0,00110,ignore,1.0,500.0,1.4788578085
15,1_23_1,23,1.0,133.450308473,1_I,training,03,1_A,16.0,00100,kill,0.0,400.0,2.1163724977
16,1_23_1,23,1.0,137.637969157,1_I,training,03,1_A,17.0,01110,ignore,0.0,300.0,2.08830906087
17,1_23_1,23,1.0,142.528820348,1_I,training,03,1_A,18.0,10010,ignore,1.0,400.0,2.82285204058
18,1_23_1,23,1.0,146.23216769,1_I,training,03,1_A,19.0,01111,kill,1.0,500.0,1.59800297376
19,1_23_1,23,1.0,149.435421702,1_I,training,03,1_A,20.0,11110,ignore,0.0,400.0,1.12781339963
20,1_23_1,23,1.0,152.900482242,1_I,training,03,1_A,21.0,01000,kill,1.0,500.0,1.38097510661
21,1_23_1,23,1.0,156.322527146,1_I,training,03,1_A,22.0,10110,kill,0.0,400.0,1.3433001832
22,1_23_1,23,1.0,159.744563711,1_I,training,03,1_A,23.0,00000,kill,0.0,300.0,1.31505265021
23,1_23_1,23,1.0,165.541693928,1_I,training,03,1_A,24.0,10101,kill,0.0,200.0,3.69500400265
24,1_23_1,23,1.0,168.854377704,1_I,training,03,1_A,25.0,00011,kill,0.0,100.0,1.21084621365
25,1_23_1,23,1.0,171.838861029,1_I,training,03,1_A,26.0,00101,ignore,1.0,200.0,0.892319470317
26,1_23_1,23,1.0,174.776518184,1_I,training,03,1_A,27.0,11011,ignore,1.0,300.0,0.875718423983
27,1_23_1,23,1.0,178.776679188,1_I,training,03,1_A,28.0,01001,ignore,0.0,200.0,1.92322805856
28,1_23_1,23,1.0,182.761249108,1_I,training,03,1_A,29.0,00001,ignore,1.0,300.0,1.89499720328
29,1_23_1,23,1.0,189.777178877,1_I,training,03,1_A,30.0,10001,ignore,1.0,400.0,4.93325199748
30,1_23_1,23,1.0,194.330549761,1_I,training,03,1_A,31.0,00111,ignore,1.0,500.0,2.48744586162
31,1_23_1,23,1.0,197.908858617,1_I,training,03,1_A,32.0,10000,kill,0.0,400.0,1.50968204607
32,1_23_1,23,1.0,201.862262407,1_I,training,03,1_A,33.0,11100,ignore,0.0,300.0,1.89188456723
33,1_23_1,23,1.0,205.0343025,1_I,training,03,1_A,34.0,10011,ignore,1.0,400.0,1.0655209087
34,1_23_1,23,1.0,208.706321425,1_I,training,03,1_A,35.0,01010,kill,1.0,500.0,1.60936305299
35,1_23_1,23,1.0,213.925333297,1_I,training,03,1_A,36.0,11101,ignore,1.0,600.0,3.15580114537
36,1_23_1,23,1.0,220.347476985,1_I,training,03,1_A,37.0,10110,kill,0.0,500.0,4.34199194595
37,1_23_1,23,1.0,223.707029266,1_I,training,03,1_A,38.0,00000,kill,0.0,400.0,1.27929758661
38,1_23_1,23,1.0,226.832155952,1_I,training,03,1_A,39.0,00111,ignore,1.0,500.0,1.05505244495
39,1_23_1,23,1.0,230.441721382,1_I,training,03,1_A,40.0,01111,kill,1.0,600.0,1.52713397581
40,1_23_1,23,1.0,235.582732295,1_I,training,03,1_A,41.0,00100,kill,0.0,500.0,3.09273185851
41,1_23_1,23,1.0,238.989003623,1_I,training,03,1_A,42.0,10100,kill,0.0,400.0,1.33854126576
42,1_23_1,23,1.0,242.3797602,1_I,training,03,1_A,43.0,11001,ignore,1.0,500.0,1.31965697821
43,1_23_1,23,1.0,246.083043077,1_I,training,03,1_A,44.0,11111,ignore,1.0,600.0,1.65436814611
44,1_23_1,23,1.0,252.036468356,1_I,training,03,1_A,45.0,00010,kill,0.0,500.0,3.88649093503
45,1_23_1,23,1.0,255.317883369,1_I,training,03,1_A,46.0,01101,ignore,0.0,400.0,1.2363021563
46,1_23_1,23,1.0,258.302400691,1_I,training,03,1_A,47.0,01100,kill,1.0,500.0,0.934255545977
47,1_23_1,23,1.0,261.755659513,1_I,training,03,1_A,48.0,00101,ignore,1.0,600.0,1.39575507644
48,1_23_1,23,1.0,265.412061056,1_I,training,03,1_A,49.0,10001,ignore,1.0,700.0,1.61635036768
49,1_23_1,23,1.0,270.533679011,1_I,training,03,1_A,50.0,10111,kill,0.0,600.0,3.07463366791
50,1_23_1,23,1.0,273.78472714,1_I,training,03,1_A,51.0,10010,kill,0.0,500.0,1.16806214111
51,1_23_1,23,1.0,277.347385578,1_I,training,03,1_A,52.0,10101,ignore,1.0,600.0,1.45093966008
52,1_23_1,23,1.0,282.050733562,1_I,training,03,1_A,53.0,10000,kill,0.0,500.0,2.61850692253
53,1_23_1,23,1.0,285.332130615,1_I,training,03,1_A,54.0,11010,kill,1.0,600.0,1.25248722232
54,1_23_1,23,1.0,288.786862848,1_I,training,03,1_A,55.0,11011,ignore,1.0,700.0,1.38113482765
55,1_23_1,23,1.0,292.537029304,1_I,training,03,1_A,56.0,00110,kill,0.0,600.0,1.70494840176
56,1_23_1,23,1.0,295.834081585,1_I,training,03,1_A,57.0,11110,kill,1.0,700.0,1.27262778967
57,1_23_1,23,1.0,299.693623282,1_I,training,03,1_A,58.0,01110,ignore,0.0,600.0,1.80125441959
58,1_23_1,23,1.0,305.834528355,1_I,training,03,1_A,59.0,11000,ignore,0.0,500.0,4.10850286856
59,1_23_1,23,1.0,308.662769537,1_I,training,03,1_A,60.0,00001,ignore,1.0,600.0,0.760158964135
60,1_23_1,23,1.0,317.694446262,1_I,training,03,1_A,61.0,01011,ignore,0.0,500.0,6.97378714637
61,1_23_1,23,1.0,321.654045176,1_I,training,03,1_A,62.0,01001,ignore,0.0,400.0,1.91776996064
62,1_23_1,23,1.0,325.185425871,1_I,training,03,1_A,63.0,01000,kill,1.0,500.0,1.49242287205
63,1_23_1,23,1.0,333.717068279,1_I,training,03,1_A,64.0,00011,ignore,1.0,600.0,6.50020173602
64,1_23_1,23,1.0,337.826650707,1_I,training,03,1_A,65.0,10100,ignore,1.0,700.0,2.05587863253
65,1_23_1,23,1.0,342.904990032,1_I,training,03,1_A,66.0,01100,kill,1.0,800.0,3.04042161225
66,1_23_1,23,1.0,345.873886443,1_I,training,03,1_A,67.0,00110,ignore,1.0,900.0,0.954073143259
67,1_23_1,23,1.0,348.936546164,1_I,training,03,1_A,68.0,00001,ignore,1.0,1000.0,1.01637621811
68,1_23_1,23,1.0,351.921048412,1_I,training,03,1_A,69.0,01001,kill,1.0,1100.0,0.931029052553
69,1_23_1,23,1.0,356.624359512,1_I,training,03,1_A,70.0,00000,ignore,1.0,1200.0,2.63231285055
70,1_23_1,23,1.0,359.312002556,1_I,training,03,1_A,71.0,10111,ignore,1.0,1300.0,0.633211842706
71,1_23_1,23,1.0,362.280898325,1_I,training,03,1_A,72.0,01011,kill,1.0,1400.0,0.957093410512
72,1_23_1,23,1.0,365.468535275,1_I,training,03,1_A,73.0,11100,kill,1.0,1500.0,1.11388591684
73,1_23_1,23,1.0,368.296767798,1_I,training,03,1_A,74.0,01111,kill,1.0,1600.0,0.792425822724
74,1_23_1,23,1.0,371.062564145,1_I,training,03,1_A,75.0,10011,ignore,1.0,1700.0,0.73344096864
75,1_23_1,23,1.0,373.781431691,1_I,training,03,1_A,76.0,01101,kill,1.0,1800.0,0.69258862273
76,1_23_1,23,1.0,376.359672873,1_I,training,03,1_A,77.0,11000,kill,1.0,1900.0,0.574905642708
77,1_23_1,23,1.0,378.937916622,1_I,training,03,1_A,78.0,11101,kill,0.0,1800.0,0.532208486639
78,1_23_1,23,1.0,383.906864669,1_I,training,03,1_A,79.0,01110,kill,1.0,1900.0,2.94832158197
79,1_23_1,23,1.0,386.766375577,1_I,training,03,1_A,80.0,00111,ignore,1.0,2000.0,0.841119573975
80,1_23_1,23,1.0,390.547790269,1_I,training,03,1_A,81.0,11010,kill,1.0,2100.0,1.74820105352
81,1_23_1,23,1.0,393.313527282,1_I,training,03,1_A,82.0,00100,ignore,1.0,2200.0,0.762268051686
82,1_23_1,23,1.0,396.17304268,1_I,training,03,1_A,83.0,11011,kill,0.0,2100.0,0.841305915194
83,1_23_1,23,1.0,399.391929469,1_I,training,03,1_A,84.0,00101,ignore,1.0,2200.0,1.17188357939
84,1_23_1,23,1.0,402.610869498,1_I,training,03,1_A,85.0,10001,ignore,1.0,2300.0,1.19291095135
85,1_23_1,23,1.0,406.20473961,1_I,training,03,1_A,86.0,10000,ignore,1.0,2400.0,1.54903115394
86,1_23_1,23,1.0,409.204902538,1_I,training,03,1_A,87.0,00010,ignore,1.0,2500.0,0.979396626486
87,1_23_1,23,1.0,412.126934934,1_I,training,03,1_A,88.0,10110,ignore,1.0,2600.0,0.880221723603
88,1_23_1,23,1.0,416.22083808,1_I,training,03,1_A,89.0,11111,ignore,1.0,2700.0,2.06584355805
89,1_23_1,23,1.0,419.252211078,1_I,training,03,1_A,90.0,00011,ignore,1.0,2800.0,1.0105204212
90,1_23_1,23,1.0,422.549229683,1_I,training,03,1_A,91.0,10010,ignore,1.0,2900.0,1.22972472815
91,1_23_1,23,1.0,425.515055473,1_I,training,03,1_A,92.0,10101,ignore,1.0,3000.0,0.927809935804
92,1_23_1,23,1.0,428.608957657,1_I,training,03,1_A,93.0,01000,kill,1.0,3100.0,1.07934479733
93,1_23_1,23,1.0,431.405973054,1_I,training,03,1_A,94.0,01010,kill,1.0,3200.0,0.752629303488
94,1_23_1,23,1.0,433.984164524,1_I,training,03,1_A,95.0,11110,kill,1.0,3300.0,0.567944627472
95,1_23_1,23,1.0,436.656179922,1_I,training,03,1_A,96.0,11001,kill,0.0,3200.0,0.612959983784
96,1_23_1,23,1.0,439.750081785,1_I,training,03,1_A,97.0,00011,ignore,1.0,3300.0,1.0560976877
97,1_23_1,23,1.0,442.609605842,1_I,training,03,1_A,98.0,10010,ignore,1.0,3400.0,0.842704596887
98,1_23_1,23,1.0,445.531613221,1_I,training,03,1_A,99.0,00001,ignore,1.0,3500.0,0.860432029394
99,1_23_1,23,1.0,450.578725477,1_I,training,03,1_A,100.0,10110,ignore,1.0,3600.0,3.04738262748
100,1_23_1,23,1.0,453.406943568,1_I,training,03,1_A,101.0,00111,ignore,1.0,3700.0,0.775784685767
101,1_23_1,23,1.0,456.141456399,1_I,training,03,1_A,102.0,10100,ignore,1.0,3800.0,0.676163333693
102,1_23_1,23,1.0,459.688513812,1_I,training,03,1_A,103.0,01000,kill,1.0,3900.0,1.51777650343
103,1_23_1,23,1.0,463.798097203,1_I,training,03,1_A,104.0,00000,ignore,1.0,4000.0,2.06015710393
104,1_23_1,23,1.0,467.173014456,1_I,training,03,1_A,105.0,10000,ignore,1.0,4100.0,1.34935675396
105,1_23_1,23,1.0,470.813802785,1_I,training,03,1_A,106.0,01001,kill,1.0,4200.0,1.61138714842
106,1_23_1,23,1.0,475.392178993,1_I,training,03,1_A,107.0,11100,kill,1.0,4300.0,2.54300056191
107,1_23_1,23,1.0,480.736180602,1_I,training,03,1_A,108.0,01110,ignore,0.0,4200.0,3.3411006512
108,1_23_1,23,1.0,483.908189264,1_I,training,03,1_A,109.0,10101,ignore,1.0,4300.0,1.1461011387
109,1_23_1,23,1.0,487.455233526,1_I,training,03,1_A,110.0,11001,kill,0.0,4200.0,1.52059567611
110,1_23_1,23,1.0,491.080362137,1_I,training,03,1_A,111.0,11010,kill,1.0,4300.0,1.6251719086
111,1_23_1,23,1.0,493.955491389,1_I,training,03,1_A,112.0,10001,ignore,1.0,4400.0,0.843948689133
112,1_23_1,23,1.0,497.502530199,1_I,training,03,1_A,113.0,01100,kill,1.0,4500.0,1.52712627841
113,1_23_1,23,1.0,500.940200184,1_I,training,03,1_A,114.0,00100,ignore,1.0,4600.0,1.36475957172
114,1_23_1,23,1.0,504.174718468,1_I,training,03,1_A,115.0,10011,ignore,1.0,4700.0,1.21861385224
115,1_23_1,23,1.0,507.534250222,1_I,training,03,1_A,116.0,01010,kill,1.0,4800.0,1.33467300163
116,1_23_1,23,1.0,510.37816299,1_I,training,03,1_A,117.0,00010,ignore,1.0,4900.0,0.821122691422
117,1_23_1,23,1.0,514.19078679,1_I,training,03,1_A,118.0,11101,kill,0.0,4800.0,1.80216046769
118,1_23_1,23,1.0,517.597238686,1_I,training,03,1_A,119.0,11011,kill,0.0,4700.0,1.38157325872
119,1_23_1,23,1.0,521.659942346,1_I,training,03,1_A,120.0,11110,kill,1.0,4800.0,2.03482111243
120,1_23_1,23,1.0,524.706924068,1_I,training,03,1_A,121.0,11000,kill,1.0,4900.0,1.04526071093
121,1_23_1,23,1.0,528.097701813,1_I,training,03,1_A,122.0,01101,ignore,0.0,4800.0,1.36001316255
122,1_23_1,23,1.0,531.363496236,1_I,training,03,1_A,123.0,00101,ignore,1.0,4900.0,1.23015610327
123,1_23_1,23,1.0,535.098044027,1_I,training,03,1_A,124.0,10111,ignore,1.0,5000.0,1.71248543909
124,1_23_1,23,1.0,538.426322413,1_I,training,03,1_A,125.0,00110,ignore,1.0,5100.0,1.28020844559
125,1_23_1,23,1.0,542.660892334,1_I,training,03,1_A,126.0,11111,ignore,1.0,5200.0,2.24212780506
126,1_23_1,23,1.0,546.020443332,1_I,training,03,1_A,127.0,01011,kill,1.0,5300.0,1.34861235125
127,1_23_1,23,1.0,550.051849685,1_I,training,03,1_A,128.0,01111,ignore,0.0,5200.0,2.01113909971
128,1_23_1,23,1.0,553.852048599,1_I,training,03,1_A,129.0,00010,ignore,1.0,5300.0,1.79904205859
129,1_23_1,23,1.0,557.195964253,1_I,training,03,1_A,130.0,01001,kill,1.0,5400.0,1.32311888377
130,1_23_1,23,1.0,560.743008516,1_I,training,03,1_A,131.0,01111,kill,1.0,5500.0,1.5486789979
131,1_23_1,23,1.0,563.868170482,1_I,training,03,1_A,132.0,01010,kill,1.0,5600.0,1.13155722247
132,1_23_1,23,1.0,567.805876387,1_I,training,03,1_A,133.0,11111,ignore,1.0,5700.0,1.92301894587
133,1_23_1,23,1.0,570.680977095,1_I,training,03,1_A,134.0,01000,kill,1.0,5800.0,0.867015230589
134,1_23_1,23,1.0,573.946775688,1_I,training,03,1_A,135.0,10100,ignore,1.0,5900.0,1.24458776575
135,1_23_1,23,1.0,577.209422195,1_I,training,03,1_A,136.0,10011,ignore,1.0,6000.0,1.27245716397
136,1_23_1,23,1.0,580.303356772,1_I,training,03,1_A,137.0,10010,ignore,1.0,6100.0,1.04978614057
137,1_23_1,23,1.0,583.537811552,1_I,training,03,1_A,138.0,10110,ignore,1.0,6200.0,1.2119145486
138,1_23_1,23,1.0,586.319207642,1_I,training,03,1_A,139.0,10001,ignore,1.0,6300.0,0.776685922995
139,1_23_1,23,1.0,589.710020347,1_I,training,03,1_A,140.0,00110,ignore,1.0,6400.0,1.3581247338
140,1_23_1,23,1.0,593.071488959,1_I,training,03,1_A,141.0,01100,kill,1.0,6500.0,1.35748584961
141,1_23_1,23,1.0,596.243462021,1_I,training,03,1_A,142.0,10101,ignore,1.0,6600.0,1.11395038256
142,1_23_1,23,1.0,599.478020716,1_I,training,03,1_A,143.0,11100,kill,1.0,6700.0,1.21002066752
143,1_23_1,23,1.0,602.46252104,1_I,training,03,1_A,144.0,11000,kill,1.0,6800.0,0.949835083209
144,1_23_1,23,1.0,606.650236887,1_I,training,03,1_A,145.0,10111,ignore,1.0,6900.0,2.15604072694
145,1_23_1,23,1.0,609.963036124,1_I,training,03,1_A,146.0,00001,ignore,1.0,7000.0,1.29793587809
146,1_23_1,23,1.0,613.525698411,1_I,training,03,1_A,147.0,01011,kill,1.0,7100.0,1.56264689205
147,1_23_1,23,1.0,618.572810988,1_I,training,03,1_A,148.0,01110,kill,1.0,7200.0,3.0415027762
148,1_23_1,23,1.0,624.901305864,1_I,training,03,1_A,149.0,11101,ignore,1.0,7300.0,4.33215210319
149,1_23_1,23,1.0,628.682652883,1_I,training,03,1_A,150.0,00000,ignore,1.0,7400.0,1.76938076984
150,1_23_1,23,1.0,632.995310038,1_I,training,03,1_A,151.0,11011,kill,0.0,7300.0,2.3030370091
151,1_23_1,23,1.0,636.354836982,1_I,training,03,1_A,152.0,00100,ignore,1.0,7400.0,1.34281460556
152,1_23_1,23,1.0,639.417475856,1_I,training,03,1_A,153.0,11010,kill,1.0,7500.0,1.07854170195
153,1_23_1,23,1.0,642.18327092,1_I,training,03,1_A,154.0,10000,ignore,1.0,7600.0,0.777515959276
154,1_23_1,23,1.0,645.1365198,1_I,training,03,1_A,155.0,00011,ignore,1.0,7700.0,0.919024316086
155,1_23_1,23,1.0,648.98045534,1_I,training,03,1_A,156.0,01101,kill,1.0,7800.0,1.82328886802
156,1_23_1,23,1.0,651.949348864,1_I,training,03,1_A,157.0,00101,ignore,1.0,7900.0,0.946766707207
157,1_23_1,23,1.0,655.355777348,1_I,training,03,1_A,158.0,11110,kill,1.0,8000.0,1.41042728266
158,1_23_1,23,1.0,658.655587863,1_I,training,03,1_A,159.0,11001,kill,0.0,7900.0,1.30377628021
159,1_23_1,23,1.0,662.093265866,1_I,training,03,1_A,160.0,00111,ignore,1.0,8000.0,1.40748527231
160,1_23_1,23,1.0,665.312165805,1_I,training,03,1_A,161.0,11000,kill,1.0,8100.0,1.20415300378
161,1_23_1,23,1.0,668.624795377,1_I,training,03,1_A,162.0,01001,kill,1.0,8200.0,1.32120062759
162,1_23_1,23,1.0,672.234368185,1_I,training,03,1_A,163.0,01011,ignore,0.0,8100.0,1.60976427996
163,1_23_1,23,1.0,675.937629252,1_I,training,03,1_A,164.0,10101,ignore,1.0,8200.0,1.71077789923
164,1_23_1,23,1.0,679.203428165,1_I,training,03,1_A,165.0,10010,ignore,1.0,8300.0,1.27982389632
165,1_23_1,23,1.0,683.281762679,1_I,training,03,1_A,166.0,00111,ignore,1.0,8400.0,2.06593368177
166,1_23_1,23,1.0,686.594470829,1_I,training,03,1_A,167.0,00100,ignore,1.0,8500.0,1.3165757732
167,1_23_1,23,1.0,689.563346714,1_I,training,03,1_A,168.0,00010,ignore,1.0,8600.0,0.989616207645
168,1_23_1,23,1.0,693.141610989,1_I,training,03,1_A,169.0,00110,ignore,1.0,8700.0,1.57920079181
169,1_23_1,23,1.0,698.97448761,1_I,training,03,1_A,170.0,11101,ignore,1.0,8800.0,3.83351999528
170,1_23_1,23,1.0,701.929673669,1_I,training,03,1_A,171.0,10000,ignore,1.0,8900.0,0.931526497016
171,1_23_1,23,1.0,704.836099266,1_I,training,03,1_A,172.0,00001,ignore,1.0,9000.0,0.923752443925
172,1_23_1,23,1.0,708.633105362,1_I,training,03,1_A,173.0,01101,kill,1.0,9100.0,1.74695407475
173,1_23_1,23,1.0,711.461427688,1_I,training,03,1_A,174.0,00000,ignore,1.0,9200.0,0.825257798749
174,1_23_1,23,1.0,714.117823137,1_I,training,03,1_A,175.0,00101,ignore,1.0,9300.0,0.620923906072
175,1_23_1,23,1.0,717.821131351,1_I,training,03,1_A,176.0,11100,kill,1.0,9400.0,1.68127023775
176,1_23_1,23,1.0,720.649400116,1_I,training,03,1_A,177.0,01000,kill,1.0,9500.0,0.85172178005
177,1_23_1,23,1.0,725.087076515,1_I,training,03,1_A,178.0,01111,kill,1.0,9600.0,2.40574149052
178,1_23_1,23,1.0,729.181032901,1_I,training,03,1_A,179.0,11111,ignore,1.0,9700.0,2.09046144629
179,1_23_1,23,1.0,733.524960102,1_I,training,03,1_A,180.0,01100,kill,1.0,9800.0,2.36362228089
180,1_23_1,23,1.0,738.447075565,1_I,training,03,1_A,181.0,11011,ignore,1.0,9900.0,2.93012781532
181,1_23_1,23,1.0,743.103574608,1_I,training,03,1_A,182.0,10111,ignore,1.0,10000.0,2.67378579932
182,1_23_1,23,1.0,747.744371276,1_I,training,03,1_A,183.0,11001,ignore,1.0,10100.0,2.6599593449
183,1_23_1,23,1.0,751.041364544,1_I,training,03,1_A,184.0,11110,kill,1.0,10200.0,1.3020604015
184,1_23_1,23,1.0,753.666603163,1_I,training,03,1_A,185.0,01010,kill,1.0,10300.0,0.640059321295
185,1_23_1,23,1.0,756.980587478,1_I,training,03,1_A,186.0,00011,ignore,1.0,10400.0,1.29993046682
186,1_23_1,23,1.0,760.402618591,1_I,training,03,1_A,187.0,10001,ignore,1.0,10500.0,1.43792175337
187,1_23_1,23,1.0,763.340270936,1_I,training,03,1_A,188.0,01110,kill,1.0,10600.0,0.937676078021
188,1_23_1,23,1.0,766.777917507,1_I,training,03,1_A,189.0,10110,ignore,1.0,10700.0,1.41706693146
189,1_23_1,23,1.0,769.762447978,1_I,training,03,1_A,190.0,10011,ignore,1.0,10800.0,0.998667387656
190,1_23_1,23,1.0,772.890708789,1_I,training,03,1_A,191.0,10100,ignore,1.0,10900.0,1.13199854006
191,1_23_1,23,1.0,776.468993911,1_I,training,03,1_A,192.0,11010,kill,1.0,11000.0,1.5719514448
192,1_23_1,23,1.0,779.422213285,1_I,training,03,1_A,193.0,10100,ignore,1.0,11100.0,0.937773578418
193,1_23_1,23,1.0,783.063041705,1_I,training,03,1_A,194.0,01110,kill,1.0,11200.0,1.64972661402
194,1_23_1,23,1.0,786.735064158,1_I,training,03,1_A,195.0,11101,ignore,1.0,11300.0,1.71017076681
195,1_23_1,23,1.0,789.766477888,1_I,training,03,1_A,196.0,00000,ignore,1.0,11400.0,0.998633070082
196,1_23_1,23,1.0,792.610368205,1_I,training,03,1_A,197.0,10000,ignore,1.0,11500.0,0.843395117796
197,1_23_1,23,1.0,796.001094634,1_I,training,03,1_A,198.0,11011,ignore,1.0,11600.0,1.42492052435
198,1_23_1,23,1.0,799.032513817,1_I,training,03,1_A,199.0,11001,ignore,1.0,11700.0,1.0453809828
199,1_23_1,23,1.0,801.720166803,1_I,training,03,1_A,200.0,00001,ignore,1.0,11800.0,0.706463506627
200,1_23_1,23,1.0,804.704687011,1_I,training,03,1_A,201.0,10010,ignore,1.0,11900.0,0.963606372933
201,1_23_1,23,1.0,807.236017994,1_I,training,03,1_A,202.0,10111,ignore,1.0,12000.0,0.521608846365
202,1_23_1,23,1.0,809.814248272,1_I,training,03,1_A,203.0,00110,ignore,1.0,12100.0,0.579515423024
203,1_23_1,23,1.0,813.675667493,1_I,training,03,1_A,204.0,01111,kill,1.0,12200.0,1.86602515254
204,1_23_1,23,1.0,816.5508301,1_I,training,03,1_A,205.0,00011,ignore,1.0,12300.0,0.90930025504
205,1_23_1,23,1.0,819.863499122,1_I,training,03,1_A,206.0,11100,kill,1.0,12400.0,1.32690408014
206,1_23_1,23,1.0,823.035529594,1_I,training,03,1_A,207.0,11010,kill,1.0,12500.0,1.19218515069
207,1_23_1,23,1.0,827.723249611,1_I,training,03,1_A,208.0,11110,kill,1.0,12600.0,2.72755181633
208,1_23_1,23,1.0,830.535848074,1_I,training,03,1_A,209.0,01000,kill,1.0,12700.0,0.831838754869
209,1_23_1,23,1.0,833.676611707,1_I,training,03,1_A,210.0,00010,ignore,1.0,12800.0,1.13192156606
210,1_23_1,23,1.0,836.254890415,1_I,training,03,1_A,211.0,10110,ignore,1.0,12900.0,0.572197440872
211,1_23_1,23,1.0,840.348828841,1_I,training,03,1_A,212.0,11000,kill,1.0,13000.0,2.09062758184
212,1_23_1,23,1.0,935.009439257,1_I,test,03,2,0.0,00100,ignore,1.0,100.0,2.68532388093
213,1_23_1,23,1.0,938.400225021,1_I,test,03,2,1.0,00111,ignore,0.0,0.0,1.35666254856
214,1_23_1,23,1.0,942.41600437,1_I,test,03,2,2.0,10001,ignore,0.0,0.0,1.93936661946
215,1_23_1,23,1.0,947.6818995,1_I,test,03,2,3.0,01100,ignore,1.0,100.0,3.29653302698
216,1_23_1,23,1.0,950.635132023,1_I,test,03,2,4.0,01010,kill,0.0,0.0,0.969841908237
217,1_23_1,23,1.0,954.713482894,1_I,test,03,2,5.0,10101,ignore,1.0,100.0,2.08128999441
218,1_23_1,23,1.0,958.244875135,1_I,test,03,2,6.0,11111,ignore,0.0,0.0,1.52986526984
219,1_23_1,23,1.0,960.932536139,1_I,test,03,2,7.0,01001,ignore,0.0,0.0,0.690350283008
220,1_23_1,23,1.0,964.104518502,1_I,test,03,2,8.0,01101,ignore,1.0,100.0,1.15596407367
221,1_23_1,23,1.0,967.651540314,1_I,test,03,2,9.0,00101,ignore,1.0,200.0,1.52183976836
222,1_23_1,23,1.0,970.807938328,1_I,test,03,2,10.0,10011,ignore,0.0,100.0,1.19573172766
223,1_23_1,23,1.0,978.870846932,1_I,test,03,2,11.0,01011,ignore,0.0,0.0,6.08262677617
224,1_23_1,23,1.0,982.792874196,1_I,test,03,2,12.0,10100,ignore,1.0,100.0,1.92039349108
225,1_23_1,23,1.0,986.355563745,1_I,test,03,2,13.0,11111,kill,1.0,200.0,1.61061067321
226,1_23_1,23,1.0,990.074480682,1_I,test,03,2,14.0,10101,kill,0.0,100.0,1.74428724643
227,1_23_1,23,1.0,993.637137517,1_I,test,03,2,15.0,00101,kill,0.0,0.0,1.5923684771
228,1_23_1,23,1.0,998.246722191,1_I,test,03,2,16.0,01001,kill,1.0,100.0,2.61477015564
229,1_23_1,23,1.0,1002.66882386,1_I,test,03,2,17.0,11001,ignore,0.0,0.0,2.41822827666
230,1_23_1,23,1.0,1006.27834151,1_I,test,03,2,18.0,11110,kill,0.0,0.0,1.65530241801
231,1_23_1,23,1.0,1011.05986973,1_I,test,03,2,19.0,11101,kill,0.0,0.0,2.81184668319
232,1_23_1,23,1.0,1014.46624017,1_I,test,03,2,20.0,00011,ignore,0.0,0.0,1.39990429566
233,1_23_1,23,1.0,1018.1226632,1_I,test,03,2,21.0,10011,kill,1.0,100.0,1.68560066659
234,1_23_1,23,1.0,1021.16969078,1_I,test,03,2,22.0,01100,ignore,1.0,200.0,1.05595977595
235,1_23_1,23,1.0,1024.09170714,1_I,test,03,2,23.0,10111,kill,1.0,300.0,0.94022327591
236,1_23_1,23,1.0,1026.71684762,1_I,test,03,2,24.0,00000,kill,0.0,200.0,0.627722634461
237,1_23_1,23,1.0,1030.09196821,1_I,test,03,2,25.0,00110,kill,0.0,100.0,1.3855435134
238,1_23_1,23,1.0,1032.82644608,1_I,test,03,2,26.0,00100,kill,0.0,0.0,0.752064186052
239,1_23_1,23,1.0,1035.85786495,1_I,test,03,2,27.0,00111,kill,1.0,100.0,1.03169532665
240,1_23_1,23,1.0,1039.04552659,1_I,test,03,2,28.0,01101,kill,0.0,0.0,1.23800264021
241,1_23_1,23,1.0,1042.60816194,1_I,test,03,2,29.0,01010,ignore,1.0,100.0,1.57777452776
242,1_23_1,23,1.0,1046.84274725,1_I,test,03,2,30.0,10000,kill,0.0,0.0,2.22449306208
243,1_23_1,23,1.0,1049.76479184,1_I,test,03,2,31.0,11100,ignore,1.0,100.0,0.965401791441
244,1_23_1,23,1.0,1053.014898,1_I,test,03,2,32.0,00001,kill,1.0,200.0,1.26094634399
245,1_23_1,23,1.0,1056.03067093,1_I,test,03,2,33.0,10110,ignore,1.0,300.0,1.05767854119
246,1_23_1,23,1.0,1059.04643296,1_I,test,03,2,34.0,11010,ignore,1.0,400.0,1.05434749142
247,1_23_1,23,1.0,1062.01534316,1_I,test,03,2,35.0,01011,kill,1.0,500.0,0.986667782789
248,1_23_1,23,1.0,1065.74987812,1_I,test,03,2,36.0,11000,ignore,1.0,600.0,1.7870331527
249,1_23_1,23,1.0,1068.4907535,1_I,test,03,2,37.0,00010,kill,0.0,500.0,0.793619881871
250,1_23_1,23,1.0,1071.33457422,1_I,test,03,2,38.0,01111,kill,1.0,600.0,0.873391884888
251,1_23_1,23,1.0,1075.1472519,1_I,test,03,2,39.0,10010,ignore,1.0,700.0,1.83767210103
252,1_23_1,23,1.0,1079.17868872,1_I,test,03,2,40.0,01000,kill,0.0,600.0,2.03310523372
253,1_23_1,23,1.0,1082.08510662,1_I,test,03,2,41.0,10001,ignore,0.0,500.0,0.933794022712
254,1_23_1,23,1.0,1086.02616795,1_I,test,03,2,42.0,01110,kill,0.0,400.0,1.9416206747
255,1_23_1,23,1.0,1089.30377981,1_I,test,03,2,43.0,11011,kill,1.0,500.0,1.30239267259
256,1_23_1,23,1.0,1092.5069995,1_I,test,03,2,44.0,10110,ignore,1.0,600.0,1.24071404929
257,1_23_1,23,1.0,1095.78841003,1_I,test,03,2,45.0,10011,ignore,0.0,500.0,1.30160593418
258,1_23_1,23,1.0,1100.00737892,1_I,test,03,2,46.0,11110,ignore,1.0,600.0,2.28952422372
259,1_23_1,23,1.0,1103.46690182,1_I,test,03,2,47.0,01110,kill,0.0,500.0,1.48343936502
260,1_23_1,23,1.0,1107.32644448,1_I,test,03,2,48.0,01000,kill,0.0,400.0,1.87064391315
261,1_23_1,23,1.0,1111.05247093,1_I,test,03,2,49.0,00100,ignore,1.0,500.0,1.75313284173
262,1_23_1,23,1.0,1117.66215663,1_I,test,03,2,50.0,10100,ignore,1.0,600.0,4.61728014943
263,1_23_1,23,1.0,1122.7899556,1_I,test,03,2,51.0,01101,kill,0.0,500.0,3.19742772142
264,1_23_1,23,1.0,1126.39950018,1_I,test,03,2,52.0,10000,ignore,1.0,600.0,1.63432251336
265,1_23_1,23,1.0,1130.18092546,1_I,test,03,2,53.0,10101,ignore,1.0,700.0,1.75092112218
266,1_23_1,23,1.0,1135.86871122,1_I,test,03,2,54.0,01111,ignore,0.0,600.0,3.75038968087
267,1_23_1,23,1.0,1138.86883278,1_I,test,03,2,55.0,10111,ignore,0.0,500.0,1.03765471774
268,1_23_1,23,1.0,1142.2596426,1_I,test,03,2,56.0,00001,ignore,0.0,400.0,1.42644717531
269,1_23_1,23,1.0,1146.43168301,1_I,test,03,2,57.0,00110,ignore,1.0,500.0,2.18366477054
270,1_23_1,23,1.0,1151.62257564,1_I,test,03,2,58.0,11001,kill,1.0,600.0,3.23830636678
271,1_23_1,23,1.0,1155.10712215,1_I,test,03,2,59.0,11111,ignore,0.0,500.0,1.55575419123
272,1_23_1,23,1.0,1159.31045506,1_I,test,03,2,60.0,11010,kill,0.0,400.0,2.26970630571
273,1_23_1,23,1.0,1163.02935468,1_I,test,03,2,61.0,01100,ignore,1.0,500.0,1.76069970647
274,1_23_1,23,1.0,1166.49827803,1_I,test,03,2,62.0,00000,ignore,1.0,600.0,1.52182437356
275,1_23_1,23,1.0,1170.10780593,1_I,test,03,2,63.0,10010,ignore,1.0,700.0,1.63553517455
276,1_23_1,23,1.0,1172.74865103,1_I,test,03,2,64.0,11000,kill,0.0,600.0,0.721943939837
277,1_23_1,23,1.0,1176.61480319,1_I,test,03,2,65.0,00010,ignore,1.0,700.0,1.88371089079
278,1_23_1,23,1.0,1181.58378235,1_I,test,03,2,66.0,11100,kill,0.0,600.0,2.99048376875
279,1_23_1,23,1.0,1184.66205111,1_I,test,03,2,67.0,11101,ignore,1.0,700.0,1.14111963812
280,1_23_1,23,1.0,1187.72468101,1_I,test,03,2,68.0,01001,ignore,0.0,600.0,1.08660601116
281,1_23_1,23,1.0,1191.00611334,1_I,test,03,2,69.0,00011,ignore,0.0,500.0,1.3633041217
282,1_23_1,23,1.0,1193.95934362,1_I,test,03,2,70.0,00101,ignore,1.0,600.0,0.945732369106
283,1_23_1,23,1.0,1197.66263579,1_I,test,03,2,71.0,01011,ignore,0.0,500.0,1.71499864013
284,1_23_1,23,1.0,1200.11585485,1_I,test,03,2,72.0,00111,ignore,0.0,400.0,0.509258047631
285,1_23_1,23,1.0,1203.78791707,1_I,test,03,2,73.0,01010,ignore,1.0,500.0,1.71207715617
286,1_23_1,23,1.0,1206.94772215,1_I,test,03,2,74.0,10001,ignore,0.0,400.0,1.23552792617
287,1_23_1,23,1.0,1209.83847937,1_I,test,03,2,75.0,11011,ignore,0.0,300.0,0.937904113491
288,1_23_1,23,1.0,1214.15117854,1_I,test,03,2,76.0,10011,ignore,0.0,200.0,2.35558106388
289,1_23_1,23,1.0,1218.35449252,1_I,test,03,2,77.0,00110,ignore,1.0,300.0,2.27660862827
290,1_23_1,23,1.0,1221.22961857,1_I,test,03,2,78.0,10010,ignore,1.0,400.0,0.937287680054
291,1_23_1,23,1.0,1224.54226738,1_I,test,03,2,79.0,01010,ignore,1.0,500.0,1.34689807616
292,1_23_1,23,1.0,1227.82325038,1_I,test,03,2,80.0,11001,ignore,0.0,400.0,1.3240149894
293,1_23_1,23,1.0,1231.57339439,1_I,test,03,2,81.0,00100,kill,0.0,300.0,1.77345012855
294,1_23_1,23,1.0,1235.27671286,1_I,test,03,2,82.0,10111,ignore,0.0,200.0,1.7742824099
295,1_23_1,23,1.0,1238.01119234,1_I,test,03,2,83.0,01110,ignore,1.0,300.0,0.757131640931
296,1_23_1,23,1.0,1241.46446816,1_I,test,03,2,84.0,01111,ignore,0.0,200.0,1.49434754273
297,1_23_1,23,1.0,1244.62085463,1_I,test,03,2,85.0,00101,ignore,1.0,300.0,1.20985132472
298,1_23_1,23,1.0,1247.25226849,1_I,test,03,2,86.0,10100,ignore,1.0,400.0,0.664038325354
299,1_23_1,23,1.0,1250.25239293,1_I,test,03,2,87.0,01001,kill,1.0,500.0,1.0953958003
300,1_23_1,23,1.0,1252.783764,1_I,test,03,2,88.0,11100,kill,0.0,400.0,0.562006083512
301,1_23_1,23,1.0,1255.36200519,1_I,test,03,2,89.0,01101,kill,0.0,300.0,0.627839378358
302,1_23_1,23,1.0,1257.98717068,1_I,test,03,2,90.0,11011,kill,1.0,400.0,0.707888487769
303,1_23_1,23,1.0,1261.48729191,1_I,test,03,2,91.0,11101,ignore,1.0,500.0,1.54313141771
304,1_23_1,23,1.0,1264.92496735,1_I,test,03,2,92.0,11010,kill,0.0,400.0,1.53062506735
305,1_23_1,23,1.0,1268.11263637,1_I,test,03,2,93.0,11000,ignore,1.0,500.0,1.25318351627
306,1_23_1,23,1.0,1271.42527364,1_I,test,03,2,94.0,10110,ignore,1.0,600.0,1.34595514469
307,1_23_1,23,1.0,1274.51915755,1_I,test,03,2,95.0,00000,ignore,1.0,700.0,1.16447836004
308,1_23_1,23,1.0,1280.64443177,1_I,test,03,2,96.0,11110,kill,0.0,600.0,4.21450857234
309,1_23_1,23,1.0,1283.33207064,1_I,test,03,2,97.0,00001,ignore,0.0,500.0,0.714781509307
310,1_23_1,23,1.0,1286.16033171,1_I,test,03,2,98.0,00011,ignore,0.0,400.0,0.893807313556
311,1_23_1,23,1.0,1289.45735833,1_I,test,03,2,99.0,01100,ignore,1.0,500.0,1.32148511066
312,1_23_1,23,1.0,1292.34807417,1_I,test,03,2,100.0,10001,kill,1.0,600.0,0.96480812948
313,1_23_1,23,1.0,1295.45760368,1_I,test,03,2,101.0,01000,ignore,1.0,700.0,1.19120982599
314,1_23_1,23,1.0,1298.66092601,1_I,test,03,2,102.0,10101,ignore,1.0,800.0,1.23863254409
315,1_23_1,23,1.0,1301.42667329,1_I,test,03,2,103.0,10000,ignore,1.0,900.0,0.845279697851
316,1_23_1,23,1.0,1304.97369574,1_I,test,03,2,104.0,01011,kill,1.0,1000.0,1.60375485578
317,1_23_1,23,1.0,1307.94260081,1_I,test,03,2,105.0,00010,ignore,1.0,1100.0,1.07683769006
318,1_23_1,23,1.0,1310.72398247,1_I,test,03,2,106.0,00111,ignore,0.0,1000.0,0.767566749285
319,1_23_1,23,1.0,1314.27099145,1_I,test,03,2,107.0,11111,kill,1.0,1100.0,1.58390582745
320,1_23_1,23,1.0,1317.28677914,1_I,test,03,2,108.0,00000,kill,0.0,1000.0,1.08834851004
321,1_23_1,23,1.0,1320.5056717,1_I,test,03,2,109.0,01101,kill,0.0,900.0,1.26833584782
322,1_23_1,23,1.0,1323.56827658,1_I,test,03,2,110.0,11100,kill,0.0,800.0,1.1633022615
323,1_23_1,23,1.0,1326.41219768,1_I,test,03,2,111.0,11111,ignore,0.0,700.0,0.867269244783
324,1_23_1,23,1.0,1329.35286773,1_I,test,03,2,112.0,00101,ignore,1.0,800.0,0.975443049505
325,1_23_1,23,1.0,1332.30617178,1_I,test,03,2,113.0,11000,kill,0.0,700.0,1.0338095458
326,1_23_1,23,1.0,1335.32191873,1_I,test,03,2,114.0,01011,kill,1.0,800.0,1.0475227843
327,1_23_1,23,1.0,1338.25955504,1_I,test,03,2,115.0,01000,ignore,1.0,900.0,1.03892126073
328,1_23_1,23,1.0,1341.0878206,1_I,test,03,2,116.0,10110,ignore,1.0,1000.0,0.892942318252
329,1_23_1,23,1.0,1343.69727858,1_I,test,03,2,117.0,01100,ignore,1.0,1100.0,0.65743972936
330,1_23_1,23,1.0,1346.49433119,1_I,test,03,2,118.0,10111,ignore,0.0,1000.0,0.888676675852
331,1_23_1,23,1.0,1349.40071926,1_I,test,03,2,119.0,11010,ignore,1.0,1100.0,0.990138027209
332,1_23_1,23,1.0,1352.69772503,1_I,test,03,2,120.0,01111,kill,1.0,1200.0,1.35839093554
333,1_23_1,23,1.0,1355.41658135,1_I,test,03,3,0.0,01110,ignore,1.0,1300.0,0.801184180817
334,1_23_1,23,1.0,1358.96361664,1_I,test,03,3,1.0,11101,kill,1.0,1400.0,1.57620137168
335,1_23_1,23,1.0,1361.6200448,1_I,test,03,3,2.0,11110,ignore,0.0,1300.0,0.770698308112
336,1_23_1,23,1.0,1364.77641138,1_I,test,03,3,3.0,10010,ignore,0.0,1200.0,1.17044544853
337,1_23_1,23,1.0,1368.44848034,1_I,test,03,3,4.0,11011,kill,1.0,1300.0,1.72302638669
338,1_23_1,23,1.0,1372.38612627,1_I,test,03,3,5.0,10100,ignore,0.0,1200.0,1.9980108636
339,1_23_1,23,1.0,1375.94881069,1_I,test,03,3,6.0,10001,ignore,1.0,1300.0,1.60414614027
340,1_23_1,23,1.0,1379.13646656,1_I,test,03,3,7.0,01001,kill,0.0,1200.0,1.29326804655
341,1_23_1,23,1.0,1381.8084547,1_I,test,03,3,8.0,10000,kill,1.0,1300.0,0.68792335699
342,1_23_1,23,1.0,1384.46482705,1_I,test,03,3,9.0,00110,kill,0.0,1200.0,0.70041270892
343,1_23_1,23,1.0,1388.4493463,1_I,test,03,3,10.0,01010,ignore,1.0,1300.0,2.0901997347
344,1_23_1,23,1.0,1392.5276946,1_I,test,03,3,11.0,00011,ignore,1.0,1400.0,2.14160008416
345,1_23_1,23,1.0,1395.777837,1_I,test,03,3,12.0,00010,ignore,1.0,1500.0,1.35339853031
346,1_23_1,23,1.0,1398.84046529,1_I,test,03,3,13.0,10101,ignore,1.0,1600.0,1.13150558575
347,1_23_1,23,1.0,1401.59060321,1_I,test,03,3,14.0,00001,ignore,1.0,1700.0,0.797606814252
348,1_23_1,23,1.0,1404.93452977,1_I,test,03,3,15.0,00111,ignore,1.0,1800.0,1.43139564122
349,1_23_1,23,1.0,1407.82527993,1_I,test,03,3,16.0,10011,ignore,1.0,1900.0,0.990626812096
350,1_23_1,23,1.0,1410.96605896,1_I,test,03,3,17.0,11001,kill,1.0,2000.0,1.20755300943
351,1_23_1,23,1.0,1414.68497493,1_I,test,03,3,18.0,00100,kill,0.0,1900.0,1.79147487312
352,1_23_1,23,1.0,1417.70069944,1_I,test,03,3,19.0,00111,ignore,1.0,2000.0,1.0710556599
353,1_23_1,23,1.0,1420.90397558,1_I,test,03,3,20.0,01100,kill,0.0,1900.0,1.32684795326
354,1_23_1,23,1.0,1423.63848905,1_I,test,03,3,21.0,01101,ignore,1.0,2000.0,0.751867902356
355,1_23_1,23,1.0,1426.18551439,1_I,test,03,3,22.0,11000,ignore,0.0,1900.0,0.610435557369
356,1_23_1,23,1.0,1429.67007084,1_I,test,03,3,23.0,10110,ignore,0.0,1800.0,1.57168845031
357,1_23_1,23,1.0,1432.49827931,1_I,test,03,3,24.0,10000,ignore,0.0,1700.0,0.892047816247
358,1_23_1,23,1.0,1435.74841369,1_I,test,03,3,25.0,01111,kill,0.0,1600.0,1.37915948243
359,1_23_1,23,1.0,1439.1860949,1_I,test,03,3,26.0,10101,ignore,1.0,1700.0,1.4671811737
360,1_23_1,23,1.0,1441.87372287,1_I,test,03,3,27.0,10001,ignore,1.0,1800.0,0.743387612831
361,1_23_1,23,1.0,1445.67077034,1_I,test,03,3,28.0,10100,kill,1.0,1900.0,1.88338856218
362,1_23_1,23,1.0,1448.26466611,1_I,test,03,3,29.0,11010,kill,1.0,2000.0,0.664239740649
363,1_23_1,23,1.0,1451.43663565,1_I,test,03,3,30.0,00000,kill,0.0,1900.0,1.29612410261
364,1_23_1,23,1.0,1454.608686,1_I,test,03,3,31.0,00001,ignore,1.0,2000.0,1.21151332163
365,1_23_1,23,1.0,1457.62444418,1_I,test,03,3,32.0,01001,ignore,1.0,2100.0,1.05004817289
366,1_23_1,23,1.0,1460.45269755,1_I,test,03,3,33.0,11110,kill,1.0,2200.0,0.945661488882
367,1_23_1,23,1.0,1464.87476972,1_I,test,03,3,34.0,10011,ignore,1.0,2300.0,2.47606685962
368,1_23_1,23,1.0,1467.78114079,1_I,test,03,3,35.0,11111,ignore,0.0,2200.0,1.01836407162
369,1_23_1,23,1.0,1472.51578608,1_I,test,03,3,36.0,11100,ignore,0.0,2100.0,2.81838915231
370,1_23_1,23,1.0,1475.48465652,1_I,test,03,3,37.0,01011,ignore,1.0,2200.0,1.015803724
371,1_23_1,23,1.0,1478.12541855,1_I,test,03,3,38.0,10010,kill,1.0,2300.0,0.753496864592
372,1_23_1,23,1.0,1481.29744806,1_I,test,03,3,39.0,01110,ignore,1.0,2400.0,1.26921687937
373,1_23_1,23,1.0,1483.90690059,1_I,test,03,3,40.0,11011,kill,1.0,2500.0,0.665915849459
374,1_23_1,23,1.0,1486.68826461,1_I,test,03,3,41.0,00100,ignore,1.0,2600.0,0.84786858999
375,1_23_1,23,1.0,1489.31343203,1_I,test,03,3,42.0,11001,kill,1.0,2700.0,0.686247568905
376,1_23_1,23,1.0,1492.23543011,1_I,test,03,3,43.0,00011,ignore,1.0,2800.0,1.04548008683
377,1_23_1,23,1.0,1495.14177841,1_I,test,03,3,44.0,00101,ignore,1.0,2900.0,0.922099427314
378,1_23_1,23,1.0,1497.89193428,1_I,test,03,3,45.0,00010,ignore,1.0,3000.0,0.797040413915
379,1_23_1,23,1.0,1501.4233262,1_I,test,03,3,46.0,01000,ignore,1.0,3100.0,1.65549324938
380,1_23_1,23,1.0,1504.97038618,1_I,test,03,4,0.0,01010,ignore,0.0,3000.0,1.6132284306
381,1_23_1,23,1.0,1508.37678067,1_I,test,03,4,1.0,10111,ignore,1.0,3100.0,1.5264344746
382,1_23_1,23,1.0,1511.43942788,1_I,test,03,4,2.0,11101,kill,0.0,3000.0,1.08807268655
383,1_23_1,23,1.0,1514.42393526,1_I,test,03,4,3.0,00110,ignore,0.0,2900.0,1.03630735204
384,1_23_1,23,1.0,1517.31467708,1_I,test,03,4,4.0,10101,ignore,1.0,3000.0,0.987750550365
385,1_23_1,23,1.0,1521.01799043,1_I,test,03,4,5.0,11111,kill,0.0,2900.0,1.77283177076
386,1_23_1,23,1.0,1524.19000294,1_I,test,03,4,6.0,00011,ignore,0.0,2800.0,1.29565199542
387,1_23_1,23,1.0,1527.45578004,1_I,test,03,4,7.0,10110,ignore,1.0,2900.0,1.35695023888
388,1_23_1,23,1.0,1530.8465549,1_I,test,03,4,8.0,01100,ignore,1.0,3000.0,1.45497470121
389,1_23_1,23,1.0,1533.87793463,1_I,test,03,4,9.0,01010,ignore,0.0,2900.0,1.18420743723
390,1_23_1,23,1.0,1536.78436953,1_I,test,03,4,10.0,10100,ignore,1.0,3000.0,1.01044120213
391,1_23_1,23,1.0,1539.47201161,1_I,test,03,4,11.0,00110,ignore,0.0,2900.0,0.76274625265
392,1_23_1,23,1.0,1543.44094619,1_I,test,03,4,12.0,00100,ignore,1.0,3000.0,2.03706233868
393,1_23_1,23,1.0,1547.45675376,1_I,test,03,4,13.0,00010,ignore,0.0,2900.0,2.06631181653
394,1_23_1,23,1.0,1550.94143658,1_I,test,03,4,14.0,10010,ignore,0.0,2800.0,1.6258983507
395,1_23_1,23,1.0,1554.2540886,1_I,test,03,4,15.0,11110,ignore,1.0,2900.0,1.35232474303
396,1_23_1,23,1.0,1557.06796772,1_I,test,03,4,16.0,10000,kill,0.0,2800.0,0.865444961026
397,1_23_1,23,1.0,1559.91188241,1_I,test,03,4,17.0,00001,ignore,1.0,2900.0,0.936442569699
398,1_23_1,23,1.0,1563.0213744,1_I,test,03,4,18.0,00111,kill,1.0,3000.0,1.17874516988
399,1_23_1,23,1.0,1565.80284778,1_I,test,03,4,19.0,01101,ignore,1.0,3100.0,0.927006198972
400,1_23_1,23,1.0,1568.41224643,1_I,test,03,4,20.0,01011,kill,1.0,3200.0,0.657797337726
401,1_23_1,23,1.0,1571.22486382,1_I,test,03,4,21.0,10111,kill,0.0,3100.0,0.871856574349
402,1_23_1,23,1.0,1574.28757486,1_I,test,03,4,22.0,00000,ignore,1.0,3200.0,1.15081579609
403,1_23_1,23,1.0,1577.06899115,1_I,test,03,4,23.0,11010,kill,1.0,3300.0,0.848898758666
404,1_23_1,23,1.0,1579.97533881,1_I,test,03,4,24.0,00101,ignore,1.0,3400.0,1.01735025992
405,1_23_1,23,1.0,1582.44422175,1_I,test,03,4,25.0,01110,kill,1.0,3500.0,0.595099450406
406,1_23_1,23,1.0,1585.58499276,1_I,test,03,4,26.0,10001,ignore,1.0,3600.0,1.21134846899
407,1_23_1,23,1.0,1588.1319886,1_I,test,03,4,27.0,11011,kill,1.0,3700.0,0.678164016195
408,1_23_1,23,1.0,1591.55400656,1_I,test,03,4,28.0,01001,ignore,1.0,3800.0,1.48389319088
409,1_23_1,23,1.0,1593.99164479,1_I,test,03,4,29.0,01000,kill,0.0,3700.0,0.579364682277
410,1_23_1,23,1.0,1596.86675865,1_I,test,03,4,30.0,11000,kill,0.0,3600.0,0.973804144794
411,1_23_1,23,1.0,1600.41376892,1_I,test,03,4,31.0,10011,ignore,0.0,3500.0,1.6154420745
412,1_23_1,23,1.0,1603.07016244,1_I,test,03,4,32.0,01111,ignore,0.0,3400.0,0.810022720158
413,1_23_1,23,1.0,1606.35157649,1_I,test,03,4,33.0,11101,kill,0.0,3300.0,1.41229069487
414,1_23_1,23,1.0,1609.33606719,1_I,test,03,4,34.0,11100,ignore,1.0,3400.0,1.05300333297
415,1_23_1,23,1.0,1612.16433051,1_I,test,03,4,35.0,11001,ignore,1.0,3500.0,0.923865339122
416,1_23_1,23,1.0,1615.28949215,1_I,test,03,4,36.0,00110,kill,1.0,3600.0,1.19147570701
417,1_23_1,23,1.0,1618.08650723,1_I,test,03,4,37.0,01010,kill,1.0,3700.0,0.947486414089
418,1_23_1,23,1.0,1621.07101204,1_I,test,03,4,38.0,10110,kill,0.0,3600.0,1.0285480523
419,1_23_1,23,1.0,1623.71177022,1_I,test,03,4,39.0,10101,ignore,1.0,3700.0,0.700160939801
420,1_23_1,23,1.0,1626.30561339,1_I,test,03,4,40.0,01100,kill,0.0,3600.0,0.697745239158
421,1_23_1,23,1.0,1629.07140942,1_I,test,03,4,41.0,11001,kill,0.0,3500.0,0.838450179863
422,1_23_1,23,1.0,1632.02776388,1_I,test,03,4,42.0,11000,kill,0.0,3400.0,1.12874189849
423,1_23_1,23,1.0,1634.49663078,1_I,test,03,4,43.0,11111,kill,0.0,3300.0,0.52435617665
424,1_23_1,23,1.0,1637.43426036,1_I,test,03,4,44.0,01011,ignore,0.0,3200.0,1.00815796091
425,1_23_1,23,1.0,1640.68442457,1_I,test,03,4,45.0,11101,ignore,1.0,3300.0,1.37845869832
426,1_23_1,23,1.0,1644.80963464,1_I,test,03,4,46.0,00010,ignore,0.0,3200.0,2.1959029948
427,1_23_1,23,1.0,1647.51284921,1_I,test,03,4,47.0,00001,ignore,1.0,3300.0,0.838459480888
428,1_23_1,23,1.0,1650.80986107,1_I,test,03,4,48.0,10000,ignore,1.0,3400.0,1.38207230681
429,1_23_1,23,1.0,1654.01317538,1_I,test,03,4,49.0,10011,kill,1.0,3500.0,1.27062614499
430,1_23_1,23,1.0,1656.90392939,1_I,test,03,4,50.0,01110,kill,1.0,3600.0,1.03952454444
431,1_23_1,23,1.0,1659.87279405,1_I,test,03,4,51.0,11010,kill,1.0,3700.0,1.09710558523
432,1_23_1,23,1.0,1663.85738771,1_I,test,03,4,52.0,11100,kill,0.0,3600.0,2.05337922267
433,1_23_1,23,1.0,1667.0137745,1_I,test,03,4,53.0,10001,ignore,1.0,3700.0,1.24327696271
434,1_23_1,23,1.0,1670.77954294,1_I,test,03,4,54.0,00100,ignore,1.0,3800.0,1.82532579245
435,1_23_1,23,1.0,1673.45157854,1_I,test,03,4,55.0,00000,ignore,1.0,3900.0,0.786055582924
436,1_23_1,23,1.0,1677.95178734,1_I,test,03,4,56.0,00011,kill,1.0,4000.0,2.54587489929
437,1_23_1,23,1.0,1681.37378285,1_I,test,03,4,57.0,01101,ignore,1.0,4100.0,1.47494881229
438,1_23_1,23,1.0,1685.35835405,1_I,test,03,4,58.0,11110,kill,0.0,4000.0,2.09823357503
439,1_23_1,23,1.0,1688.65536656,1_I,test,03,4,59.0,10100,ignore,1.0,4100.0,1.34898278861
440,1_23_1,23,1.0,1692.79620396,1_I,test,03,4,60.0,01111,kill,1.0,4200.0,2.28999793453
441,1_23_1,23,1.0,1696.74951571,1_I,test,03,4,61.0,00111,kill,1.0,4300.0,1.98060319391
442,1_23_1,23,1.0,1701.5778701,1_I,test,03,4,62.0,01000,ignore,1.0,4400.0,2.88464420052
443,1_23_1,23,1.0,1704.89050962,1_I,test,03,4,63.0,00101,ignore,1.0,4500.0,1.42537787819
444,1_23_1,23,1.0,1707.96879346,1_I,test,03,4,64.0,01001,ignore,1.0,4600.0,1.16061618969
445,1_23_1,23,1.0,1710.59391758,1_I,test,03,4,65.0,10111,kill,0.0,4500.0,0.774095106506
446,1_23_1,23,1.0,1716.01604555,1_I,test,03,4,66.0,11011,ignore,0.0,4400.0,3.54593230907
447,1_23_1,23,1.0,1719.73494485,1_I,test,03,4,67.0,10010,kill,1.0,4500.0,1.79477449184
448,1_23_1,23,1.0,1723.00072837,1_I,test,03,4,68.0,01011,kill,1.0,4600.0,1.38085323111
449,1_23_1,23,1.0,1726.43844421,1_I,test,03,4,69.0,01000,ignore,1.0,4700.0,1.50981578839
450,1_23_1,23,1.0,1729.15732491,1_I,test,03,4,70.0,11001,ignore,1.0,4800.0,0.876782268782
451,1_23_1,23,1.0,1733.4387922,1_I,test,03,4,71.0,10110,kill,0.0,4700.0,2.37123404714
452,1_23_1,23,1.0,1736.6108355,1_I,test,03,4,72.0,00010,ignore,0.0,4600.0,1.25230408835
453,1_23_1,23,1.0,1739.59533005,1_I,test,03,4,73.0,11000,ignore,1.0,4700.0,1.15823288227
454,1_23_1,23,1.0,1742.50170978,1_I,test,03,4,74.0,01100,ignore,1.0,4800.0,1.01857991954
455,1_23_1,23,1.0,1745.31772589,1_I,test,03,4,75.0,01010,kill,1.0,4900.0,0.898711519415
456,1_23_1,23,1.0,1748.41162968,1_I,test,03,4,76.0,11111,kill,0.0,4800.0,1.19232883549
457,1_23_1,23,1.0,1751.42740582,1_I,test,03,4,77.0,00111,ignore,0.0,4700.0,1.06469504185
458,1_23_1,23,1.0,1755.22445618,1_I,test,03,4,78.0,00100,ignore,1.0,4800.0,1.91998039729
459,1_23_1,23,1.0,1759.69336895,1_I,test,03,4,79.0,00011,kill,1.0,4900.0,2.53020267254
460,1_23_1,23,1.0,1763.08419512,1_I,test,03,4,80.0,11101,ignore,1.0,5000.0,1.45271583509
461,1_23_1,23,1.0,1766.16244561,1_I,test,03,4,81.0,01110,kill,1.0,5100.0,1.20525822211
462,1_23_1,23,1.0,1770.2563898,1_I,test,03,4,82.0,10010,kill,1.0,5200.0,2.17303562357
463,1_23_1,23,1.0,1774.72534972,1_I,test,03,4,83.0,10101,ignore,1.0,5300.0,2.61724711476
464,1_23_1,23,1.0,1778.06926762,1_I,test,03,4,84.0,10000,ignore,1.0,5400.0,1.38280195617
465,1_23_1,23,1.0,1782.0694299,1_I,test,03,4,85.0,11110,kill,0.0,5300.0,2.09592050639
466,1_23_1,23,1.0,1785.75710759,1_I,test,03,4,86.0,10111,ignore,1.0,5400.0,1.80585586106
467,1_23_1,23,1.0,1788.51345794,1_I,test,03,4,87.0,10100,ignore,1.0,5500.0,0.829476936025
468,1_23_1,23,1.0,1791.0916863,1_I,test,03,4,88.0,11011,ignore,0.0,5400.0,0.720121259705
469,1_23_1,23,1.0,1794.670016,1_I,test,03,4,89.0,11010,kill,1.0,5500.0,1.67722525414
470,1_23_1,23,1.0,1798.04515359,1_I,test,03,4,90.0,01101,kill,0.0,5400.0,1.44152670228
471,1_23_1,23,1.0,1801.63908079,1_I,test,03,4,91.0,00110,ignore,0.0,5300.0,1.73941864105
472,1_23_1,23,1.0,1805.3423595,1_I,test,03,4,92.0,10011,ignore,0.0,5200.0,1.82369779239
473,1_23_1,23,1.0,1808.90500382,1_I,test,03,4,93.0,01001,ignore,1.0,5300.0,1.64650108277
474,1_23_1,23,1.0,1813.09274854,1_I,test,03,4,94.0,00000,ignore,1.0,5400.0,2.26955107481
475,1_23_1,23,1.0,1819.24929216,1_I,test,03,4,95.0,11100,kill,0.0,5300.0,4.24288696112
476,1_23_1,23,1.0,1822.45254136,1_I,test,03,4,96.0,00101,ignore,1.0,5400.0,1.32997502194
477,1_23_1,23,1.0,1825.45267991,1_I,test,03,4,97.0,01111,kill,1.0,5500.0,1.0517666174
478,1_23_1,23,1.0,1828.32781237,1_I,test,03,4,98.0,10001,ignore,1.0,5600.0,0.937826818767
479,1_23_1,23,1.0,1830.84352309,1_I,test,03,4,99.0,00001,ignore,1.0,5700.0,0.63898809982
480,1_23_1,23,1.0,1833.40618056,1_I,test,03,4,100.0,10101,ignore,1.0,5800.0,0.630170728328
481,1_23_1,23,1.0,1836.85944901,1_I,test,03,4,101.0,10010,ignore,0.0,5700.0,1.60079552627
482,1_23_1,23,1.0,1839.85970206,1_I,test,03,4,102.0,00101,ignore,1.0,5800.0,1.03924711732
483,1_23_1,23,1.0,1842.25031463,1_I,test,03,4,103.0,00001,ignore,1.0,5900.0,0.461989918972
484,1_23_1,23,1.0,1844.51606672,1_I,test,03,4,104.0,01001,ignore,1.0,6000.0,0.382702531419
485,1_23_1,23,1.0,1847.60994773,1_I,test,03,4,105.0,01111,kill,1.0,6100.0,1.16875234129
486,1_23_1,23,1.0,1850.58198468,1_I,test,03,4,106.0,01101,ignore,1.0,6200.0,1.1167676309
487,1_23_1,23,1.0,1853.56650553,1_I,test,03,4,107.0,11100,ignore,1.0,6300.0,1.04042834747
488,1_23_1,23,1.0,1856.17600618,1_I,test,03,4,108.0,00110,kill,1.0,6400.0,0.678647028034
489,1_23_1,23,1.0,1859.7855158,1_I,test,03,4,109.0,10011,kill,1.0,6500.0,1.72669868785
490,1_23_1,23,1.0,1862.50441991,1_I,test,03,4,110.0,01000,ignore,1.0,6600.0,0.793792752642
491,1_23_1,23,1.0,1865.25450362,1_I,test,03,4,111.0,11000,ignore,1.0,6700.0,0.910120990296
492,1_23_1,23,1.0,1868.16089522,1_I,test,03,5,0.0,11110,kill,0.0,6600.0,0.995014971442
493,1_23_1,23,1.0,1872.62985834,1_I,test,03,5,1.0,01010,ignore,1.0,6700.0,2.55657428504
494,1_23_1,23,1.0,1876.17690934,1_I,test,03,5,2.0,10000,kill,0.0,6600.0,1.70494551524
495,1_23_1,23,1.0,1879.53644623,1_I,test,03,5,3.0,10100,ignore,1.0,6700.0,1.47847165561
496,1_23_1,23,1.0,1883.0209937,1_I,test,03,5,4.0,01110,kill,0.0,6600.0,1.56433550913
497,1_23_1,23,1.0,1887.17742378,1_I,test,03,5,5.0,10110,ignore,1.0,6700.0,2.23029465647
498,1_23_1,23,1.0,1890.22443565,1_I,test,03,5,6.0,00010,ignore,1.0,6800.0,1.12424308902
499,1_23_1,23,1.0,1893.69330801,1_I,test,03,5,7.0,00000,ignore,1.0,6900.0,1.61912880829
500,1_23_1,23,1.0,1897.38099146,1_I,test,03,5,8.0,11001,ignore,0.0,6800.0,1.73739518707
501,1_23_1,23,1.0,1900.32747882,1_I,test,03,5,9.0,11010,ignore,1.0,6900.0,1.03647829846
502,1_23_1,23,1.0,1903.09630987,1_I,test,03,5,10.0,10111,kill,1.0,7000.0,0.885287254132
503,1_23_1,23,1.0,1905.82916776,1_I,test,03,5,11.0,11011,kill,1.0,7100.0,0.819007189371
504,1_23_1,23,1.0,1908.48554525,1_I,test,03,5,12.0,00011,kill,1.0,7200.0,0.806111478876
505,1_23_1,23,1.0,1911.06375692,1_I,test,03,5,13.0,00111,kill,1.0,7300.0,0.613909329762
506,1_23_1,23,1.0,1913.62638232,1_I,test,03,5,14.0,10001,kill,1.0,7400.0,0.637788588348
507,1_23_1,23,1.0,1916.01805521,1_I,test,03,5,15.0,11111,kill,1.0,7500.0,0.527716091671
508,1_23_1,23,1.0,1918.89318543,1_I,test,03,5,16.0,01100,ignore,1.0,7600.0,0.955570928973
509,1_23_1,23,1.0,1921.59641827,1_I,test,03,5,17.0,11101,kill,0.0,7500.0,0.857253003269
510,1_23_1,23,1.0,1924.58094682,1_I,test,03,5,18.0,01011,kill,1.0,7600.0,1.0722606237
511,1_23_1,23,1.0,1927.54983521,1_I,test,03,5,19.0,00100,ignore,1.0,7700.0,1.04611416014
512,1_23_1,23,1.0,1929.98744939,1_I,test,03,5,20.0,01000,ignore,1.0,7800.0,0.592115104351
513,1_23_1,23,1.0,1932.4094542,1_I,test,03,5,21.0,00100,ignore,1.0,7900.0,0.53134830221
514,1_23_1,23,1.0,1935.94086408,1_I,test,03,5,22.0,10111,kill,1.0,8000.0,1.59867264755
515,1_23_1,23,1.0,1938.65974382,1_I,test,03,5,23.0,11011,kill,1.0,8100.0,0.815603655752
516,1_23_1,23,1.0,1941.40985351,1_I,test,03,5,24.0,01101,ignore,1.0,8200.0,0.823445702542
517,1_23_1,23,1.0,1944.34748885,1_I,test,03,5,25.0,01100,ignore,1.0,8300.0,1.0909402887
518,1_23_1,23,1.0,1947.39448533,1_I,test,03,5,26.0,01011,kill,1.0,8400.0,1.16129099507
519,1_23_1,23,1.0,1950.22274062,1_I,test,03,5,27.0,11000,ignore,1.0,8500.0,0.907555511082
520,1_23_1,23,1.0,1952.69166109,1_I,test,03,6,0.0,01010,ignore,1.0,8600.0,0.610579562891
521,1_23_1,23,1.0,1955.25426596,1_I,test,03,6,1.0,01110,ignore,1.0,8700.0,0.651935767764
522,1_23_1,23,1.0,1957.84811555,1_I,test,03,6,2.0,11110,ignore,0.0,8600.0,0.741711824746
523,1_23_1,23,1.0,1960.89514634,1_I,test,03,6,3.0,10010,kill,1.0,8700.0,1.10413170764
524,1_23_1,23,1.0,1964.05154019,1_I,test,03,6,4.0,00111,kill,0.0,8600.0,1.2116592515
525,1_23_1,23,1.0,1967.06733621,1_I,test,03,6,5.0,11010,kill,1.0,8700.0,1.15859466006
526,1_23_1,23,1.0,1970.2393391,1_I,test,03,6,6.0,00110,ignore,1.0,8800.0,1.2405665158
527,1_23_1,23,1.0,1972.89569446,1_I,test,03,6,7.0,00000,ignore,1.0,8900.0,0.810585913245
528,1_23_1,23,1.0,1975.98957066,1_I,test,03,6,8.0,11100,kill,1.0,9000.0,1.15420746289
529,1_23_1,23,1.0,1978.86472365,1_I,test,03,6,9.0,10101,kill,0.0,8900.0,0.932686238589
530,1_23_1,23,1.0,1981.58359216,1_I,test,03,6,10.0,10110,kill,1.0,9000.0,0.833617495677
531,1_23_1,23,1.0,1984.70876086,1_I,test,03,6,11.0,10011,kill,0.0,8900.0,1.19238496236
532,1_23_1,23,1.0,1987.70889428,1_I,test,03,6,12.0,11101,kill,1.0,9000.0,1.14884077159
533,1_23_1,23,1.0,1990.59961301,1_I,test,03,6,13.0,01001,kill,0.0,8900.0,0.98368183311
534,1_23_1,23,1.0,1993.88103155,1_I,test,03,6,14.0,01111,ignore,1.0,9000.0,1.3610891949
535,1_23_1,23,1.0,1996.92802899,1_I,test,03,6,15.0,11001,kill,1.0,9100.0,1.19842164817
536,1_23_1,23,1.0,1999.78758929,1_I,test,03,6,16.0,00010,ignore,1.0,9200.0,0.976628128352
537,1_23_1,23,1.0,2002.60016723,1_I,test,03,6,17.0,00011,ignore,1.0,9300.0,0.890324240138
538,1_23_1,23,1.0,2004.99094241,1_I,test,03,6,18.0,00001,ignore,1.0,9400.0,0.471756315716
539,1_23_1,23,1.0,2007.75667172,1_I,test,03,6,19.0,11111,kill,1.0,9500.0,0.837971016724
540,1_23_1,23,1.0,2010.61616242,1_I,test,03,6,20.0,10000,kill,1.0,9600.0,1.01617255774
541,1_23_1,23,1.0,2013.27254985,1_I,test,03,6,21.0,10001,kill,0.0,9500.0,0.719902204535
542,1_23_1,23,1.0,2016.14767654,1_I,test,03,6,22.0,10100,kill,1.0,9600.0,0.939553281401
543,1_23_1,23,1.0,2019.1790752,1_I,test,03,6,23.0,00101,ignore,1.0,9700.0,1.15253456133
544,1_23_1,23,1.0,2022.27294884,1_I,test,03,6,24.0,01111,ignore,1.0,9800.0,1.16335261532
545,1_23_1,23,1.0,2024.77307071,1_I,test,03,6,25.0,01101,ignore,1.0,9900.0,0.648405868498
546,1_23_1,23,1.0,2027.71071568,1_I,test,03,6,26.0,10000,kill,1.0,10000.0,0.990115897183
547,1_23_1,23,1.0,2031.69524743,1_I,test,03,6,27.0,10111,ignore,1.0,10100.0,2.06286209852
548,1_23_1,23,1.0,2034.22663871,1_I,test,03,6,28.0,00001,ignore,1.0,10200.0,0.646511345968
549,1_23_1,23,1.0,2038.35810998,1_I,test,03,6,29.0,11001,ignore,0.0,10100.0,2.22940239954
550,1_23_1,23,1.0,2041.19631737,1_I,test,03,6,30.0,11101,kill,1.0,10200.0,1.00811754956
551,1_23_1,23,1.0,2043.93079332,1_I,test,03,6,31.0,11111,kill,1.0,10300.0,0.841680521986
552,1_23_1,23,1.0,2047.02469294,1_I,test,03,6,32.0,01010,ignore,1.0,10400.0,1.16137181777
553,1_23_1,23,1.0,2049.54044374,1_I,test,03,6,33.0,01100,ignore,1.0,10500.0,0.662492110166
554,1_23_1,23,1.0,2052.1655685,1_I,test,03,6,34.0,01110,ignore,1.0,10600.0,0.774912955237
555,1_23_1,23,1.0,2055.72823304,1_I,test,03,6,35.0,10100,kill,1.0,10700.0,1.63339593885
556,1_23_1,23,1.0,2058.93151816,1_I,test,03,6,36.0,00111,ignore,1.0,10800.0,1.28828526307
557,1_23_1,23,1.0,2062.47853388,1_I,test,03,6,37.0,01000,ignore,1.0,10900.0,1.62986026653
558,1_23_1,23,1.0,2065.19739918,1_I,test,03,6,38.0,00110,ignore,1.0,11000.0,0.871556375757
559,1_23_1,23,1.0,2068.13503741,1_I,test,03,6,39.0,11011,kill,1.0,11100.0,1.0806379605
560,1_23_1,23,1.0,2071.94774139,1_I,test,03,7,0.0,11110,kill,0.0,11000.0,1.92681985775
561,1_23_1,23,1.0,2074.90098161,1_I,test,03,7,1.0,11100,ignore,1.0,11100.0,1.10888709711
562,1_23_1,23,1.0,2078.41674332,1_I,test,03,7,2.0,01011,kill,1.0,11200.0,1.58585391105
563,1_23_1,23,1.0,2081.60751504,1_I,test,03,7,3.0,00100,ignore,1.0,11300.0,1.3409338742
564,1_23_1,23,1.0,2085.62329118,1_I,test,03,7,4.0,10011,kill,1.0,11400.0,2.07162622966
565,1_23_1,23,1.0,2089.84224724,1_I,test,03,7,5.0,11000,ignore,1.0,11500.0,2.30881102114
566,1_23_1,23,1.0,2092.43613852,1_I,test,03,7,6.0,11010,ignore,0.0,11400.0,0.730837323152
567,1_23_1,23,1.0,2096.03319536,1_I,test,03,7,7.0,00101,ignore,1.0,11500.0,1.66995794654
568,1_23_1,23,1.0,2099.12706194,1_I,test,03,7,8.0,10110,ignore,1.0,11600.0,1.24720456097
569,1_23_1,23,1.0,2101.87719376,1_I,test,03,7,9.0,10010,ignore,0.0,11500.0,0.813185389308
570,1_23_1,23,1.0,2105.18987657,1_I,test,03,7,10.0,00011,ignore,0.0,11400.0,1.38160533122
571,1_23_1,23,1.0,2108.3462794,1_I,test,03,7,11.0,00000,kill,0.0,11300.0,1.28013499956
572,1_23_1,23,1.0,2111.54951705,1_I,test,03,7,12.0,10001,ignore,1.0,11400.0,1.27682479692
573,1_23_1,23,1.0,2114.75288652,1_I,test,03,7,13.0,10101,ignore,1.0,11500.0,1.35769784883
574,1_23_1,23,1.0,2117.61399208,1_I,test,03,7,14.0,00010,kill,1.0,11600.0,0.960865777874
575,1_23_1,23,1.0,2120.39534294,1_I,test,03,7,15.0,01001,ignore,1.0,11700.0,0.851256728811
576,1_23_1,23,1.0,2122.95973811,1_I,test,03,7,16.0,01110,kill,1.0,11800.0,0.73343711994
577,1_23_1,23,1.0,2126.50676441,1_I,test,03,7,17.0,10011,kill,1.0,11900.0,1.67526273791
578,1_23_1,23,1.0,2129.14750078,1_I,test,03,7,18.0,11010,kill,1.0,12000.0,0.745069494691
579,1_23_1,23,1.0,2131.83997555,1_I,test,03,7,19.0,11011,kill,1.0,12100.0,0.797624774851
580,1_23_1,23,1.0,2134.53401609,1_I,test,03,7,20.0,00110,kill,1.0,12200.0,0.766844155877
581,1_23_1,23,1.0,2137.22162161,1_I,test,03,7,21.0,00000,ignore,1.0,12300.0,0.852637449903
582,1_23_1,23,1.0,2140.3467329,1_I,test,03,8,0.0,11111,kill,0.0,12200.0,1.1948763541
583,1_23_1,23,1.0,2143.50942964,1_I,test,03,8,1.0,11000,kill,0.0,12100.0,1.25227971325
584,1_23_1,23,1.0,2146.8220297,1_I,test,03,8,2.0,11101,ignore,1.0,12200.0,1.43693167531
585,1_23_1,23,1.0,2149.21282316,1_I,test,03,8,3.0,11100,ignore,1.0,12300.0,0.492361292855
586,1_23_1,23,1.0,2152.24419841,1_I,test,03,8,4.0,01100,kill,1.0,12400.0,1.18181450806
587,1_23_1,23,1.0,2155.13493093,1_I,test,03,8,5.0,00010,kill,1.0,12500.0,0.949731489037
588,1_23_1,23,1.0,2157.88505922,1_I,test,03,8,6.0,00011,kill,0.0,12400.0,0.832632228499
589,1_23_1,23,1.0,2161.479014,1_I,test,03,8,7.0,11110,kill,0.0,12300.0,1.73119525224
590,1_23_1,23,1.0,2164.51039341,1_I,test,03,8,8.0,01111,ignore,0.0,12200.0,1.11797997137
591,1_23_1,23,1.0,2167.40721105,1_I,test,03,8,9.0,01001,ignore,1.0,12300.0,1.06960694511
