,unique_id,pair_id,sbj_id,wall_time,condition,block,rule_id,rule_num,trial,stimulus,choice,correct,points,reaction_time
0,3_7_1,7,1.0,42.2285652941,3_D,training,02,1_A,1.0,00110,ignore,1.0,100.0,4.42752821766
1,3_7_1,7,1.0,47.925497745,3_D,training,02,1_A,2.0,11001,kill,1.0,200.0,3.5404115792
2,3_7_1,7,1.0,52.3976044035,3_D,training,02,1_A,3.0,10001,kill,1.0,300.0,2.30822583651
3,3_7_1,7,1.0,56.0540415274,3_D,training,02,1_A,4.0,01110,ignore,1.0,400.0,1.48751747824
4,3_7_1,7,1.0,59.5229415498,3_D,training,02,1_A,5.0,00011,kill,1.0,500.0,1.320370083
5,3_7_1,7,1.0,63.210612894,3_D,training,02,1_A,6.0,10110,ignore,1.0,600.0,1.52588585837
6,3_7_1,7,1.0,66.9139619013,3_D,training,02,1_A,7.0,10011,kill,1.0,700.0,1.52750539229
7,3_7_1,7,1.0,72.0235355842,3_D,training,02,1_A,8.0,00101,kill,0.0,600.0,2.91942397961
8,3_7_1,7,1.0,76.6487434141,3_D,training,02,1_A,9.0,01000,kill,1.0,700.0,2.48356244915
9,3_7_1,7,1.0,80.6333408049,3_D,training,02,1_A,10.0,11011,kill,1.0,800.0,1.82740366339
10,3_7_1,7,1.0,84.5397510393,3_D,training,02,1_A,11.0,10010,ignore,1.0,900.0,1.76535847737
11,3_7_1,7,1.0,87.8367567284,3_D,training,02,1_A,12.0,11010,ignore,1.0,1000.0,1.16190741274
12,3_7_1,7,1.0,92.7745563627,3_D,training,02,1_A,13.0,01101,ignore,1.0,1100.0,2.77154349588
13,3_7_1,7,1.0,95.8683895716,3_D,training,02,1_A,14.0,01111,ignore,1.0,1200.0,0.959173376752
14,3_7_1,7,1.0,99.0716876734,3_D,training,02,1_A,15.0,01001,kill,1.0,1300.0,1.05020678307
15,3_7_1,7,1.0,102.415593751,3_D,training,02,1_A,16.0,01011,kill,1.0,1400.0,1.20466803455
16,3_7_1,7,1.0,107.63458019,3_D,training,02,1_A,17.0,01010,kill,0.0,1300.0,3.09423470556
17,3_7_1,7,1.0,112.181635758,3_D,training,02,1_A,18.0,10111,ignore,1.0,1400.0,2.40890337233
18,3_7_1,7,1.0,115.478724784,3_D,training,02,1_A,19.0,00000,ignore,0.0,1300.0,1.14190852938
19,3_7_1,7,1.0,119.025720826,3_D,training,02,1_A,20.0,00111,ignore,1.0,1400.0,1.38714948072
20,3_7_1,7,1.0,122.338356146,3_D,training,02,1_A,21.0,10101,ignore,1.0,1500.0,1.18174701115
21,3_7_1,7,1.0,125.322907969,3_D,training,02,1_A,22.0,11111,ignore,1.0,1600.0,0.851749630317
22,3_7_1,7,1.0,130.573155312,3_D,training,02,1_A,23.0,11110,ignore,1.0,1700.0,3.11822474451
23,3_7_1,7,1.0,133.588909744,3_D,training,02,1_A,24.0,11000,ignore,0.0,1600.0,0.873921029146
24,3_7_1,7,1.0,136.839083602,3_D,training,02,1_A,25.0,00001,kill,1.0,1700.0,1.11420197825
25,3_7_1,7,1.0,139.682953964,3_D,training,02,1_A,26.0,10000,kill,1.0,1800.0,0.710303766271
26,3_7_1,7,1.0,142.47994159,3_D,training,02,1_A,27.0,00100,kill,0.0,1700.0,0.64141096915
27,3_7_1,7,1.0,145.902007319,3_D,training,02,1_A,28.0,01100,ignore,1.0,1800.0,1.2717865286
28,3_7_1,7,1.0,148.652076493,3_D,training,02,1_A,29.0,11100,ignore,1.0,1900.0,0.585217452703
29,3_7_1,7,1.0,151.449140066,3_D,training,02,1_A,30.0,10100,ignore,1.0,2000.0,0.640491796414
30,3_7_1,7,1.0,154.589897064,3_D,training,02,1_A,31.0,11101,ignore,1.0,2100.0,0.991571444643
31,3_7_1,7,1.0,158.277553629,3_D,training,02,1_A,32.0,00010,ignore,1.0,2200.0,1.5380075258
32,3_7_1,7,1.0,161.433982543,3_D,training,02,1_A,33.0,01101,ignore,1.0,2300.0,1.01572938964
33,3_7_1,7,1.0,165.746656453,3_D,training,02,1_A,34.0,11011,kill,1.0,2400.0,2.16879936089
34,3_7_1,7,1.0,169.356210841,3_D,training,02,1_A,35.0,00000,ignore,0.0,2300.0,1.45800419231
35,3_7_1,7,1.0,172.981362018,3_D,training,02,1_A,36.0,01111,ignore,1.0,2400.0,1.38133434816
36,3_7_1,7,1.0,176.434645135,3_D,training,02,1_A,37.0,01000,kill,1.0,2500.0,1.30097960249
37,3_7_1,7,1.0,179.512917682,3_D,training,02,1_A,38.0,00111,ignore,1.0,2600.0,0.925597913862
38,3_7_1,7,1.0,183.794389803,3_D,training,02,1_A,39.0,10000,kill,1.0,2700.0,2.14142205341
39,3_7_1,7,1.0,187.294546214,3_D,training,02,1_A,40.0,00100,ignore,1.0,2800.0,1.31828049424
40,3_7_1,7,1.0,190.466577664,3_D,training,02,1_A,41.0,10010,ignore,1.0,2900.0,1.01982440886
41,3_7_1,7,1.0,193.669876176,3_D,training,02,1_A,42.0,11101,ignore,1.0,3000.0,1.01826316995
42,3_7_1,7,1.0,196.920032382,3_D,training,02,1_A,43.0,11110,ignore,1.0,3100.0,1.13192817726
43,3_7_1,7,1.0,200.123286147,3_D,training,02,1_A,44.0,10001,kill,1.0,3200.0,1.01344931577
44,3_7_1,7,1.0,203.326555923,3_D,training,02,1_A,45.0,00101,ignore,1.0,3300.0,1.042690832
45,3_7_1,7,1.0,206.248573209,3_D,training,02,1_A,46.0,00110,ignore,1.0,3400.0,0.777062637579
46,3_7_1,7,1.0,209.686231211,3_D,training,02,1_A,47.0,10011,kill,1.0,3500.0,1.27396807568
47,3_7_1,7,1.0,212.764487336,3_D,training,02,1_A,48.0,01100,ignore,1.0,3600.0,0.927808608449
48,3_7_1,7,1.0,217.358434262,3_D,training,02,1_A,49.0,11010,ignore,1.0,3700.0,2.46599142981
49,3_7_1,7,1.0,220.51487467,3_D,training,02,1_A,50.0,10101,ignore,1.0,3800.0,0.989990910904
50,3_7_1,7,1.0,224.202505372,3_D,training,02,1_A,51.0,11001,kill,1.0,3900.0,1.53326961935
51,3_7_1,7,1.0,228.046439365,3_D,training,02,1_A,52.0,01010,ignore,1.0,4000.0,1.71190113166
52,3_7_1,7,1.0,232.79667973,3_D,training,02,1_A,53.0,00011,kill,1.0,4100.0,2.60555379028
53,3_7_1,7,1.0,235.859305813,3_D,training,02,1_A,54.0,10100,ignore,1.0,4200.0,0.915253423191
54,3_7_1,7,1.0,238.65630165,3_D,training,02,1_A,55.0,11100,ignore,1.0,4300.0,0.642834681097
55,3_7_1,7,1.0,242.047130284,3_D,training,02,1_A,56.0,01011,kill,1.0,4400.0,1.21973401054
56,3_7_1,7,1.0,245.609775663,3_D,training,02,1_A,57.0,00010,ignore,1.0,4500.0,1.41611963778
57,3_7_1,7,1.0,248.906813373,3_D,training,02,1_A,58.0,10111,ignore,1.0,4600.0,1.13383179673
58,3_7_1,7,1.0,251.57880418,3_D,training,02,1_A,59.0,11111,ignore,1.0,4700.0,0.542100902916
59,3_7_1,7,1.0,254.266463209,3_D,training,02,1_A,60.0,01110,ignore,1.0,4800.0,0.555026384649
60,3_7_1,7,1.0,256.907189417,3_D,training,02,1_A,61.0,10110,ignore,1.0,4900.0,0.469324919144
61,3_7_1,7,1.0,261.954266333,3_D,training,02,1_A,62.0,11000,kill,1.0,5000.0,2.92230835105
62,3_7_1,7,1.0,265.032552427,3_D,training,02,1_A,63.0,01001,kill,1.0,5100.0,0.927849250747
63,3_7_1,7,1.0,268.095252405,3_D,training,02,1_A,64.0,00001,kill,1.0,5200.0,0.911198225207
64,3_7_1,7,1.0,271.610971121,3_D,training,02,1_A,65.0,00000,kill,1.0,5300.0,1.34292327309
65,3_7_1,7,1.0,274.611136153,3_D,training,02,1_A,66.0,11011,kill,1.0,5400.0,0.851841588646
66,3_7_1,7,1.0,277.783133529,3_D,training,02,1_A,67.0,11100,ignore,1.0,5500.0,1.02841512287
67,3_7_1,7,1.0,281.72082191,3_D,training,02,1_A,68.0,00010,ignore,1.0,5600.0,1.77225740449
68,3_7_1,7,1.0,284.90851296,3_D,training,02,1_A,69.0,10011,kill,1.0,5700.0,1.00459832685
69,3_7_1,7,1.0,288.017994274,3_D,training,02,1_A,70.0,01111,ignore,1.0,5800.0,0.947428984771
70,3_7_1,7,1.0,291.080678652,3_D,training,02,1_A,71.0,11001,kill,1.0,5900.0,0.91520210716
71,3_7_1,7,1.0,294.205811766,3_D,training,02,1_A,72.0,11111,ignore,1.0,6000.0,0.977689842628
72,3_7_1,7,1.0,297.112200243,3_D,training,02,1_A,73.0,11101,ignore,1.0,6100.0,0.741910746234
73,3_7_1,7,1.0,300.471716657,3_D,training,02,1_A,74.0,01010,ignore,1.0,6200.0,1.23171774048
74,3_7_1,7,1.0,303.440590816,3_D,training,02,1_A,75.0,01011,kill,1.0,6300.0,0.848991291055
75,3_7_1,7,1.0,306.956391637,3_D,training,02,1_A,76.0,11110,ignore,1.0,6400.0,1.36005215351
76,3_7_1,7,1.0,310.331585304,3_D,training,02,1_A,77.0,10010,ignore,1.0,6500.0,1.20895518099
77,3_7_1,7,1.0,313.128554456,3_D,training,02,1_A,78.0,10111,ignore,1.0,6600.0,0.647442860627
78,3_7_1,7,1.0,315.691158371,3_D,training,02,1_A,79.0,00111,ignore,1.0,6700.0,0.407407407405
79,3_7_1,7,1.0,319.769468276,3_D,training,02,1_A,80.0,10001,kill,1.0,6800.0,1.9215648844
80,3_7_1,7,1.0,322.957121967,3_D,training,02,1_A,81.0,10110,ignore,1.0,6900.0,1.02170421769
81,3_7_1,7,1.0,326.441695137,3_D,training,02,1_A,82.0,10101,ignore,1.0,7000.0,1.32963611598
82,3_7_1,7,1.0,329.660560059,3_D,training,02,1_A,83.0,00001,kill,1.0,7100.0,1.05285017443
83,3_7_1,7,1.0,332.879499287,3_D,training,02,1_A,84.0,11010,ignore,1.0,7200.0,1.1071950822
84,3_7_1,7,1.0,336.035915474,3_D,training,02,1_A,85.0,10000,kill,1.0,7300.0,1.01922380604
85,3_7_1,7,1.0,339.645419777,3_D,training,02,1_A,86.0,00011,kill,1.0,7400.0,1.43473627255
86,3_7_1,7,1.0,342.661161072,3_D,training,02,1_A,87.0,10100,ignore,1.0,7500.0,0.862667218418
87,3_7_1,7,1.0,345.614469232,3_D,training,02,1_A,88.0,00101,ignore,1.0,7600.0,0.754317320268
88,3_7_1,7,1.0,348.348955986,3_D,training,02,1_A,89.0,01110,ignore,1.0,7700.0,0.590801047339
89,3_7_1,7,1.0,351.442842974,3_D,training,02,1_A,90.0,01000,kill,1.0,7800.0,0.957121556592
90,3_7_1,7,1.0,354.521117162,3_D,training,02,1_A,91.0,01101,ignore,1.0,7900.0,0.917645160735
91,3_7_1,7,1.0,357.364994503,3_D,training,02,1_A,92.0,00110,ignore,1.0,8000.0,0.685559586942
92,3_7_1,7,1.0,360.427641113,3_D,training,02,1_A,93.0,11000,kill,1.0,8100.0,0.918726902652
93,3_7_1,7,1.0,363.474667123,3_D,training,02,1_A,94.0,00100,ignore,1.0,8200.0,0.878656882956
94,3_7_1,7,1.0,366.287277401,3_D,training,02,1_A,95.0,01100,ignore,1.0,8300.0,0.677495991193
95,3_7_1,7,1.0,369.865599622,3_D,training,02,1_A,96.0,01001,kill,1.0,8400.0,1.41388882731
96,3_7_1,7,1.0,373.22511152,3_D,training,02,1_A,97.0,10001,kill,1.0,8500.0,1.20015961338
97,3_7_1,7,1.0,376.2096227,3_D,training,02,1_A,98.0,00110,ignore,1.0,8600.0,0.801348667384
98,3_7_1,7,1.0,379.709803743,3_D,training,02,1_A,99.0,11010,ignore,1.0,8700.0,1.349506504
99,3_7_1,7,1.0,383.459978833,3_D,training,02,1_A,100.0,11000,kill,1.0,8800.0,1.60968986233
100,3_7_1,7,1.0,386.413226235,3_D,training,02,1_A,101.0,01101,ignore,1.0,8900.0,0.76631665029
101,3_7_1,7,1.0,389.46026415,3_D,training,02,1_A,102.0,01000,kill,1.0,9000.0,0.882735070525
102,3_7_1,7,1.0,392.632286158,3_D,training,02,1_A,103.0,01111,ignore,1.0,9100.0,1.04362929957
103,3_7_1,7,1.0,395.585545465,3_D,training,02,1_A,104.0,00100,ignore,1.0,9200.0,0.793267418918
104,3_7_1,7,1.0,398.663829095,3_D,training,02,1_A,105.0,10000,kill,1.0,9300.0,0.941357682583
105,3_7_1,7,1.0,402.382706744,3_D,training,02,1_A,106.0,01010,ignore,1.0,9400.0,1.57610044148
106,3_7_1,7,1.0,405.164115644,3_D,training,02,1_A,107.0,11110,ignore,1.0,9500.0,0.639098874086
107,3_7_1,7,1.0,407.898594187,3_D,training,02,1_A,108.0,10111,ignore,1.0,9600.0,0.586292626173
108,3_7_1,7,1.0,410.773759527,3_D,training,02,1_A,109.0,00101,ignore,1.0,9700.0,0.72568051214
109,3_7_1,7,1.0,413.50825367,3_D,training,02,1_A,110.0,01110,ignore,1.0,9800.0,0.571805084473
110,3_7_1,7,1.0,416.805309444,3_D,training,02,1_A,111.0,00001,kill,1.0,9900.0,1.14732750219
111,3_7_1,7,1.0,419.742925572,3_D,training,02,1_A,112.0,11101,ignore,1.0,10000.0,0.756127339293
112,3_7_1,7,1.0,422.524344325,3_D,training,02,1_A,113.0,10101,ignore,1.0,10100.0,0.616407746504
113,3_7_1,7,1.0,425.837010435,3_D,training,02,1_A,114.0,10010,ignore,1.0,10200.0,1.15960804405
114,3_7_1,7,1.0,428.821462909,3_D,training,02,1_A,115.0,00010,ignore,1.0,10300.0,0.825254137511
115,3_7_1,7,1.0,432.477931644,3_D,training,02,1_A,116.0,10011,kill,1.0,10400.0,1.49233872193
116,3_7_1,7,1.0,435.696810524,3_D,training,02,1_A,117.0,01011,kill,1.0,10500.0,1.06749700109
117,3_7_1,7,1.0,439.103186684,3_D,training,02,1_A,118.0,00111,ignore,1.0,10600.0,1.25811060123
118,3_7_1,7,1.0,441.962721162,3_D,training,02,1_A,119.0,11111,ignore,1.0,10700.0,0.688425895136
119,3_7_1,7,1.0,445.416021932,3_D,training,02,1_A,120.0,00011,kill,1.0,10800.0,1.31922635132
120,3_7_1,7,1.0,448.328669732,3_D,training,02,1_A,121.0,11100,ignore,1.0,10900.0,0.784559704352
121,3_7_1,7,1.0,450.906911489,3_D,training,02,1_A,122.0,10110,ignore,1.0,11000.0,0.448136735464
122,3_7_1,7,1.0,453.610174286,3_D,training,02,1_A,123.0,01100,ignore,1.0,11100.0,0.559457626507
123,3_7_1,7,1.0,456.86031366,3_D,training,02,1_A,124.0,11011,kill,1.0,11200.0,1.12514625069
124,3_7_1,7,1.0,459.797964683,3_D,training,02,1_A,125.0,01001,kill,1.0,11300.0,0.807199105377
125,3_7_1,7,1.0,463.048125815,3_D,training,02,1_A,126.0,00000,kill,1.0,11400.0,1.12429522564
126,3_7_1,7,1.0,466.032581163,3_D,training,02,1_A,127.0,11001,kill,1.0,11500.0,0.847986728444
127,3_7_1,7,1.0,469.34528381,3_D,training,02,1_A,128.0,10100,ignore,1.0,11600.0,1.17432424998
128,3_7_1,7,1.0,472.048500628,3_D,training,02,1_A,129.0,11111,ignore,1.0,11700.0,0.558932971413
129,3_7_1,7,1.0,475.517426924,3_D,training,02,1_A,130.0,00001,kill,1.0,11800.0,1.31167673692
130,3_7_1,7,1.0,478.548812219,3_D,training,02,1_A,131.0,00011,kill,1.0,11900.0,0.889732113901
131,3_7_1,7,1.0,481.627109397,3_D,training,02,1_A,132.0,01101,ignore,1.0,12000.0,0.936035594441
132,3_7_1,7,1.0,484.939758265,3_D,training,02,1_A,133.0,11010,ignore,1.0,12100.0,1.18882082331
133,3_7_1,7,1.0,487.908631192,3_D,training,02,1_A,134.0,00101,ignore,1.0,12200.0,0.767649635491
134,3_7_1,7,1.0,490.70563565,3_D,training,02,1_A,135.0,01100,ignore,1.0,12300.0,0.643560905559
135,3_7_1,7,1.0,494.799598585,3_D,training,02,1_A,136.0,11101,ignore,1.0,12400.0,1.95456724986
136,3_7_1,7,1.0,499.112279474,3_D,training,02,1_A,137.0,10000,kill,1.0,12500.0,2.13699368525
137,3_7_1,7,1.0,503.15934038,3_D,training,02,1_A,138.0,10010,ignore,1.0,12600.0,1.88641709834
138,3_7_1,7,1.0,507.050152593,3_D,training,02,1_A,139.0,01010,ignore,1.0,12700.0,1.77256653226
139,3_7_1,7,1.0,509.862765745,3_D,training,02,1_A,140.0,01110,ignore,1.0,12800.0,0.675325117842
140,3_7_1,7,1.0,514.269252338,3_D,training,02,1_A,141.0,01011,kill,1.0,12900.0,2.29054561667
141,3_7_1,7,1.0,517.956922861,3_D,training,02,1_A,142.0,00000,kill,1.0,13000.0,1.50119710036
142,3_7_1,7,1.0,521.14455151,3_D,training,02,1_A,143.0,10100,ignore,1.0,13100.0,1.00806482734
143,3_7_1,7,1.0,524.175945837,3_D,training,02,1_A,144.0,00100,ignore,1.0,13200.0,0.897086316851
144,3_7_1,7,1.0,527.082342934,3_D,training,02,1_A,145.0,00111,ignore,1.0,13300.0,0.719301724301
145,3_7_1,7,1.0,530.754380131,3_D,training,02,1_A,146.0,00010,ignore,1.0,13400.0,1.5476808028
146,3_7_1,7,1.0,533.926400086,3_D,training,02,1_A,147.0,10111,ignore,1.0,13500.0,1.01522854518
147,3_7_1,7,1.0,537.067202242,3_D,training,02,1_A,148.0,10101,ignore,1.0,13600.0,0.96373475606
148,3_7_1,7,1.0,539.973552128,3_D,training,02,1_A,149.0,10110,ignore,1.0,13700.0,0.767953015864
149,3_7_1,7,1.0,542.754927776,3_D,training,02,1_A,150.0,01111,ignore,1.0,13800.0,0.67821811037
150,3_7_1,7,1.0,546.426990836,3_D,training,02,1_A,151.0,11000,kill,1.0,13900.0,1.52919717918
151,3_7_1,7,1.0,550.630342717,3_D,training,02,1_A,152.0,01001,kill,1.0,14000.0,2.043352193
152,3_7_1,7,1.0,553.692943348,3_D,training,02,1_A,153.0,00110,ignore,1.0,14100.0,0.917224779812
153,3_7_1,7,1.0,557.068137836,3_D,training,02,1_A,154.0,10001,kill,1.0,14200.0,1.21770189574
154,3_7_1,7,1.0,560.755784548,3_D,training,02,1_A,155.0,11110,ignore,1.0,14300.0,1.54583753098
155,3_7_1,7,1.0,564.39659163,3_D,training,02,1_A,156.0,10011,kill,1.0,14400.0,1.49306740956
156,3_7_1,7,1.0,567.709269235,3_D,training,02,1_A,157.0,01000,kill,1.0,14500.0,1.19334812877
157,3_7_1,7,1.0,571.631288574,3_D,training,02,1_A,158.0,11011,kill,1.0,14600.0,1.8295404629
158,3_7_1,7,1.0,574.50643462,3_D,training,02,1_A,159.0,11001,kill,1.0,14700.0,0.755628136951
159,3_7_1,7,1.0,577.850343161,3_D,training,02,1_A,160.0,11100,ignore,1.0,14800.0,1.21532452668
160,3_7_1,7,1.0,581.194255396,3_D,training,02,1_A,161.0,10001,kill,1.0,14900.0,1.19587451958
161,3_7_1,7,1.0,585.16317184,3_D,training,02,1_A,162.0,11011,ignore,0.0,14800.0,1.83273314104
162,3_7_1,7,1.0,588.960246087,3_D,training,02,1_A,163.0,00001,kill,1.0,14900.0,1.65591616356
163,3_7_1,7,1.0,594.241751051,3_D,training,02,1_A,164.0,11101,ignore,1.0,15000.0,3.15924718973
164,3_7_1,7,1.0,598.163786811,3_D,training,02,1_A,165.0,11110,ignore,1.0,15100.0,1.78513198073
165,3_7_1,7,1.0,601.851462671,3_D,training,02,1_A,166.0,01100,ignore,1.0,15200.0,1.49067361937
166,3_7_1,7,1.0,606.039138531,3_D,training,02,1_A,167.0,11010,ignore,1.0,15300.0,2.05507852173
167,3_7_1,7,1.0,610.023708827,3_D,training,02,1_A,168.0,10101,ignore,1.0,15400.0,1.82190463757
168,3_7_1,7,1.0,613.758287128,3_D,training,02,1_A,169.0,01000,kill,1.0,15500.0,1.58928742971
169,3_7_1,7,1.0,617.149072658,3_D,training,02,1_A,170.0,00100,ignore,1.0,15600.0,1.2149919988
170,3_7_1,7,1.0,620.227308667,3_D,training,02,1_A,171.0,11111,ignore,1.0,15700.0,0.932616304704
171,3_7_1,7,1.0,623.446268011,3_D,training,02,1_A,172.0,10000,kill,1.0,15800.0,1.08737395757
172,3_7_1,7,1.0,626.587043482,3_D,training,02,1_A,173.0,11000,kill,1.0,15900.0,1.0171592595
173,3_7_1,7,1.0,629.821511352,3_D,training,02,1_A,174.0,01101,ignore,1.0,16000.0,1.06665747083
174,3_7_1,7,1.0,632.790399058,3_D,training,02,1_A,175.0,10111,ignore,1.0,16100.0,0.801535868264
175,3_7_1,7,1.0,635.931188898,3_D,training,02,1_A,176.0,11100,ignore,1.0,16200.0,0.905835084239
176,3_7_1,7,1.0,639.540740002,3_D,training,02,1_A,177.0,11001,kill,1.0,16300.0,1.36103454759
177,3_7_1,7,1.0,643.072172918,3_D,training,02,1_A,178.0,01001,kill,1.0,16400.0,1.20867684284
178,3_7_1,7,1.0,646.072311266,3_D,training,02,1_A,179.0,01011,kill,1.0,16500.0,0.856665295505
179,3_7_1,7,1.0,649.275560925,3_D,training,02,1_A,180.0,00101,ignore,1.0,16600.0,1.08200876395
180,3_7_1,7,1.0,652.760107,3_D,training,02,1_A,181.0,10110,ignore,1.0,16700.0,1.32898542871
181,3_7_1,7,1.0,656.68213496,3_D,training,02,1_A,182.0,10011,kill,1.0,16800.0,1.77237153134
182,3_7_1,7,1.0,660.416701356,3_D,training,02,1_A,183.0,01010,ignore,1.0,16900.0,1.59361480792
183,3_7_1,7,1.0,663.198097119,3_D,training,02,1_A,184.0,01111,ignore,1.0,17000.0,0.641750065479
184,3_7_1,7,1.0,666.166958963,3_D,training,02,1_A,185.0,00111,ignore,1.0,17100.0,0.807116999731
185,3_7_1,7,1.0,669.432774769,3_D,training,02,1_A,186.0,10100,ignore,1.0,17200.0,1.10169441427
186,3_7_1,7,1.0,673.073564198,3_D,training,02,1_A,187.0,00000,kill,1.0,17300.0,1.48490036069
187,3_7_1,7,1.0,676.526823505,3_D,training,02,1_A,188.0,01110,ignore,1.0,17400.0,1.31006089776
188,3_7_1,7,1.0,680.308269353,3_D,training,02,1_A,189.0,00010,ignore,1.0,17500.0,1.6238222971
189,3_7_1,7,1.0,683.339661626,3_D,training,02,1_A,190.0,10010,ignore,1.0,17600.0,0.910284799866
190,3_7_1,7,1.0,686.964847288,3_D,training,02,1_A,191.0,00011,kill,1.0,17700.0,1.47665284828
191,3_7_1,7,1.0,689.996209593,3_D,training,02,1_A,192.0,00110,ignore,1.0,17800.0,0.849689599596
192,3_7_1,7,1.0,692.9494845,3_D,training,02,1_A,193.0,01100,ignore,1.0,17900.0,0.783982501645
193,3_7_1,7,1.0,696.496522005,3_D,training,02,1_A,194.0,00110,ignore,1.0,18000.0,1.39015906327
194,3_7_1,7,1.0,699.981159217,3_D,training,02,1_A,195.0,00001,kill,1.0,18100.0,1.33975235294
195,3_7_1,7,1.0,703.950011207,3_D,training,02,1_A,196.0,10001,kill,1.0,18200.0,1.78347426768
196,3_7_1,7,1.0,707.887697946,3_D,training,02,1_A,197.0,01001,kill,1.0,18300.0,1.79106739807
197,3_7_1,7,1.0,711.028443039,3_D,training,02,1_A,198.0,10100,ignore,1.0,18400.0,0.99033370199
198,3_7_1,7,1.0,713.825482391,3_D,training,02,1_A,199.0,01110,ignore,1.0,18500.0,0.656839852109
199,3_7_1,7,1.0,716.528701261,3_D,training,02,1_A,200.0,11101,ignore,1.0,18600.0,0.577749122909
200,3_7_1,7,1.0,719.231938605,3_D,training,02,1_A,201.0,00101,ignore,1.0,18700.0,0.512381942339
201,3_7_1,7,1.0,721.935200169,3_D,training,02,1_A,202.0,10111,ignore,1.0,18800.0,0.543684310349
202,3_7_1,7,1.0,725.4978632,3_D,training,02,1_A,203.0,00010,ignore,1.0,18900.0,1.43009278759
203,3_7_1,7,1.0,728.294884079,3_D,training,02,1_A,204.0,11100,ignore,1.0,19000.0,0.657991383832
204,3_7_1,7,1.0,731.43563574,3_D,training,02,1_A,205.0,10101,ignore,1.0,19100.0,0.981584113542
205,3_7_1,7,1.0,734.295153386,3_D,training,02,1_A,206.0,00100,ignore,1.0,19200.0,0.68642539101
206,3_7_1,7,1.0,737.185899094,3_D,training,02,1_A,207.0,11111,ignore,1.0,19300.0,0.758594203508
207,3_7_1,7,1.0,740.014153372,3_D,training,02,1_A,208.0,01101,ignore,1.0,19400.0,0.685203248428
208,3_7_1,7,1.0,743.467477542,3_D,training,02,1_A,209.0,01011,kill,1.0,19500.0,1.30667691345
209,3_7_1,7,1.0,746.983265227,3_D,training,02,1_A,210.0,01010,ignore,1.0,19600.0,1.3791749696
210,3_7_1,7,1.0,751.124091604,3_D,training,02,1_A,211.0,00000,kill,1.0,19700.0,1.9704957457
211,3_7_1,7,1.0,754.171122951,3_D,training,02,1_A,212.0,11110,ignore,1.0,19800.0,0.906871257521
212,3_7_1,7,1.0,758.265067823,3_D,training,02,1_A,213.0,00011,kill,1.0,19900.0,1.95976741112
213,3_7_1,7,1.0,761.687065405,3_D,training,02,1_A,214.0,10110,ignore,1.0,20000.0,1.24401224031
214,3_7_1,7,1.0,765.109115944,3_D,training,02,1_A,215.0,10011,kill,1.0,20100.0,1.19782945507
215,3_7_1,7,1.0,768.921800938,3_D,training,02,1_A,216.0,11010,ignore,1.0,20200.0,1.68588965165
216,3_7_1,7,1.0,773.062582157,3_D,training,02,1_A,217.0,01000,kill,1.0,20300.0,1.90894935149
217,3_7_1,7,1.0,776.203408123,3_D,training,02,1_A,218.0,10010,ignore,1.0,20400.0,1.00615094466
218,3_7_1,7,1.0,779.734808197,3_D,training,02,1_A,219.0,11011,kill,1.0,20500.0,1.36249028075
219,3_7_1,7,1.0,782.938083309,3_D,training,02,1_A,220.0,11000,kill,1.0,20600.0,1.05340972443
220,3_7_1,7,1.0,786.313251523,3_D,training,02,1_A,221.0,11001,kill,1.0,20700.0,1.2222349486
221,3_7_1,7,1.0,789.547722677,3_D,training,02,1_A,222.0,00111,ignore,1.0,20800.0,1.07001969714
222,3_7_1,7,1.0,792.798021747,3_D,training,02,1_A,223.0,10000,kill,1.0,20900.0,1.10411160457
223,3_7_1,7,1.0,795.720002085,3_D,training,02,1_A,224.0,01111,ignore,1.0,21000.0,0.782598610938
224,3_7_1,7,1.0,798.860688883,3_D,training,02,1_A,225.0,10000,kill,1.0,21100.0,0.974897429518
225,3_7_1,7,1.0,801.923311682,3_D,training,02,1_A,226.0,01111,ignore,1.0,21200.0,0.963128816373
226,3_7_1,7,1.0,805.079743469,3_D,training,02,1_A,227.0,11101,ignore,1.0,21300.0,1.00400429248
227,3_7_1,7,1.0,808.439245104,3_D,training,02,1_A,228.0,01011,kill,1.0,21400.0,1.22763011077
228,3_7_1,7,1.0,811.501912651,3_D,training,02,1_A,229.0,01001,kill,1.0,21500.0,0.919216662849
229,3_7_1,7,1.0,815.189573322,3_D,training,02,1_A,230.0,11111,ignore,1.0,21600.0,1.56519065342
230,3_7_1,7,1.0,819.76791771,3_D,training,02,1_A,231.0,00101,ignore,1.0,21700.0,2.44034162518
231,3_7_1,7,1.0,824.79942329,3_D,training,02,1_A,232.0,00011,kill,1.0,21800.0,2.89835854387
232,3_7_1,7,1.0,830.987193161,3_D,training,02,1_A,233.0,10110,ignore,1.0,21900.0,4.02090902448
233,3_7_1,7,1.0,835.768668567,3_D,training,02,1_A,234.0,01101,ignore,1.0,22000.0,2.63538769877
234,3_7_1,7,1.0,840.690786433,3_D,training,02,1_A,235.0,00000,kill,1.0,22100.0,2.76860041891
235,3_7_1,7,1.0,990.940068213,3_D,test,02,2,0.0,10010,,,0.0,
236,3_7_1,7,1.0,997.799776755,3_D,test,02,2,1.0,10111,kill,1.0,100.0,4.63571242661
237,3_7_1,7,1.0,1007.62831758,3_D,test,02,2,2.0,01010,kill,0.0,0.0,7.67982697055
238,3_7_1,7,1.0,1012.78485857,3_D,test,02,2,3.0,11010,ignore,0.0,0.0,3.01950542842
239,3_7_1,7,1.0,1023.53535551,3_D,test,02,2,4.0,11000,ignore,1.0,100.0,8.61524554105
240,3_7_1,7,1.0,1033.06702777,3_D,test,02,2,5.0,10101,kill,0.0,0.0,7.39891932545
241,3_7_1,7,1.0,1040.05173477,3_D,test,02,2,6.0,10001,kill,0.0,0.0,4.81705547796
242,3_7_1,7,1.0,1045.55196754,3_D,test,02,2,7.0,00001,kill,0.0,0.0,3.33613847282
243,3_7_1,7,1.0,1055.09933018,3_D,test,02,2,8.0,10011,kill,1.0,100.0,7.42328089245
244,3_7_1,7,1.0,1064.36536152,3_D,test,02,2,9.0,01110,kill,0.0,0.0,7.13229847374
245,3_7_1,7,1.0,1075.24088976,3_D,test,02,2,10.0,00110,kill,1.0,100.0,8.76522218199
246,3_7_1,7,1.0,1086.49144295,3_D,test,02,2,11.0,01100,kill,0.0,0.0,9.04984674981
247,3_7_1,7,1.0,1095.77311377,3_D,test,02,2,12.0,10100,ignore,1.0,100.0,7.13157512297
248,3_7_1,7,1.0,1105.86731645,3_D,test,02,2,13.0,00111,kill,1.0,200.0,7.96005478089
249,3_7_1,7,1.0,1115.30524417,3_D,test,02,2,14.0,11001,ignore,1.0,300.0,7.29643423379
250,3_7_1,7,1.0,1120.77427967,3_D,test,02,2,15.0,11100,ignore,1.0,400.0,3.31493756276
251,3_7_1,7,1.0,1125.10256761,3_D,test,02,2,16.0,11110,ignore,0.0,300.0,2.20174261028
252,3_7_1,7,1.0,1133.55609622,3_D,test,02,2,17.0,00010,kill,1.0,400.0,6.28435320865
253,3_7_1,7,1.0,1145.46293176,3_D,test,02,2,18.0,01000,ignore,1.0,500.0,9.7658938062
254,3_7_1,7,1.0,1156.02595811,3_D,test,02,2,19.0,00100,kill,0.0,400.0,8.36767607351
255,3_7_1,7,1.0,1164.30755503,3_D,test,02,2,20.0,11011,ignore,0.0,300.0,6.11695826488
256,3_7_1,7,1.0,1183.07406545,3_D,test,02,2,21.0,11111,ignore,0.0,200.0,16.6459846643
257,3_7_1,7,1.0,1200.13735947,3_D,test,02,2,22.0,11101,ignore,1.0,300.0,14.9079850206
258,3_7_1,7,1.0,1213.27857133,3_D,test,02,2,23.0,00000,kill,0.0,200.0,10.9917340138
259,3_7_1,7,1.0,1224.9822738,3_D,test,02,2,24.0,01110,ignore,1.0,300.0,9.49274719753
260,3_7_1,7,1.0,1229.76374059,3_D,test,02,2,25.0,10000,kill,0.0,200.0,2.60938894513
261,3_7_1,7,1.0,1240.7799195,3_D,test,02,2,26.0,01101,kill,0.0,100.0,8.86649293111
262,3_7_1,7,1.0,1254.78051107,3_D,test,02,2,27.0,00001,kill,0.0,0.0,11.8489215013
263,3_7_1,7,1.0,1264.70286951,3_D,test,02,2,28.0,01000,ignore,1.0,100.0,7.81412718001
264,3_7_1,7,1.0,1274.23457789,3_D,test,02,2,29.0,11000,kill,0.0,0.0,7.40415520267
265,3_7_1,7,1.0,1287.03206431,3_D,test,02,2,30.0,10100,kill,0.0,0.0,10.642106404
266,3_7_1,7,1.0,1296.45434105,3_D,test,02,2,31.0,11011,ignore,0.0,0.0,7.3005785164
267,3_7_1,7,1.0,1300.51707633,3_D,test,02,2,32.0,00100,ignore,1.0,100.0,1.931436036
268,3_7_1,7,1.0,1304.31412061,3_D,test,02,2,33.0,11001,ignore,1.0,200.0,1.66677709876
269,3_7_1,7,1.0,1307.68924203,3_D,test,02,2,34.0,01010,kill,0.0,100.0,1.21755246346
270,3_7_1,7,1.0,1312.90827896,3_D,test,02,2,35.0,10111,kill,1.0,200.0,2.99574610635
271,3_7_1,7,1.0,1317.83033812,3_D,test,02,2,36.0,10011,kill,1.0,300.0,2.8156765136
272,3_7_1,7,1.0,1321.03363581,3_D,test,02,2,37.0,11010,kill,1.0,400.0,1.08494568301
273,3_7_1,7,1.0,1325.36195783,3_D,test,02,2,38.0,01100,ignore,1.0,500.0,2.17692864116
274,3_7_1,7,1.0,1328.78401411,3_D,test,02,2,39.0,00011,kill,1.0,600.0,1.28039571639
275,3_7_1,7,1.0,1334.64366354,3_D,test,02,2,40.0,01111,ignore,1.0,700.0,3.71644198456
276,3_7_1,7,1.0,1338.97199171,3_D,test,02,2,41.0,01001,ignore,1.0,800.0,2.19890750224
277,3_7_1,7,1.0,1342.37834488,3_D,test,02,2,42.0,10001,ignore,1.0,900.0,1.21852459434
278,3_7_1,7,1.0,1348.31617818,3_D,test,02,2,43.0,00110,ignore,0.0,800.0,3.781378521
279,3_7_1,7,1.0,1354.89459687,3_D,test,02,2,44.0,11110,ignore,0.0,700.0,4.46387761989
280,3_7_1,7,1.0,1358.55105493,3_D,test,02,2,45.0,11100,ignore,1.0,800.0,1.48563725889
281,3_7_1,7,1.0,1362.25429926,3_D,test,02,2,46.0,00010,kill,1.0,900.0,1.56877702815
282,3_7_1,7,1.0,1365.55135831,3_D,test,02,2,47.0,10010,kill,1.0,1000.0,1.14177592876
283,3_7_1,7,1.0,1368.55152581,3_D,test,02,2,48.0,01011,kill,0.0,900.0,0.836851970904
284,3_7_1,7,1.0,1373.28611479,3_D,test,02,2,49.0,10110,ignore,0.0,800.0,2.59435088506
285,3_7_1,7,1.0,1377.1456431,3_D,test,02,2,50.0,10101,ignore,1.0,900.0,1.71420460564
286,3_7_1,7,1.0,1380.84895352,3_D,test,02,2,51.0,00101,ignore,1.0,1000.0,1.55198478089
287,3_7_1,7,1.0,1384.38033718,3_D,test,02,3,0.0,00111,ignore,1.0,1100.0,1.3667121532
288,3_7_1,7,1.0,1387.75551114,3_D,test,02,3,1.0,01100,ignore,0.0,1000.0,1.23028130216
289,3_7_1,7,1.0,1392.20883161,3_D,test,02,3,2.0,10011,kill,0.0,900.0,2.31765854395
290,3_7_1,7,1.0,1395.72463449,3_D,test,02,3,3.0,11100,ignore,0.0,800.0,1.37632426148
291,3_7_1,7,1.0,1401.49049586,3_D,test,02,3,4.0,11101,ignore,1.0,900.0,3.61102284754
292,3_7_1,7,1.0,1405.11568727,3_D,test,02,3,5.0,11011,ignore,1.0,1000.0,1.51301908217
293,3_7_1,7,1.0,1410.75658672,3_D,test,02,3,6.0,01110,ignore,1.0,1100.0,3.48822440787
294,3_7_1,7,1.0,1414.22552041,3_D,test,02,3,7.0,11000,ignore,0.0,1000.0,1.35840018786
295,3_7_1,7,1.0,1418.725715,3_D,test,02,3,8.0,00101,ignore,1.0,1100.0,2.32377377266
296,3_7_1,7,1.0,1422.69462857,3_D,test,02,3,9.0,00011,ignore,1.0,1200.0,1.81327738654
297,3_7_1,7,1.0,1427.42922165,3_D,test,02,3,10.0,11111,ignore,1.0,1300.0,2.61145636536
298,3_7_1,7,1.0,1431.14815472,3_D,test,02,3,11.0,00111,ignore,1.0,1400.0,1.55765581805
299,3_7_1,7,1.0,1434.66396046,3_D,test,02,3,12.0,10100,ignore,0.0,1300.0,1.37420018835
300,3_7_1,7,1.0,1439.35169421,3_D,test,02,3,13.0,01001,ignore,1.0,1400.0,2.5303647215
301,3_7_1,7,1.0,1442.82056057,3_D,test,02,3,14.0,00001,ignore,1.0,1500.0,1.21333305417
302,3_7_1,7,1.0,1449.08653566,3_D,test,02,3,15.0,10101,kill,0.0,1400.0,4.06047491549
303,3_7_1,7,1.0,1452.44602457,3_D,test,02,3,16.0,01011,ignore,1.0,1500.0,1.20824250396
304,3_7_1,7,1.0,1455.50873399,3_D,test,02,3,17.0,10010,ignore,0.0,1400.0,0.94013266631
305,3_7_1,7,1.0,1460.18075394,3_D,test,02,3,18.0,01000,ignore,0.0,1300.0,2.46410464201
306,3_7_1,7,1.0,1463.61844438,3_D,test,02,3,19.0,00000,kill,1.0,1400.0,1.2736412952
307,3_7_1,7,1.0,1466.9467315,3_D,test,02,3,20.0,11001,ignore,1.0,1500.0,1.21572397066
308,3_7_1,7,1.0,1470.30622287,3_D,test,02,3,21.0,01010,kill,1.0,1600.0,1.23628609877
309,3_7_1,7,1.0,1473.33766933,3_D,test,02,3,22.0,10110,kill,0.0,1500.0,0.898315438404
310,3_7_1,7,1.0,1476.90029172,3_D,test,02,3,23.0,00110,kill,0.0,1400.0,1.4389043658
311,3_7_1,7,1.0,1482.3068247,3_D,test,02,3,24.0,10111,ignore,1.0,1500.0,3.2342457734
312,3_7_1,7,1.0,1485.74444658,3_D,test,02,3,25.0,00010,kill,1.0,1600.0,1.3142679912
313,3_7_1,7,1.0,1489.33838694,3_D,test,02,3,26.0,00100,kill,1.0,1700.0,1.45583290844
314,3_7_1,7,1.0,1492.35415368,3_D,test,02,3,27.0,01101,ignore,1.0,1800.0,0.849588199118
315,3_7_1,7,1.0,1497.63564305,3_D,test,02,3,28.0,11110,ignore,1.0,1900.0,3.17292434868
316,3_7_1,7,1.0,1501.5264413,3_D,test,02,3,29.0,10000,kill,1.0,2000.0,1.73854728834
317,3_7_1,7,1.0,1504.85475511,3_D,test,02,3,30.0,10001,ignore,1.0,2100.0,1.15046599061
318,3_7_1,7,1.0,1510.18626611,3_D,test,02,3,31.0,11010,kill,1.0,2200.0,3.18349996675
319,3_7_1,7,1.0,1514.34271062,3_D,test,02,3,32.0,01111,ignore,1.0,2300.0,2.00944009695
320,3_7_1,7,1.0,1520.57736364,3_D,test,02,3,33.0,00100,kill,1.0,2400.0,4.03061678584
321,3_7_1,7,1.0,1523.85876227,3_D,test,02,4,0.0,00011,ignore,1.0,2500.0,1.12841036075
322,3_7_1,7,1.0,1527.09327325,3_D,test,02,4,1.0,11000,kill,0.0,2400.0,1.11748497262
323,3_7_1,7,1.0,1530.96847923,3_D,test,02,4,2.0,10001,ignore,0.0,2300.0,1.69707079888
324,3_7_1,7,1.0,1537.2187274,3_D,test,02,4,3.0,10110,ignore,0.0,2200.0,4.08547649602
325,3_7_1,7,1.0,1541.07829841,3_D,test,02,4,4.0,11111,kill,1.0,2300.0,1.76484819076
326,3_7_1,7,1.0,1544.1722166,3_D,test,02,4,5.0,11011,kill,1.0,2400.0,0.959536283721
327,3_7_1,7,1.0,1547.10983929,3_D,test,02,4,6.0,00110,kill,0.0,2300.0,0.808826028802
328,3_7_1,7,1.0,1555.21960223,3_D,test,02,4,7.0,00000,ignore,1.0,2400.0,5.96394248335
329,3_7_1,7,1.0,1558.71978943,3_D,test,02,4,8.0,10000,ignore,0.0,2300.0,1.33368967185
330,3_7_1,7,1.0,1562.70432278,3_D,test,02,4,9.0,11101,ignore,0.0,2200.0,1.8330697742
331,3_7_1,7,1.0,1566.04827361,3_D,test,02,4,10.0,01011,kill,0.0,2100.0,1.20473782435
332,3_7_1,7,1.0,1571.54849406,3_D,test,02,4,11.0,11010,ignore,1.0,2200.0,3.36214174227
333,3_7_1,7,1.0,1575.50177759,3_D,test,02,4,12.0,00010,ignore,1.0,2300.0,1.80042128408
334,3_7_1,7,1.0,1579.00198449,3_D,test,02,4,13.0,10100,ignore,0.0,2200.0,1.34193677372
335,3_7_1,7,1.0,1582.2365045,3_D,test,02,4,14.0,01100,kill,0.0,2100.0,1.14888053053
336,3_7_1,7,1.0,1586.58043357,3_D,test,02,4,15.0,11001,ignore,0.0,2000.0,2.17898374554
337,3_7_1,7,1.0,1591.33064684,3_D,test,02,4,16.0,00111,kill,0.0,1900.0,2.59258479256
338,3_7_1,7,1.0,1595.11207462,3_D,test,02,4,17.0,00101,ignore,1.0,2000.0,1.64754631375
339,3_7_1,7,1.0,1600.00299521,3_D,test,02,4,18.0,01001,ignore,1.0,2100.0,2.73437344769
340,3_7_1,7,1.0,1605.36257608,3_D,test,02,4,19.0,10111,kill,1.0,2200.0,3.23022834402
341,3_7_1,7,1.0,1609.84713652,3_D,test,02,4,20.0,01010,ignore,1.0,2300.0,2.31299494311
342,3_7_1,7,1.0,1613.17542939,3_D,test,02,4,21.0,01110,ignore,1.0,2400.0,1.06592180422
343,3_7_1,7,1.0,1616.76939643,3_D,test,02,4,22.0,11110,ignore,1.0,2500.0,1.39814589024
344,3_7_1,7,1.0,1620.72269228,3_D,test,02,4,23.0,01111,kill,0.0,2400.0,1.82676652356
345,3_7_1,7,1.0,1626.78544521,3_D,test,02,4,24.0,01101,kill,0.0,2300.0,3.95175431034
346,3_7_1,7,1.0,1632.50448913,3_D,test,02,4,25.0,10010,ignore,0.0,2200.0,3.59371497681
347,3_7_1,7,1.0,1637.89535881,3_D,test,02,4,26.0,01000,ignore,1.0,2300.0,3.22398092522
348,3_7_1,7,1.0,1642.19241212,3_D,test,02,4,27.0,10101,kill,1.0,2400.0,2.16757147092
349,3_7_1,7,1.0,1650.23965284,3_D,test,02,4,28.0,10011,kill,1.0,2500.0,5.92318893413
350,3_7_1,7,1.0,1655.88058472,3_D,test,02,4,29.0,11100,kill,0.0,2400.0,3.49610203433
351,3_7_1,7,1.0,1661.25579153,3_D,test,02,4,30.0,00001,ignore,1.0,2500.0,3.22113555396
352,3_7_1,7,1.0,1665.99039282,3_D,test,02,4,31.0,11000,kill,0.0,2400.0,2.58187328964
353,3_7_1,7,1.0,1670.24060896,3_D,test,02,4,32.0,10011,kill,1.0,2500.0,2.13486797001
354,3_7_1,7,1.0,1675.50646254,3_D,test,02,4,33.0,00000,ignore,1.0,2600.0,3.11905442209
355,3_7_1,7,1.0,1678.9129245,3_D,test,02,4,34.0,01111,kill,0.0,2500.0,1.24741018258
356,3_7_1,7,1.0,1682.53807567,3_D,test,02,4,35.0,11101,ignore,0.0,2400.0,1.49773265251
357,3_7_1,7,1.0,1686.80390297,3_D,test,02,4,36.0,10101,ignore,0.0,2300.0,2.10771727412
358,3_7_1,7,1.0,1690.35093966,3_D,test,02,4,37.0,10001,kill,1.0,2400.0,1.43769659171
359,3_7_1,7,1.0,1694.06984112,3_D,test,02,4,38.0,11111,ignore,0.0,2300.0,1.55724323716
360,3_7_1,7,1.0,1698.3356442,3_D,test,02,4,39.0,10110,ignore,0.0,2200.0,2.10151131868
361,3_7_1,7,1.0,1703.94529875,3_D,test,02,4,40.0,00011,kill,0.0,2100.0,3.48103728992
362,3_7_1,7,1.0,1708.53927975,3_D,test,02,4,41.0,00010,ignore,1.0,2200.0,2.43680902965
363,3_7_1,7,1.0,1713.10198219,3_D,test,02,4,42.0,01101,ignore,1.0,2300.0,2.46111435428
364,3_7_1,7,1.0,1716.86781442,3_D,test,02,4,43.0,01010,kill,0.0,2200.0,1.60530788387
365,3_7_1,7,1.0,1721.05551409,3_D,test,02,4,44.0,11110,ignore,1.0,2300.0,2.04139397328
366,3_7_1,7,1.0,1724.86820319,3_D,test,02,4,45.0,10111,ignore,0.0,2200.0,1.68024611989
367,3_7_1,7,1.0,1728.82147769,3_D,test,02,4,46.0,00001,kill,0.0,2100.0,1.79340864063
368,3_7_1,7,1.0,1733.58731074,3_D,test,02,4,47.0,00101,ignore,1.0,2200.0,2.66037121606
369,3_7_1,7,1.0,1737.61875966,3_D,test,02,4,48.0,00100,ignore,1.0,2300.0,1.87999027869
370,3_7_1,7,1.0,1741.19703508,3_D,test,02,4,49.0,01011,kill,0.0,2200.0,1.43586727786
371,3_7_1,7,1.0,1745.71286998,3_D,test,02,4,50.0,01100,ignore,1.0,2300.0,2.40380994841
372,3_7_1,7,1.0,1749.40057293,3_D,test,02,4,51.0,00110,ignore,1.0,2400.0,1.55989196539
373,3_7_1,7,1.0,1754.86959365,3_D,test,02,4,52.0,10000,kill,1.0,2500.0,3.30679884034
374,3_7_1,7,1.0,1760.26047278,3_D,test,02,4,53.0,01001,ignore,1.0,2600.0,3.19322004396
375,3_7_1,7,1.0,1763.77625472,3_D,test,02,4,54.0,00111,ignore,1.0,2700.0,1.34054590404
376,3_7_1,7,1.0,1767.38574999,3_D,test,02,4,55.0,01000,ignore,1.0,2800.0,1.48955410886
377,3_7_1,7,1.0,1770.55793662,3_D,test,02,4,56.0,11100,kill,0.0,2700.0,0.966443010879
378,3_7_1,7,1.0,1777.49577238,3_D,test,02,4,57.0,11011,kill,1.0,2800.0,4.7792142161
379,3_7_1,7,1.0,1781.29266312,3_D,test,02,4,58.0,11010,ignore,1.0,2900.0,1.69245194562
380,3_7_1,7,1.0,1784.82411697,3_D,test,02,4,59.0,10010,ignore,0.0,2800.0,1.36818718118
381,3_7_1,7,1.0,1789.71492755,3_D,test,02,4,60.0,10100,kill,1.0,2900.0,2.76011438959
382,3_7_1,7,1.0,1794.21515252,3_D,test,02,4,61.0,11001,kill,1.0,3000.0,2.28067323348
383,3_7_1,7,1.0,1803.71559753,3_D,test,02,4,62.0,01110,ignore,1.0,3100.0,7.35549241631
384,3_7_1,7,1.0,1808.38767578,3_D,test,02,4,63.0,01001,ignore,1.0,3200.0,2.52245507384
385,3_7_1,7,1.0,1814.4661581,3_D,test,02,4,64.0,01010,ignore,1.0,3300.0,3.93646952279
386,3_7_1,7,1.0,1821.01332493,3_D,test,02,4,65.0,00111,kill,0.0,3200.0,4.42271559506
387,3_7_1,7,1.0,1826.76358541,3_D,test,02,4,66.0,01111,ignore,1.0,3300.0,3.60377497141
388,3_7_1,7,1.0,1833.65448465,3_D,test,02,4,67.0,01100,ignore,1.0,3400.0,4.72862358912
389,3_7_1,7,1.0,1840.32666882,3_D,test,02,4,68.0,00001,kill,0.0,3300.0,4.55849206408
390,3_7_1,7,1.0,1847.57706477,3_D,test,02,4,69.0,10010,ignore,0.0,3200.0,5.12523533531
391,3_7_1,7,1.0,1852.38976331,3_D,test,02,4,70.0,01110,ignore,1.0,3300.0,2.68072849058
392,3_7_1,7,1.0,1857.21808984,3_D,test,02,4,71.0,10001,kill,1.0,3400.0,2.70445414933
393,3_7_1,7,1.0,1861.42148688,3_D,test,02,4,72.0,01011,ignore,1.0,3500.0,2.03877439256
394,3_7_1,7,1.0,1866.20290769,3_D,test,02,4,73.0,11110,kill,0.0,3400.0,2.68726081598
395,3_7_1,7,1.0,1869.68744555,3_D,test,02,4,74.0,00010,ignore,1.0,3500.0,1.3558832392
396,3_7_1,7,1.0,1873.34386626,3_D,test,02,4,75.0,01000,ignore,1.0,3600.0,1.51693264792
397,3_7_1,7,1.0,1877.92221845,3_D,test,02,4,76.0,00100,ignore,1.0,3700.0,2.44712888862
398,3_7_1,7,1.0,1884.37560461,3_D,test,02,4,77.0,10000,kill,1.0,3800.0,4.28682458867
399,3_7_1,7,1.0,1888.0789376,3_D,test,02,4,78.0,00101,ignore,1.0,3900.0,1.59250268691
400,3_7_1,7,1.0,1894.14172749,3_D,test,02,4,79.0,00000,kill,0.0,3800.0,3.84952005143
401,3_7_1,7,1.0,1897.70439093,3_D,test,02,4,80.0,00110,ignore,1.0,3900.0,1.38930598558
402,3_7_1,7,1.0,1901.43891997,3_D,test,02,4,81.0,10111,ignore,0.0,3800.0,1.53950513283
403,3_7_1,7,1.0,1904.92346891,3_D,test,02,4,82.0,11001,ignore,0.0,3700.0,1.31554473403
404,3_7_1,7,1.0,1908.93927548,3_D,test,02,4,83.0,10011,kill,1.0,3800.0,1.91461751494
405,3_7_1,7,1.0,1912.64257276,3_D,test,02,4,84.0,11010,kill,0.0,3700.0,1.54116818275
406,3_7_1,7,1.0,1916.56463028,3_D,test,02,4,85.0,10110,ignore,0.0,3600.0,1.74992548912
407,3_7_1,7,1.0,1925.33068543,3_D,test,02,4,86.0,11101,ignore,0.0,3500.0,6.6452999032
408,3_7_1,7,1.0,1931.9872219,3_D,test,02,4,87.0,11011,ignore,0.0,3400.0,4.49861159348
409,3_7_1,7,1.0,1935.81553529,3_D,test,02,4,88.0,11100,ignore,1.0,3500.0,1.71684922858
410,3_7_1,7,1.0,1939.3625847,3_D,test,02,4,89.0,11000,ignore,1.0,3600.0,1.42845395884
411,3_7_1,7,1.0,1942.98776831,3_D,test,02,4,90.0,01101,ignore,1.0,3700.0,1.4386703647
412,3_7_1,7,1.0,1946.25354512,3_D,test,02,5,0.0,10101,ignore,1.0,3800.0,1.14240362644
413,3_7_1,7,1.0,1950.06619645,3_D,test,02,5,1.0,11111,kill,1.0,3900.0,1.70300334252
414,3_7_1,7,1.0,1953.16011833,3_D,test,02,5,2.0,00011,kill,1.0,4000.0,0.935963341468
415,3_7_1,7,1.0,1956.81652836,3_D,test,02,5,3.0,10100,ignore,1.0,4100.0,1.52321290898
416,3_7_1,7,1.0,1960.30103749,3_D,test,02,5,4.0,11011,kill,1.0,4200.0,1.34649117406
417,3_7_1,7,1.0,1963.59809203,3_D,test,02,5,5.0,10001,ignore,1.0,4300.0,1.1808582175
418,3_7_1,7,1.0,1966.69197943,3_D,test,02,5,6.0,10011,kill,1.0,4400.0,0.928155915342
419,3_7_1,7,1.0,1969.84838043,3_D,test,02,5,7.0,01001,ignore,1.0,4500.0,0.993852339558
420,3_7_1,7,1.0,1973.48917109,3_D,test,02,5,8.0,11100,ignore,1.0,4600.0,1.50402317678
421,3_7_1,7,1.0,1976.39555874,3_D,test,02,5,9.0,11101,ignore,1.0,4700.0,0.747145391862
422,3_7_1,7,1.0,1979.47381733,3_D,test,02,5,10.0,11010,kill,1.0,4800.0,0.980997468683
423,3_7_1,7,1.0,1982.77089281,3_D,test,02,6,0.0,11001,ignore,1.0,4900.0,1.11892797939
424,3_7_1,7,1.0,1986.02102644,3_D,test,02,6,1.0,00100,ignore,0.0,4800.0,1.06624201625
425,3_7_1,7,1.0,1990.08370794,3_D,test,02,6,2.0,11000,ignore,0.0,4700.0,1.94182075844
426,3_7_1,7,1.0,1993.88073292,3_D,test,02,6,3.0,00011,ignore,1.0,4800.0,1.64395624426
427,3_7_1,7,1.0,1997.53716471,3_D,test,02,6,4.0,01011,ignore,1.0,4900.0,1.55236328794
428,3_7_1,7,1.0,2000.6936121,3_D,test,02,6,5.0,10000,kill,1.0,5000.0,1.01204038284
429,3_7_1,7,1.0,2003.67807607,3_D,test,02,6,6.0,01010,ignore,0.0,4900.0,0.840192849748
430,3_7_1,7,1.0,2008.60020132,3_D,test,02,6,7.0,00101,kill,0.0,4800.0,2.81383159967
431,3_7_1,7,1.0,2012.20975982,3_D,test,02,6,8.0,11110,ignore,1.0,4900.0,1.50408229285
432,3_7_1,7,1.0,2015.3661173,3_D,test,02,6,9.0,11111,ignore,1.0,5000.0,0.993236957722
433,3_7_1,7,1.0,2018.42880168,3_D,test,02,6,10.0,10111,ignore,1.0,5100.0,0.912907254282
434,3_7_1,7,1.0,2021.30389846,3_D,test,02,6,11.0,00111,ignore,1.0,5200.0,0.710997969527
435,3_7_1,7,1.0,2024.03843037,3_D,test,02,6,12.0,10110,ignore,1.0,5300.0,0.6246987749
436,3_7_1,7,1.0,2026.91356369,3_D,test,02,6,13.0,00110,ignore,1.0,5400.0,0.729225012994
437,3_7_1,7,1.0,2030.14810217,3_D,test,02,6,14.0,01000,kill,1.0,5500.0,1.09363451327
438,3_7_1,7,1.0,2033.39820131,3_D,test,02,6,15.0,01111,ignore,1.0,5600.0,1.14193398213
439,3_7_1,7,1.0,2036.2420922,3_D,test,02,6,16.0,01110,ignore,1.0,5700.0,0.699254398605
440,3_7_1,7,1.0,2038.96098668,3_D,test,02,6,17.0,01101,ignore,1.0,5800.0,0.606433552312
441,3_7_1,7,1.0,2042.195519,3_D,test,02,7,0.0,10010,kill,1.0,5900.0,1.05085459664
442,3_7_1,7,1.0,2045.00813092,3_D,test,02,7,1.0,00000,kill,0.0,5800.0,0.638141932752
443,3_7_1,7,1.0,2050.14902668,3_D,test,02,7,2.0,00010,ignore,1.0,5900.0,3.00291598211
444,3_7_1,7,1.0,2053.39918412,3_D,test,02,7,3.0,01100,ignore,1.0,6000.0,1.09387959864
445,3_7_1,7,1.0,2056.38366902,3_D,test,02,7,4.0,00001,ignore,1.0,6100.0,0.872347884921
446,3_7_1,7,1.0,2059.49317702,3_D,test,02,7,5.0,10100,kill,1.0,6200.0,0.920658027513
447,3_7_1,7,1.0,2062.41519882,3_D,test,02,7,6.0,10101,kill,1.0,6300.0,0.748277218227
448,3_7_1,7,1.0,2065.54034466,3_D,test,02,7,7.0,01111,ignore,1.0,6400.0,0.962657940479
449,3_7_1,7,1.0,2068.88426963,3_D,test,02,7,8.0,10010,kill,1.0,6500.0,1.20165722041
450,3_7_1,7,1.0,2071.88442316,3_D,test,02,7,9.0,11010,kill,0.0,6400.0,0.920757785872
451,3_7_1,7,1.0,2078.29410941,3_D,test,02,7,10.0,11000,ignore,1.0,6500.0,4.28940722185
452,3_7_1,7,1.0,2081.70050199,3_D,test,02,7,11.0,01000,ignore,1.0,6600.0,1.24511861393
453,3_7_1,7,1.0,2084.84134602,3_D,test,02,7,12.0,00011,kill,0.0,6500.0,1.02131544744
454,3_7_1,7,1.0,2088.85712057,3_D,test,02,7,13.0,01010,ignore,1.0,6600.0,1.91053850632
455,3_7_1,7,1.0,2093.49795105,3_D,test,02,7,14.0,11111,ignore,0.0,6500.0,2.46969152087
456,3_7_1,7,1.0,2099.87325967,3_D,test,02,7,15.0,00110,ignore,1.0,6600.0,4.23877759468
457,3_7_1,7,1.0,2103.68590689,3_D,test,02,7,16.0,10100,kill,1.0,6700.0,1.64724950182
458,3_7_1,7,1.0,2106.88920705,3_D,test,02,7,17.0,01110,ignore,1.0,6800.0,1.10799355963
459,3_7_1,7,1.0,2110.03004533,3_D,test,02,7,18.0,01100,kill,0.0,6700.0,0.975623243456
460,3_7_1,7,1.0,2113.43641574,3_D,test,02,7,19.0,00111,ignore,1.0,6800.0,1.23629882515
461,3_7_1,7,1.0,2117.18658344,3_D,test,02,7,20.0,11110,ignore,1.0,6900.0,1.63489958068
462,3_7_1,7,1.0,2122.81183849,3_D,test,02,7,21.0,00000,kill,0.0,6800.0,3.48167032448
463,3_7_1,7,1.0,2126.32759949,3_D,test,02,7,22.0,11100,ignore,1.0,6900.0,1.42145075755
464,3_7_1,7,1.0,2130.29656971,3_D,test,02,7,23.0,10001,kill,1.0,7000.0,1.77160589617
465,3_7_1,7,1.0,2133.39044315,3_D,test,02,7,24.0,00100,ignore,1.0,7100.0,0.92655157097
466,3_7_1,7,1.0,2137.76566555,3_D,test,02,7,25.0,11011,ignore,0.0,7000.0,2.24860153554
467,3_7_1,7,1.0,2141.59397443,3_D,test,02,7,26.0,00101,kill,0.0,6900.0,1.66290294373
468,3_7_1,7,1.0,2146.2816585,3_D,test,02,7,27.0,01011,kill,0.0,6800.0,2.58711245107
469,3_7_1,7,1.0,2149.5474505,3_D,test,02,7,28.0,10110,ignore,0.0,6700.0,1.11449140067
470,3_7_1,7,1.0,2156.53218418,3_D,test,02,7,29.0,00001,ignore,1.0,6800.0,4.82232748167
471,3_7_1,7,1.0,2162.57932555,3_D,test,02,7,30.0,10101,ignore,0.0,6700.0,3.95106092814
472,3_7_1,7,1.0,2166.28264377,3_D,test,02,7,31.0,01001,ignore,1.0,6800.0,1.56934150449
473,3_7_1,7,1.0,2170.5015752,3_D,test,02,7,32.0,10111,kill,1.0,6900.0,2.06562047649
474,3_7_1,7,1.0,2174.15798851,3_D,test,02,7,33.0,00010,kill,0.0,6800.0,1.50411636669
475,3_7_1,7,1.0,2179.12699527,3_D,test,02,7,34.0,11101,ignore,0.0,6700.0,2.80798116168
476,3_7_1,7,1.0,2183.26780194,3_D,test,02,7,35.0,10000,ignore,0.0,6600.0,1.99889567903
477,3_7_1,7,1.0,2187.51800454,3_D,test,02,7,36.0,11001,ignore,0.0,6500.0,2.15534060297
478,3_7_1,7,1.0,2191.83071252,3_D,test,02,7,37.0,10011,ignore,0.0,6400.0,2.15081658173
479,3_7_1,7,1.0,2194.79959161,3_D,test,02,7,38.0,01101,kill,0.0,6300.0,0.845945582019
480,3_7_1,7,1.0,2198.72162942,3_D,test,02,7,39.0,01001,kill,0.0,6200.0,1.75817998051
