,unique_id,pair_id,sbj_id,wall_time,condition,block,rule_id,rule_num,trial,stimulus,choice,correct,points,reaction_time
0,3_3_1,3,1.0,23.4127278534,3_D,training,03,1_A,1.0,10111,kill,0.0,0.0,3.10670778518
1,3_3_1,3,1.0,29.1474083763,3_D,training,03,1_A,2.0,10101,kill,0.0,0.0,3.57870072738
2,3_3_1,3,1.0,32.9913259488,3_D,training,03,1_A,3.0,00110,ignore,1.0,100.0,1.65338115166
3,3_3_1,3,1.0,37.7103259348,3_D,training,03,1_A,4.0,00011,ignore,1.0,200.0,2.54352789909
4,3_3_1,3,1.0,42.4136240366,3_D,training,03,1_A,5.0,00111,ignore,1.0,300.0,2.49748140923
5,3_3_1,3,1.0,49.1483324753,3_D,training,03,1_A,6.0,00000,ignore,1.0,400.0,4.59152398758
6,3_3_1,3,1.0,57.0549668581,3_D,training,03,1_A,7.0,01010,ignore,0.0,300.0,5.76105655191
7,3_3_1,3,1.0,61.5864108583,3_D,training,03,1_A,8.0,11111,kill,0.0,200.0,2.37724836055
8,3_3_1,3,1.0,66.492884314,3_D,training,03,1_A,9.0,11101,kill,0.0,100.0,2.74789830066
9,3_3_1,3,1.0,73.5244457253,3_D,training,03,1_A,10.0,10100,kill,0.0,0.0,4.87649504123
10,3_3_1,3,1.0,79.6497414083,3_D,training,03,1_A,11.0,10110,kill,0.0,0.0,3.98739267765
11,3_3_1,3,1.0,84.4468846243,3_D,training,03,1_A,12.0,10010,kill,0.0,0.0,2.63975120346
12,3_3_1,3,1.0,87.6969886932,3_D,training,03,1_A,13.0,01111,ignore,0.0,0.0,1.09857152593
13,3_3_1,3,1.0,91.9784866779,3_D,training,03,1_A,14.0,01100,ignore,0.0,0.0,2.11514003529
14,3_3_1,3,1.0,96.9161643854,3_D,training,03,1_A,15.0,01101,ignore,0.0,0.0,2.78207888218
15,3_3_1,3,1.0,102.63517915,3_D,training,03,1_A,16.0,11100,kill,1.0,100.0,3.5672835264
16,3_3_1,3,1.0,108.088561616,3_D,training,03,1_A,17.0,11000,kill,1.0,200.0,3.30081333856
17,3_3_1,3,1.0,115.807675318,3_D,training,03,1_A,18.0,00100,kill,0.0,100.0,5.53329055629
18,3_3_1,3,1.0,120.261028636,3_D,training,03,1_A,19.0,10001,ignore,1.0,200.0,2.26594881698
19,3_3_1,3,1.0,124.495619664,3_D,training,03,1_A,20.0,01001,ignore,0.0,100.0,2.11258613909
20,3_3_1,3,1.0,132.199106198,3_D,training,03,1_A,21.0,01011,ignore,0.0,0.0,5.53059543838
21,3_3_1,3,1.0,138.511907372,3_D,training,03,1_A,22.0,10000,kill,0.0,0.0,4.14694776357
22,3_3_1,3,1.0,144.340284808,3_D,training,03,1_A,23.0,11010,ignore,0.0,0.0,3.71112933856
23,3_3_1,3,1.0,148.715471496,3_D,training,03,1_A,24.0,11001,ignore,1.0,100.0,2.21160719344
24,3_3_1,3,1.0,152.293809316,3_D,training,03,1_A,25.0,01110,ignore,0.0,0.0,1.42752329132
25,3_3_1,3,1.0,155.747084634,3_D,training,03,1_A,26.0,10011,ignore,1.0,100.0,1.33146378772
26,3_3_1,3,1.0,160.153530994,3_D,training,03,1_A,27.0,11011,ignore,1.0,200.0,2.27588483205
27,3_3_1,3,1.0,164.919365685,3_D,training,03,1_A,28.0,00010,ignore,1.0,300.0,2.6318341663
28,3_3_1,3,1.0,170.185289459,3_D,training,03,1_A,29.0,00001,ignore,1.0,400.0,2.97846409889
29,3_3_1,3,1.0,174.294801152,3_D,training,03,1_A,30.0,00101,ignore,1.0,500.0,1.9412924086
30,3_3_1,3,1.0,178.545018527,3_D,training,03,1_A,31.0,11110,kill,1.0,600.0,2.10351346491
31,3_3_1,3,1.0,184.029654918,3_D,training,03,1_A,32.0,01000,kill,1.0,700.0,3.29984982877
32,3_3_1,3,1.0,189.608036255,3_D,training,03,1_A,33.0,11011,ignore,1.0,800.0,3.41458097793
33,3_3_1,3,1.0,193.686312906,3_D,training,03,1_A,34.0,01011,ignore,0.0,700.0,1.92330265045
34,3_3_1,3,1.0,198.139707277,3_D,training,03,1_A,35.0,01111,ignore,0.0,600.0,2.29987446046
35,3_3_1,3,1.0,206.327549811,3_D,training,03,1_A,36.0,10000,kill,0.0,500.0,6.01589688516
36,3_3_1,3,1.0,212.265301414,3_D,training,03,1_A,37.0,00101,ignore,1.0,600.0,3.51516860805
37,3_3_1,3,1.0,216.203057532,3_D,training,03,1_A,38.0,01100,ignore,0.0,500.0,1.75666348918
38,3_3_1,3,1.0,220.281347321,3_D,training,03,1_A,39.0,00110,ignore,1.0,600.0,1.85808408111
39,3_3_1,3,1.0,224.484668823,3_D,training,03,1_A,40.0,00111,ignore,1.0,700.0,1.97495695611
40,3_3_1,3,1.0,229.047390149,3_D,training,03,1_A,41.0,10011,ignore,1.0,800.0,2.33754371099
41,3_3_1,3,1.0,233.07881896,3_D,training,03,1_A,42.0,11010,ignore,0.0,700.0,1.87096153104
42,3_3_1,3,1.0,236.81653657,3_D,training,03,1_A,43.0,10101,ignore,1.0,800.0,1.54709990533
43,3_3_1,3,1.0,243.441786685,3_D,training,03,1_A,44.0,10100,ignore,1.0,900.0,4.44824347281
44,3_3_1,3,1.0,255.442342129,3_D,training,03,1_A,45.0,10010,kill,0.0,800.0,9.83578131325
45,3_3_1,3,1.0,259.630075463,3_D,training,03,1_A,46.0,10110,ignore,1.0,900.0,2.00140031184
46,3_3_1,3,1.0,263.177124874,3_D,training,03,1_A,47.0,11111,ignore,1.0,1000.0,1.36521618828
47,3_3_1,3,1.0,267.724196453,3_D,training,03,1_A,48.0,00011,ignore,1.0,1100.0,2.34631916272
48,3_3_1,3,1.0,272.552534889,3_D,training,03,1_A,49.0,11110,ignore,0.0,1000.0,2.67693603067
49,3_3_1,3,1.0,279.037251743,3_D,training,03,1_A,50.0,01000,ignore,0.0,900.0,4.32608997301
50,3_3_1,3,1.0,283.34992278,3_D,training,03,1_A,51.0,01010,ignore,0.0,800.0,2.14539678786
51,3_3_1,3,1.0,286.896936474,3_D,training,03,1_A,52.0,01101,ignore,0.0,700.0,1.35328295331
52,3_3_1,3,1.0,292.631586207,3_D,training,03,1_A,53.0,11101,kill,0.0,600.0,3.56022120904
53,3_3_1,3,1.0,299.210053344,3_D,training,03,1_A,54.0,10001,kill,0.0,500.0,4.41837302731
54,3_3_1,3,1.0,303.757111786,3_D,training,03,1_A,55.0,10111,kill,0.0,400.0,2.36895527952
55,3_3_1,3,1.0,312.851284912,3_D,training,03,1_A,56.0,01110,ignore,0.0,300.0,6.93406423782
56,3_3_1,3,1.0,318.257808042,3_D,training,03,1_A,57.0,00010,ignore,1.0,400.0,3.21811981349
57,3_3_1,3,1.0,322.195523107,3_D,training,03,1_A,58.0,11100,ignore,0.0,300.0,1.76774693068
58,3_3_1,3,1.0,326.492541523,3_D,training,03,1_A,59.0,00100,ignore,1.0,400.0,2.11082209923
59,3_3_1,3,1.0,330.445850093,3_D,training,03,1_A,60.0,01001,ignore,0.0,300.0,1.77222127801
60,3_3_1,3,1.0,334.227299225,3_D,training,03,1_A,61.0,11001,ignore,1.0,400.0,1.61167394533
61,3_3_1,3,1.0,338.555634377,3_D,training,03,1_A,62.0,00001,ignore,1.0,500.0,2.15913716816
62,3_3_1,3,1.0,342.305785657,3_D,training,03,1_A,63.0,00000,ignore,1.0,600.0,1.57577037677
63,3_3_1,3,1.0,348.681120545,3_D,training,03,1_A,64.0,11000,ignore,0.0,500.0,4.21909276543
64,3_3_1,3,1.0,352.165638704,3_D,training,03,1_A,65.0,00001,ignore,1.0,600.0,1.29651059204
65,3_3_1,3,1.0,356.884611595,3_D,training,03,1_A,66.0,11010,ignore,0.0,500.0,2.55072404866
66,3_3_1,3,1.0,360.837946029,3_D,training,03,1_A,67.0,01101,ignore,0.0,400.0,1.76439948339
67,3_3_1,3,1.0,365.869381408,3_D,training,03,1_A,68.0,11110,ignore,0.0,300.0,2.87672206335
68,3_3_1,3,1.0,369.541435847,3_D,training,03,1_A,69.0,10110,kill,0.0,200.0,1.49917976457
69,3_3_1,3,1.0,373.291618327,3_D,training,03,1_A,70.0,10101,ignore,1.0,300.0,1.55875931796
70,3_3_1,3,1.0,376.776168507,3_D,training,03,1_A,71.0,01000,ignore,0.0,200.0,1.30855138541
71,3_3_1,3,1.0,382.042061492,3_D,training,03,1_A,72.0,00110,ignore,1.0,300.0,3.08345546549
72,3_3_1,3,1.0,385.823472445,3_D,training,03,1_A,73.0,10111,ignore,1.0,400.0,1.56450630284
73,3_3_1,3,1.0,389.41744236,3_D,training,03,1_A,74.0,00111,ignore,1.0,500.0,1.40547874572
74,3_3_1,3,1.0,393.448829707,3_D,training,03,1_A,75.0,01010,ignore,0.0,400.0,1.87026486461
75,3_3_1,3,1.0,396.995846686,3_D,training,03,1_A,76.0,10011,ignore,1.0,500.0,1.38985363026
76,3_3_1,3,1.0,400.652310083,3_D,training,03,1_A,77.0,01111,ignore,0.0,400.0,1.49693253297
77,3_3_1,3,1.0,404.46494253,3_D,training,03,1_A,78.0,00101,ignore,1.0,500.0,1.61221461103
78,3_3_1,3,1.0,408.40264569,3_D,training,03,1_A,79.0,01100,ignore,0.0,400.0,1.79322759768
79,3_3_1,3,1.0,413.277854547,3_D,training,03,1_A,80.0,10010,ignore,1.0,500.0,2.73006864853
80,3_3_1,3,1.0,417.559331594,3_D,training,03,1_A,81.0,11111,ignore,1.0,600.0,2.12776624193
81,3_3_1,3,1.0,421.465766871,3_D,training,03,1_A,82.0,11011,ignore,1.0,700.0,1.79126445162
82,3_3_1,3,1.0,427.184794362,3_D,training,03,1_A,83.0,10001,kill,0.0,600.0,3.55933036275
83,3_3_1,3,1.0,431.356809801,3_D,training,03,1_A,84.0,00010,kill,0.0,500.0,1.99833489745
84,3_3_1,3,1.0,434.607002955,3_D,training,03,1_A,85.0,11001,ignore,1.0,600.0,1.10666960605
85,3_3_1,3,1.0,437.700901848,3_D,training,03,1_A,86.0,00011,ignore,1.0,700.0,0.938015161631
86,3_3_1,3,1.0,440.857309414,3_D,training,03,1_A,87.0,00000,ignore,1.0,800.0,0.961971537254
87,3_3_1,3,1.0,443.93554994,3_D,training,03,1_A,88.0,01011,ignore,0.0,700.0,0.924182412477
88,3_3_1,3,1.0,446.935697319,3_D,training,03,1_A,89.0,10100,ignore,1.0,800.0,0.81817786218
89,3_3_1,3,1.0,450.232743651,3_D,training,03,1_A,90.0,01110,ignore,0.0,700.0,1.14454165753
90,3_3_1,3,1.0,453.248553093,3_D,training,03,1_A,91.0,01001,ignore,0.0,600.0,0.840207218236
91,3_3_1,3,1.0,456.592374602,3_D,training,03,1_A,92.0,11000,ignore,0.0,500.0,1.18874282294
92,3_3_1,3,1.0,461.295782315,3_D,training,03,1_A,93.0,11100,kill,1.0,600.0,2.54262309484
93,3_3_1,3,1.0,466.139744635,3_D,training,03,1_A,94.0,11101,kill,0.0,500.0,2.66282412231
94,3_3_1,3,1.0,470.280531601,3_D,training,03,1_A,95.0,10000,kill,0.0,400.0,1.98397051422
95,3_3_1,3,1.0,473.749457897,3_D,training,03,1_A,96.0,00100,ignore,1.0,500.0,1.25311488305
96,3_3_1,3,1.0,477.233973183,3_D,training,03,1_A,97.0,10101,ignore,1.0,600.0,1.30130925667
97,3_3_1,3,1.0,481.718601774,3_D,training,03,1_A,98.0,00010,ignore,1.0,700.0,2.32351349776
98,3_3_1,3,1.0,484.749977216,3_D,training,03,1_A,99.0,11111,ignore,1.0,800.0,0.868951995293
99,3_3_1,3,1.0,488.859535298,3_D,training,03,1_A,100.0,00000,kill,0.0,700.0,1.95451880753
100,3_3_1,3,1.0,492.390968625,3_D,training,03,1_A,101.0,10111,ignore,1.0,800.0,1.3313036817
101,3_3_1,3,1.0,495.90677191,3_D,training,03,1_A,102.0,10000,ignore,1.0,900.0,1.31548602849
102,3_3_1,3,1.0,499.57877257,3_D,training,03,1_A,103.0,10001,ignore,1.0,1000.0,1.48476201267
103,3_3_1,3,1.0,504.110209591,3_D,training,03,1_A,104.0,11100,kill,1.0,1100.0,2.35105091125
104,3_3_1,3,1.0,507.751035147,3_D,training,03,1_A,105.0,01101,ignore,0.0,1000.0,1.47319578995
105,3_3_1,3,1.0,512.90752564,3_D,training,03,1_A,106.0,10011,ignore,1.0,1100.0,2.96692045523
106,3_3_1,3,1.0,516.36081861,3_D,training,03,1_A,107.0,11101,ignore,1.0,1200.0,1.25498566025
107,3_3_1,3,1.0,521.611060616,3_D,training,03,1_A,108.0,11010,ignore,0.0,1100.0,3.12066779808
108,3_3_1,3,1.0,524.939339115,3_D,training,03,1_A,109.0,11011,ignore,1.0,1200.0,1.17676648251
109,3_3_1,3,1.0,530.142729996,3_D,training,03,1_A,110.0,01110,kill,1.0,1300.0,3.04492164247
110,3_3_1,3,1.0,534.689797881,3_D,training,03,1_A,111.0,01100,kill,1.0,1400.0,2.39076746613
111,3_3_1,3,1.0,538.221232028,3_D,training,03,1_A,112.0,01001,ignore,0.0,1300.0,1.35007836984
112,3_3_1,3,1.0,542.049549527,3_D,training,03,1_A,113.0,11001,ignore,1.0,1400.0,1.68168871614
113,3_3_1,3,1.0,548.206053157,3_D,training,03,1_A,114.0,11110,ignore,0.0,1300.0,3.98056805614
114,3_3_1,3,1.0,552.56563115,3_D,training,03,1_A,115.0,00100,kill,0.0,1200.0,2.16095662933
115,3_3_1,3,1.0,555.61264115,3_D,training,03,1_A,116.0,00110,ignore,1.0,1300.0,0.889041605398
116,3_3_1,3,1.0,558.956561596,3_D,training,03,1_A,117.0,01010,ignore,0.0,1200.0,1.19280212621
117,3_3_1,3,1.0,562.253608749,3_D,training,03,1_A,118.0,10110,ignore,1.0,1300.0,1.15407248122
118,3_3_1,3,1.0,565.800658569,3_D,training,03,1_A,119.0,10100,ignore,1.0,1400.0,1.35452603283
119,3_3_1,3,1.0,569.910226915,3_D,training,03,1_A,120.0,10010,kill,0.0,1300.0,1.90641351853
120,3_3_1,3,1.0,572.879107232,3_D,training,03,1_A,121.0,00001,ignore,1.0,1400.0,0.779169057994
121,3_3_1,3,1.0,576.207382037,3_D,training,03,1_A,122.0,01111,ignore,0.0,1300.0,1.14787719951
122,3_3_1,3,1.0,579.895048044,3_D,training,03,1_A,123.0,01011,kill,1.0,1400.0,1.52579102635
123,3_3_1,3,1.0,583.94207816,3_D,training,03,1_A,124.0,00101,ignore,1.0,1500.0,1.87123042704
124,3_3_1,3,1.0,587.92665215,3_D,training,03,1_A,125.0,11000,ignore,0.0,1400.0,1.82180405815
125,3_3_1,3,1.0,592.17687363,3_D,training,03,1_A,126.0,00111,ignore,1.0,1500.0,2.07348003971
126,3_3_1,3,1.0,598.208384957,3_D,training,03,1_A,127.0,01000,kill,1.0,1600.0,3.86577245405
127,3_3_1,3,1.0,603.943038385,3_D,training,03,1_A,128.0,00011,ignore,1.0,1700.0,3.55244210936
128,3_3_1,3,1.0,612.443418124,3_D,training,03,1_A,129.0,10110,ignore,1.0,1800.0,6.3113027457
129,3_3_1,3,1.0,617.553067754,3_D,training,03,1_A,130.0,01101,ignore,0.0,1700.0,2.93028819904
130,3_3_1,3,1.0,623.178297753,3_D,training,03,1_A,131.0,01010,kill,1.0,1800.0,3.47784666442
131,3_3_1,3,1.0,626.897258328,3_D,training,03,1_A,132.0,11110,kill,1.0,1900.0,1.55095353395
132,3_3_1,3,1.0,631.897492329,3_D,training,03,1_A,133.0,11101,kill,0.0,1800.0,2.83610604109
133,3_3_1,3,1.0,635.428912108,3_D,training,03,1_A,134.0,11000,kill,1.0,1900.0,1.39138243744
134,3_3_1,3,1.0,641.741664429,3_D,training,03,1_A,135.0,00001,ignore,1.0,2000.0,4.14099099876
135,3_3_1,3,1.0,645.632500043,3_D,training,03,1_A,136.0,10010,kill,0.0,1900.0,1.73215331095
136,3_3_1,3,1.0,649.367048376,3_D,training,03,1_A,137.0,11100,kill,1.0,2000.0,1.57240322412
137,3_3_1,3,1.0,657.117384393,3_D,training,03,1_A,138.0,10100,ignore,1.0,2100.0,5.57360278765
138,3_3_1,3,1.0,661.273890075,3_D,training,03,1_A,139.0,01110,ignore,0.0,2000.0,1.98286865641
139,3_3_1,3,1.0,665.836598675,3_D,training,03,1_A,140.0,10011,ignore,1.0,2100.0,2.38055598661
140,3_3_1,3,1.0,669.071112523,3_D,training,03,1_A,141.0,10001,ignore,1.0,2200.0,1.09090326887
141,3_3_1,3,1.0,673.274528447,3_D,training,03,1_A,142.0,00010,ignore,1.0,2300.0,2.03111721977
142,3_3_1,3,1.0,676.633947566,3_D,training,03,1_A,143.0,00000,ignore,1.0,2400.0,1.1851810799
143,3_3_1,3,1.0,679.962250286,3_D,training,03,1_A,144.0,11111,kill,0.0,2300.0,1.19296633751
144,3_3_1,3,1.0,683.259265828,3_D,training,03,1_A,145.0,11001,ignore,1.0,2400.0,1.15412831306
145,3_3_1,3,1.0,688.181410378,3_D,training,03,1_A,146.0,10111,kill,0.0,2300.0,2.72670724328
146,3_3_1,3,1.0,692.259665682,3_D,training,03,1_A,147.0,01001,ignore,0.0,2200.0,1.89953429676
147,3_3_1,3,1.0,695.619201802,3_D,training,03,1_A,148.0,10101,ignore,1.0,2300.0,1.18626200077
148,3_3_1,3,1.0,699.400650523,3_D,training,03,1_A,149.0,01100,ignore,0.0,2200.0,1.62905571115
149,3_3_1,3,1.0,702.838325357,3_D,training,03,1_A,150.0,10000,ignore,1.0,2300.0,1.24466826444
150,3_3_1,3,1.0,707.154143503,3_D,training,03,1_A,151.0,00111,ignore,1.0,2400.0,2.15146029001
151,3_3_1,3,1.0,710.951175466,3_D,training,03,1_A,152.0,00101,ignore,1.0,2500.0,1.62963455597
152,3_3_1,3,1.0,715.269050768,3_D,training,03,1_A,153.0,01000,ignore,0.0,2400.0,2.16118734621
153,3_3_1,3,1.0,719.150502938,3_D,training,03,1_A,154.0,00100,ignore,1.0,2500.0,1.73365748643
154,3_3_1,3,1.0,722.966329295,3_D,training,03,1_A,155.0,00011,ignore,1.0,2600.0,1.67209877638
155,3_3_1,3,1.0,727.450923401,3_D,training,03,1_A,156.0,11011,ignore,1.0,2700.0,2.32527220075
156,3_3_1,3,1.0,731.24797548,3_D,training,03,1_A,157.0,01111,kill,1.0,2800.0,1.65631724966
157,3_3_1,3,1.0,737.970176765,3_D,training,03,1_A,158.0,01011,ignore,0.0,2700.0,4.57682912911
158,3_3_1,3,1.0,742.270352553,3_D,training,03,1_A,159.0,00110,ignore,1.0,2800.0,2.16879032927
159,3_3_1,3,1.0,747.911241331,3_D,training,03,1_A,160.0,11010,kill,1.0,2900.0,3.51568341047
160,3_3_1,3,1.0,754.355312194,3_D,training,03,1_A,161.0,11101,ignore,1.0,3000.0,4.28999632988
161,3_3_1,3,1.0,769.684120685,3_D,training,03,1_A,162.0,11100,ignore,0.0,2900.0,13.2003242352
162,3_3_1,3,1.0,774.062121955,3_D,training,03,1_A,163.0,00111,ignore,1.0,3000.0,2.19938987293
163,3_3_1,3,1.0,779.546723861,3_D,training,03,1_A,164.0,10100,kill,0.0,2900.0,3.32501110479
164,3_3_1,3,1.0,785.171999429,3_D,training,03,1_A,165.0,00000,ignore,1.0,3000.0,3.45418340596
165,3_3_1,3,1.0,789.009234422,3_D,training,03,1_A,166.0,10001,ignore,1.0,3100.0,1.60389032984
166,3_3_1,3,1.0,794.468909054,3_D,training,03,1_A,167.0,00110,ignore,1.0,3200.0,3.28955788571
167,3_3_1,3,1.0,799.406587583,3_D,training,03,1_A,168.0,00101,ignore,1.0,3300.0,2.7797359975
168,3_3_1,3,1.0,803.172414062,3_D,training,03,1_A,169.0,01000,ignore,0.0,3200.0,1.595425648
169,3_3_1,3,1.0,806.844447154,3_D,training,03,1_A,170.0,01001,ignore,0.0,3100.0,1.4992557123
170,3_3_1,3,1.0,814.204132295,3_D,training,03,1_A,171.0,11010,kill,1.0,3200.0,5.11062915095
171,3_3_1,3,1.0,818.173100465,3_D,training,03,1_A,172.0,01010,kill,1.0,3300.0,1.79045078464
172,3_3_1,3,1.0,824.42337244,3_D,training,03,1_A,173.0,00010,ignore,1.0,3400.0,4.05217896076
173,3_3_1,3,1.0,828.626729248,3_D,training,03,1_A,174.0,10000,kill,0.0,3300.0,2.05833442124
174,3_3_1,3,1.0,834.783239035,3_D,training,03,1_A,175.0,00011,ignore,1.0,3400.0,3.99092896794
175,3_3_1,3,1.0,844.205560523,3_D,training,03,1_A,176.0,01101,kill,1.0,3500.0,7.2294315087
176,3_3_1,3,1.0,974.39917919,3_D,test,03,2,0.0,00001,,,0.0,
177,3_3_1,3,1.0,997.603381685,3_D,test,03,2,1.0,01111,ignore,0.0,0.0,21.0392621001
178,3_3_1,3,1.0,1008.24448353,3_D,test,03,2,2.0,11001,kill,1.0,100.0,8.47830317182
179,3_3_1,3,1.0,1022.0576472,3_D,test,03,2,3.0,10010,kill,0.0,0.0,11.6446861635
180,3_3_1,3,1.0,1027.97980981,3_D,test,03,2,4.0,11110,kill,0.0,0.0,3.77411176057
181,3_3_1,3,1.0,1034.87075257,3_D,test,03,2,5.0,01110,ignore,1.0,100.0,4.7555677893
182,3_3_1,3,1.0,1043.01176204,3_D,test,03,2,6.0,10101,kill,0.0,0.0,5.97302418914
183,3_3_1,3,1.0,1063.7471146,3_D,test,03,2,7.0,00100,ignore,1.0,100.0,18.5541716648
184,3_3_1,3,1.0,1074.99759102,3_D,test,03,2,8.0,10011,kill,1.0,200.0,9.11276841363
185,3_3_1,3,1.0,1086.88878338,3_D,test,03,2,9.0,11111,kill,1.0,300.0,9.77225453079
186,3_3_1,3,1.0,1101.13947287,3_D,test,03,2,10.0,01100,ignore,1.0,400.0,12.0777355755
187,3_3_1,3,1.0,1112.70252959,3_D,test,03,2,11.0,11000,kill,0.0,300.0,9.43189008024
188,3_3_1,3,1.0,1122.21856975,3_D,test,03,2,12.0,01011,ignore,0.0,200.0,7.36216801607
189,3_3_1,3,1.0,1127.09384881,3_D,test,03,2,13.0,10111,kill,1.0,300.0,2.74102482629
190,3_3_1,3,1.0,1139.21936043,3_D,test,03,2,14.0,10110,kill,0.0,200.0,9.93734353743
191,3_3_1,3,1.0,1161.70478914,3_D,test,03,2,15.0,11011,kill,1.0,300.0,20.3343337907
192,3_3_1,3,1.0,1167.39259144,3_D,test,03,2,16.0,10110,kill,0.0,200.0,3.52804687904
193,3_3_1,3,1.0,1175.9867071,3_D,test,03,2,17.0,00011,ignore,0.0,100.0,6.40779330396
194,3_3_1,3,1.0,1188.94041634,3_D,test,03,2,18.0,10010,ignore,1.0,200.0,10.7930018071
195,3_3_1,3,1.0,1204.53490681,3_D,test,03,2,19.0,11010,ignore,1.0,300.0,13.4407312165
196,3_3_1,3,1.0,1221.6919782,3_D,test,03,2,20.0,00101,kill,0.0,200.0,14.990341502
197,3_3_1,3,1.0,1230.12985255,3_D,test,03,2,21.0,10011,ignore,0.0,100.0,6.28290117025
198,3_3_1,3,1.0,1240.31783343,3_D,test,03,2,22.0,11110,ignore,1.0,200.0,8.03953469087
199,3_3_1,3,1.0,1254.17787984,3_D,test,03,2,23.0,11000,kill,0.0,100.0,11.7277294586
200,3_3_1,3,1.0,1261.8345017,3_D,test,03,2,24.0,10000,ignore,1.0,200.0,5.5102533534
201,3_3_1,3,1.0,1273.99128079,3_D,test,03,2,25.0,01101,ignore,1.0,300.0,9.99317496796
202,3_3_1,3,1.0,1279.55407067,3_D,test,03,2,26.0,01001,kill,1.0,400.0,3.43396406892
203,3_3_1,3,1.0,1286.69505798,3_D,test,03,2,27.0,00100,ignore,1.0,500.0,4.97970594683
204,3_3_1,3,1.0,1292.83591515,3_D,test,03,2,28.0,00110,ignore,1.0,600.0,4.02315830872
205,3_3_1,3,1.0,1306.21152919,3_D,test,03,2,29.0,01110,ignore,1.0,700.0,11.2310321583
206,3_3_1,3,1.0,1319.12397214,3_D,test,03,2,30.0,01100,ignore,1.0,800.0,10.691338593
207,3_3_1,3,1.0,1333.09334386,3_D,test,03,2,31.0,01011,ignore,0.0,700.0,11.8744986424
208,3_3_1,3,1.0,1343.39073134,3_D,test,03,2,32.0,00000,kill,0.0,600.0,8.15168608055
209,3_3_1,3,1.0,1350.60977443,3_D,test,03,2,33.0,00111,ignore,0.0,500.0,5.04979009691
210,3_3_1,3,1.0,1369.86066836,3_D,test,03,2,34.0,01010,ignore,1.0,600.0,17.1205565449
211,3_3_1,3,1.0,1374.42340487,3_D,test,03,3,0.0,10101,kill,0.0,500.0,2.38583127454
212,3_3_1,3,1.0,1387.67401759,3_D,test,03,3,1.0,01000,ignore,1.0,600.0,11.1244397316
213,3_3_1,3,1.0,1393.78369431,3_D,test,03,3,2.0,01111,ignore,1.0,700.0,3.91578957308
214,3_3_1,3,1.0,1400.76838694,3_D,test,03,3,3.0,10001,kill,0.0,600.0,4.81306801714
215,3_3_1,3,1.0,1410.67508496,3_D,test,03,3,4.0,00010,ignore,1.0,700.0,7.76607074387
216,3_3_1,3,1.0,1432.39489245,3_D,test,03,3,5.0,00001,ignore,1.0,800.0,19.5290748418
217,3_3_1,3,1.0,1448.5831098,3_D,test,03,3,6.0,10111,kill,0.0,700.0,14.0465313237
218,3_3_1,3,1.0,1458.6773675,3_D,test,03,3,7.0,11011,kill,1.0,800.0,7.9113681839
219,3_3_1,3,1.0,1480.75652966,3_D,test,03,3,8.0,11100,kill,1.0,900.0,19.9161405747
220,3_3_1,3,1.0,1494.81968902,3_D,test,03,3,9.0,11101,ignore,0.0,800.0,11.938180194
221,3_3_1,3,1.0,1511.64856319,3_D,test,03,3,10.0,11001,kill,1.0,900.0,14.6657421571
222,3_3_1,3,1.0,1518.1019785,3_D,test,03,3,11.0,10100,kill,1.0,1000.0,4.36099472635
223,3_3_1,3,1.0,1536.5716421,3_D,test,03,3,12.0,11111,kill,1.0,1100.0,16.3377744279
224,3_3_1,3,1.0,1550.05660651,3_D,test,03,3,13.0,10001,kill,0.0,1000.0,11.3122789819
225,3_3_1,3,1.0,1563.0885181,3_D,test,03,3,14.0,10101,kill,0.0,900.0,10.901216231
226,3_3_1,3,1.0,1569.94818189,3_D,test,03,3,15.0,01100,ignore,1.0,1000.0,4.71209613258
227,3_3_1,3,1.0,1578.1829708,3_D,test,03,3,16.0,01111,ignore,1.0,1100.0,6.08028659798
228,3_3_1,3,1.0,1587.93342505,3_D,test,03,3,17.0,11001,kill,1.0,1200.0,7.62352466413
229,3_3_1,3,1.0,1600.48085584,3_D,test,03,3,18.0,00010,ignore,1.0,1300.0,10.3910113199
230,3_3_1,3,1.0,1611.77828847,3_D,test,03,3,19.0,11000,kill,1.0,1400.0,9.14459625779
231,3_3_1,3,1.0,1619.13801303,3_D,test,03,3,20.0,00110,ignore,1.0,1500.0,5.1884907586
232,3_3_1,3,1.0,1639.46707933,3_D,test,03,3,21.0,11110,kill,1.0,1600.0,18.1405985338
233,3_3_1,3,1.0,1650.53009788,3_D,test,03,3,22.0,01010,ignore,1.0,1700.0,8.95078258999
234,3_3_1,3,1.0,1684.25041771,3_D,test,03,3,23.0,11011,,,1600.0,
235,3_3_1,3,1.0,1692.32892262,3_D,test,03,3,24.0,00001,ignore,1.0,1700.0,5.95662645953
236,3_3_1,3,1.0,1697.17289725,3_D,test,03,3,25.0,10000,kill,1.0,1800.0,2.65859978669
237,3_3_1,3,1.0,1701.40750799,3_D,test,03,3,26.0,01101,ignore,1.0,1900.0,2.07493248863
238,3_3_1,3,1.0,1704.97016034,3_D,test,03,3,27.0,11100,kill,1.0,2000.0,1.43680040856
239,3_3_1,3,1.0,1712.00168234,3_D,test,03,3,28.0,11101,ignore,0.0,1900.0,4.86188146736
240,3_3_1,3,1.0,1719.37706896,3_D,test,03,3,29.0,00101,ignore,1.0,2000.0,5.22935843467
241,3_3_1,3,1.0,1723.42415696,3_D,test,03,3,30.0,10111,kill,0.0,1900.0,1.90657690877
242,3_3_1,3,1.0,1735.7215584,3_D,test,03,3,31.0,01110,ignore,1.0,2000.0,10.1355720259
243,3_3_1,3,1.0,1740.03426105,3_D,test,03,3,32.0,10110,kill,1.0,2100.0,2.19347005566
244,3_3_1,3,1.0,1746.25328484,3_D,test,03,3,33.0,10011,kill,0.0,2000.0,4.08780008588
245,3_3_1,3,1.0,1756.75382304,3_D,test,03,3,34.0,00000,ignore,1.0,2100.0,8.32744512674
246,3_3_1,3,1.0,1763.06659466,3_D,test,03,3,35.0,01000,ignore,1.0,2200.0,4.18403775874
247,3_3_1,3,1.0,1781.02056254,3_D,test,03,3,36.0,00111,ignore,1.0,2300.0,15.7968755516
248,3_3_1,3,1.0,1785.66137167,3_D,test,03,3,37.0,10100,kill,1.0,2400.0,2.51860596103
249,3_3_1,3,1.0,1789.86475311,3_D,test,03,3,38.0,01011,ignore,1.0,2500.0,2.07191059023
250,3_3_1,3,1.0,1798.00571332,3_D,test,03,4,0.0,11010,kill,1.0,2600.0,6.0276872563
251,3_3_1,3,1.0,1801.83402097,3_D,test,03,4,1.0,00011,ignore,0.0,2500.0,1.70779954398
252,3_3_1,3,1.0,1812.81890614,3_D,test,03,4,2.0,10010,kill,1.0,2600.0,8.82760605381
253,3_3_1,3,1.0,1818.58484018,3_D,test,03,4,3.0,01001,ignore,1.0,2700.0,3.64841006517
254,3_3_1,3,1.0,1823.11625585,3_D,test,03,4,4.0,11111,kill,0.0,2600.0,2.34969165224
255,3_3_1,3,1.0,1830.99006029,3_D,test,03,4,5.0,00100,ignore,1.0,2700.0,5.69638480619
256,3_3_1,3,1.0,1836.87164301,3_D,test,03,4,6.0,10001,kill,0.0,2600.0,3.74249041211
257,3_3_1,3,1.0,1841.79374733,3_D,test,03,4,7.0,01111,ignore,0.0,2500.0,2.76251351664
258,3_3_1,3,1.0,1850.51286801,3_D,test,03,4,8.0,01101,ignore,1.0,2600.0,6.59451550688
259,3_3_1,3,1.0,1854.98183289,3_D,test,03,4,9.0,11001,kill,0.0,2500.0,2.28851309133
260,3_3_1,3,1.0,1866.18550006,3_D,test,03,4,10.0,00100,ignore,1.0,2600.0,9.03920011035
261,3_3_1,3,1.0,1871.18575336,3_D,test,03,4,11.0,10000,kill,0.0,2500.0,2.86468003839
262,3_3_1,3,1.0,1876.18599721,3_D,test,03,4,12.0,01010,ignore,0.0,2400.0,2.85279729839
263,3_3_1,3,1.0,1881.170579,3_D,test,03,4,13.0,00011,ignore,0.0,2300.0,2.86209986839
264,3_3_1,3,1.0,1887.84277097,3_D,test,03,4,14.0,01110,ignore,0.0,2200.0,4.55220195034
265,3_3_1,3,1.0,1892.63987806,3_D,test,03,4,15.0,11101,kill,0.0,2100.0,2.64997335671
266,3_3_1,3,1.0,1899.90586218,3_D,test,03,4,16.0,00001,kill,0.0,2000.0,5.1315566492
267,3_3_1,3,1.0,1909.84377758,3_D,test,03,4,17.0,10010,ignore,0.0,1900.0,7.74291982465
268,3_3_1,3,1.0,1914.65653113,3_D,test,03,4,18.0,11100,kill,0.0,1800.0,2.63888991521
269,3_3_1,3,1.0,1926.31333158,3_D,test,03,4,19.0,11011,kill,1.0,1900.0,9.51034120644
270,3_3_1,3,1.0,1937.4701234,3_D,test,03,4,20.0,10011,kill,1.0,2000.0,8.97259067132
271,3_3_1,3,1.0,1943.73599093,3_D,test,03,4,21.0,00110,ignore,0.0,1900.0,4.13424807237
272,3_3_1,3,1.0,1950.93944749,3_D,test,03,4,22.0,01001,ignore,1.0,2000.0,5.0091806431
273,3_3_1,3,1.0,1959.15858624,3_D,test,03,4,23.0,01011,ignore,0.0,1900.0,6.05507811121
274,3_3_1,3,1.0,1979.31579967,3_D,test,03,4,24.0,00101,kill,0.0,1800.0,18.0085673139
275,3_3_1,3,1.0,1986.36298415,3_D,test,03,4,25.0,00111,ignore,0.0,1700.0,4.90708103745
276,3_3_1,3,1.0,1992.6601446,3_D,test,03,4,26.0,11000,kill,0.0,1600.0,4.19603955193
277,3_3_1,3,1.0,1998.41041083,3_D,test,03,4,27.0,10101,kill,0.0,1500.0,3.56538195958
278,3_3_1,3,1.0,2007.72334296,3_D,test,03,4,28.0,01100,kill,0.0,1400.0,7.15293572852
279,3_3_1,3,1.0,2013.42676669,3_D,test,03,4,29.0,11110,ignore,1.0,1500.0,3.57770437533
280,3_3_1,3,1.0,2018.28633647,3_D,test,03,4,30.0,11111,ignore,1.0,1600.0,2.6823016348
281,3_3_1,3,1.0,2022.75531737,3_D,test,03,4,31.0,10110,ignore,1.0,1700.0,2.35897903268
282,3_3_1,3,1.0,2034.44342757,3_D,test,03,4,32.0,00010,kill,1.0,1800.0,9.54148511055
283,3_3_1,3,1.0,2044.00630202,3_D,test,03,4,33.0,11010,kill,1.0,1900.0,7.38939137546
284,3_3_1,3,1.0,2048.06903115,3_D,test,03,4,34.0,00000,kill,0.0,1800.0,1.92746581737
285,3_3_1,3,1.0,2054.02241689,3_D,test,03,4,35.0,10111,ignore,1.0,1900.0,3.79745234383
286,3_3_1,3,1.0,2059.52266526,3_D,test,03,4,36.0,10100,ignore,1.0,2000.0,3.31915409834
287,3_3_1,3,1.0,2062.58530777,3_D,test,03,4,37.0,01000,ignore,1.0,2100.0,0.910463790176
288,3_3_1,3,1.0,2065.44483034,3_D,test,03,4,38.0,11001,kill,0.0,2000.0,0.695376548822
289,3_3_1,3,1.0,2070.00751226,3_D,test,03,4,39.0,11010,kill,1.0,2100.0,2.46231925468
290,3_3_1,3,1.0,2086.03951786,3_D,test,03,4,40.0,01111,kill,1.0,2200.0,13.9030348711
291,3_3_1,3,1.0,2090.5397457,3_D,test,03,4,41.0,10111,ignore,1.0,2300.0,2.33141329274
292,3_3_1,3,1.0,2095.05556705,3_D,test,03,4,42.0,01000,ignore,1.0,2400.0,2.38276791278
293,3_3_1,3,1.0,2097.94631563,3_D,test,03,4,43.0,11011,ignore,0.0,2300.0,0.741975609697
294,3_3_1,3,1.0,2103.88409146,3_D,test,03,4,44.0,11111,kill,0.0,2200.0,3.833699114
295,3_3_1,3,1.0,2112.58761822,3_D,test,03,4,45.0,10100,ignore,1.0,2300.0,6.49767641014
296,3_3_1,3,1.0,2115.49404159,3_D,test,03,4,46.0,11101,ignore,1.0,2400.0,0.771169504649
297,3_3_1,3,1.0,2126.27580765,3_D,test,03,4,47.0,01001,ignore,1.0,2500.0,8.65939539043
298,3_3_1,3,1.0,2134.07301491,3_D,test,03,4,48.0,10001,ignore,1.0,2600.0,5.63750561397
299,3_3_1,3,1.0,2138.6357814,3_D,test,03,4,49.0,11100,ignore,1.0,2700.0,2.48962882499
300,3_3_1,3,1.0,2149.57376166,3_D,test,03,4,50.0,01100,kill,0.0,2600.0,8.74995094187
301,3_3_1,3,1.0,2156.1678067,3_D,test,03,4,51.0,00000,ignore,1.0,2700.0,4.42392090599
302,3_3_1,3,1.0,2159.88671719,3_D,test,03,4,52.0,10101,ignore,1.0,2800.0,1.4763827207
303,3_3_1,3,1.0,2163.855671,3_D,test,03,4,53.0,11000,ignore,1.0,2900.0,1.76207137773
304,3_3_1,3,1.0,2170.09034741,3_D,test,03,4,54.0,00101,kill,0.0,2800.0,4.11744309873
305,3_3_1,3,1.0,2177.46566711,3_D,test,03,4,55.0,00001,ignore,1.0,2900.0,5.21016952353
306,3_3_1,3,1.0,2183.98159068,3_D,test,03,4,56.0,11110,ignore,1.0,3000.0,4.27773631443
307,3_3_1,3,1.0,2190.41943588,3_D,test,03,4,57.0,10110,ignore,1.0,3100.0,4.32642209036
