,unique_id,pair_id,sbj_id,wall_time,condition,block,rule_id,rule_num,trial,stimulus,choice,correct,points,reaction_time
0,2_17_1,17,1.0,37.4890116269,2_ND,training,02,1_A,1.0,11101,kill,0.0,0.0,6.27576579605
1,2_17_1,17,1.0,49.9114871652,2_ND,training,02,1_A,2.0,00101,ignore,1.0,100.0,10.6091390062
2,2_17_1,17,1.0,59.7400745109,2_ND,training,02,1_A,3.0,00000,ignore,0.0,0.0,8.03087398956
3,2_17_1,17,1.0,70.8343870232,2_ND,training,02,1_A,4.0,11000,kill,1.0,100.0,9.30219773876
4,2_17_1,17,1.0,81.1004717229,2_ND,training,02,1_A,5.0,10110,kill,0.0,0.0,8.45723575755
5,2_17_1,17,1.0,92.0760802352,2_ND,training,02,1_A,6.0,01000,ignore,0.0,0.0,9.19131077907
6,2_17_1,17,1.0,105.123577743,2_ND,training,02,1_A,7.0,10000,kill,1.0,100.0,11.2544641769
7,2_17_1,17,1.0,111.57698436,2_ND,training,02,1_A,8.0,11111,ignore,1.0,200.0,4.65027909525
8,2_17_1,17,1.0,122.218106745,2_ND,training,02,1_A,9.0,00111,kill,0.0,100.0,8.84323198838
9,2_17_1,17,1.0,134.078054942,2_ND,training,02,1_A,10.0,10010,kill,0.0,0.0,10.0568537094
10,2_17_1,17,1.0,145.578599533,2_ND,training,02,1_A,11.0,01101,ignore,1.0,100.0,9.70118751788
11,2_17_1,17,1.0,169.62664484,2_ND,training,02,1_A,12.0,10100,kill,0.0,0.0,22.2391261259
12,2_17_1,17,1.0,181.252167462,2_ND,training,02,1_A,13.0,00011,ignore,0.0,0.0,9.82705812699
13,2_17_1,17,1.0,187.564969345,2_ND,training,02,1_A,14.0,10011,kill,1.0,100.0,4.54537751304
14,2_17_1,17,1.0,204.97203948,2_ND,training,02,1_A,15.0,00100,kill,0.0,0.0,15.5986211373
15,2_17_1,17,1.0,222.629185948,2_ND,training,02,1_A,16.0,10101,ignore,1.0,100.0,15.8649630588
16,2_17_1,17,1.0,231.879596797,2_ND,training,02,1_A,17.0,11011,kill,1.0,200.0,7.47357254744
17,2_17_1,17,1.0,241.911332896,2_ND,training,02,1_A,18.0,01100,ignore,1.0,300.0,8.25588210391
18,2_17_1,17,1.0,248.349145844,2_ND,training,02,1_A,19.0,00001,kill,1.0,400.0,4.66243458805
19,2_17_1,17,1.0,253.849378049,2_ND,training,02,1_A,20.0,10111,ignore,1.0,500.0,3.70357948794
20,2_17_1,17,1.0,258.255879538,2_ND,training,02,1_A,21.0,01111,ignore,1.0,600.0,2.63959092116
21,2_17_1,17,1.0,261.756019054,2_ND,training,02,1_A,22.0,10001,kill,1.0,700.0,1.69925514732
22,2_17_1,17,1.0,265.256188076,2_ND,training,02,1_A,23.0,01110,ignore,1.0,800.0,1.74203061516
23,2_17_1,17,1.0,268.459440424,2_ND,training,02,1_A,24.0,11010,kill,0.0,700.0,1.41462642547
24,2_17_1,17,1.0,274.881660344,2_ND,training,02,1_A,25.0,01001,kill,1.0,800.0,4.64364392809
25,2_17_1,17,1.0,279.038106668,2_ND,training,02,1_A,26.0,00010,kill,0.0,700.0,2.37365279294
26,2_17_1,17,1.0,283.038288519,2_ND,training,02,1_A,27.0,11110,ignore,1.0,800.0,2.24490014535
27,2_17_1,17,1.0,287.163490095,2_ND,training,02,1_A,28.0,01010,kill,0.0,700.0,2.37765897396
28,2_17_1,17,1.0,293.960701516,2_ND,training,02,1_A,29.0,11100,ignore,1.0,800.0,5.0248523701
29,2_17_1,17,1.0,299.164070929,2_ND,training,02,1_A,30.0,01011,kill,1.0,900.0,3.41906173707
30,2_17_1,17,1.0,307.483227665,2_ND,training,02,1_A,31.0,11001,kill,1.0,1000.0,6.55136256981
31,2_17_1,17,1.0,314.327305727,2_ND,training,02,1_A,32.0,00110,ignore,1.0,1100.0,5.05122754441
32,2_17_1,17,1.0,318.139962642,2_ND,training,02,1_A,33.0,01110,ignore,1.0,1200.0,2.04422995755
33,2_17_1,17,1.0,321.95265195,2_ND,training,02,1_A,34.0,00100,ignore,1.0,1300.0,2.02436198095
34,2_17_1,17,1.0,324.890322496,2_ND,training,02,1_A,35.0,01100,ignore,1.0,1400.0,1.14926335789
35,2_17_1,17,1.0,327.890433146,2_ND,training,02,1_A,36.0,10110,ignore,1.0,1500.0,1.22937799798
36,2_17_1,17,1.0,330.609353892,2_ND,training,02,1_A,37.0,00000,kill,1.0,1600.0,0.914184786583
37,2_17_1,17,1.0,333.734473362,2_ND,training,02,1_A,38.0,00110,ignore,1.0,1700.0,1.35582270556
38,2_17_1,17,1.0,336.390882803,2_ND,training,02,1_A,39.0,11111,ignore,1.0,1800.0,0.89286039593
39,2_17_1,17,1.0,339.828547576,2_ND,training,02,1_A,40.0,00111,ignore,1.0,1900.0,1.65580647686
40,2_17_1,17,1.0,342.500504822,2_ND,training,02,1_A,41.0,01001,kill,1.0,2000.0,0.908304286302
41,2_17_1,17,1.0,345.84443086,2_ND,training,02,1_A,42.0,00101,ignore,1.0,2100.0,1.55808946443
42,2_17_1,17,1.0,349.328996591,2_ND,training,02,1_A,43.0,00010,kill,0.0,2000.0,1.70256503349
43,2_17_1,17,1.0,352.0947317,2_ND,training,02,1_A,44.0,11100,ignore,1.0,2100.0,0.984453798223
44,2_17_1,17,1.0,354.73548044,2_ND,training,02,1_A,45.0,01111,ignore,1.0,2200.0,0.863509210592
45,2_17_1,17,1.0,358.235660046,2_ND,training,02,1_A,46.0,10001,kill,1.0,2300.0,1.71583248127
46,2_17_1,17,1.0,361.268192507,2_ND,training,02,1_A,47.0,11001,kill,1.0,2400.0,1.25302411983
47,2_17_1,17,1.0,364.223360548,2_ND,training,02,1_A,48.0,11010,kill,0.0,2300.0,1.19393527505
48,2_17_1,17,1.0,367.992133568,2_ND,training,02,1_A,49.0,10101,ignore,1.0,2400.0,1.96806633371
49,2_17_1,17,1.0,371.507946293,2_ND,training,02,1_A,50.0,01000,kill,1.0,2500.0,1.75962432792
50,2_17_1,17,1.0,374.570576587,2_ND,training,02,1_A,51.0,11110,ignore,1.0,2600.0,1.30389116889
51,2_17_1,17,1.0,380.729696478,2_ND,training,02,1_A,52.0,01011,kill,1.0,2700.0,4.39470937788
52,2_17_1,17,1.0,383.964177538,2_ND,training,02,1_A,53.0,10000,kill,1.0,2800.0,1.45502467661
53,2_17_1,17,1.0,387.21438152,2_ND,training,02,1_A,54.0,00001,kill,1.0,2900.0,1.47509791747
54,2_17_1,17,1.0,390.386357368,2_ND,training,02,1_A,55.0,01101,ignore,1.0,3000.0,1.39883647238
55,2_17_1,17,1.0,393.386549803,2_ND,training,02,1_A,56.0,11000,kill,1.0,3100.0,1.22976992442
56,2_17_1,17,1.0,395.932831762,2_ND,training,02,1_A,57.0,11011,kill,1.0,3200.0,0.779847988986
57,2_17_1,17,1.0,398.761098061,2_ND,training,02,1_A,58.0,10011,kill,1.0,3300.0,1.05935825413
58,2_17_1,17,1.0,401.323691793,2_ND,training,02,1_A,59.0,01010,kill,0.0,3200.0,0.82518926006
59,2_17_1,17,1.0,404.401977657,2_ND,training,02,1_A,60.0,10100,ignore,1.0,3300.0,1.29495704204
60,2_17_1,17,1.0,407.198978361,2_ND,training,02,1_A,61.0,11101,ignore,1.0,3400.0,1.01732398269
61,2_17_1,17,1.0,410.136627418,2_ND,training,02,1_A,62.0,10111,ignore,1.0,3500.0,1.17580595087
62,2_17_1,17,1.0,412.933632613,2_ND,training,02,1_A,63.0,00011,kill,1.0,3600.0,1.02326157209
63,2_17_1,17,1.0,416.09003596,2_ND,training,02,1_A,64.0,10010,kill,0.0,3500.0,1.40635844528
64,2_17_1,17,1.0,418.762041315,2_ND,training,02,1_A,65.0,00000,kill,1.0,3600.0,0.884874333373
65,2_17_1,17,1.0,422.418450114,2_ND,training,02,1_A,66.0,00100,ignore,1.0,3700.0,1.8627593546
66,2_17_1,17,1.0,425.918599892,2_ND,training,02,1_A,67.0,01011,kill,1.0,3800.0,1.73120901931
67,2_17_1,17,1.0,428.512449277,2_ND,training,02,1_A,68.0,11010,kill,0.0,3700.0,0.844230085839
68,2_17_1,17,1.0,432.918950125,2_ND,training,02,1_A,69.0,10100,ignore,1.0,3800.0,2.64187865547
69,2_17_1,17,1.0,435.419099903,2_ND,training,02,1_A,70.0,11100,ignore,1.0,3900.0,0.734450911694
70,2_17_1,17,1.0,438.044184735,2_ND,training,02,1_A,71.0,10000,kill,1.0,4000.0,0.85612643252
71,2_17_1,17,1.0,441.169307092,2_ND,training,02,1_A,72.0,01101,ignore,1.0,4100.0,1.34957561615
72,2_17_1,17,1.0,444.247587504,2_ND,training,02,1_A,73.0,01000,kill,1.0,4200.0,1.31816344936
73,2_17_1,17,1.0,447.450904317,2_ND,training,02,1_A,74.0,10111,ignore,1.0,4300.0,1.41576660428
74,2_17_1,17,1.0,450.138526754,2_ND,training,02,1_A,75.0,01100,ignore,1.0,4400.0,0.917747083644
75,2_17_1,17,1.0,454.920006594,2_ND,training,02,1_A,76.0,01001,kill,1.0,4500.0,3.00738181589
76,2_17_1,17,1.0,457.826404809,2_ND,training,02,1_A,77.0,10010,kill,0.0,4400.0,1.14937272525
77,2_17_1,17,1.0,460.49838194,2_ND,training,02,1_A,78.0,11000,kill,1.0,4500.0,0.902836559617
78,2_17_1,17,1.0,463.670412312,2_ND,training,02,1_A,79.0,00101,ignore,1.0,4600.0,1.38464533543
79,2_17_1,17,1.0,466.483026891,2_ND,training,02,1_A,80.0,01010,kill,0.0,4500.0,1.05600507003
80,2_17_1,17,1.0,469.217575945,2_ND,training,02,1_A,81.0,11111,ignore,1.0,4600.0,0.965089360512
81,2_17_1,17,1.0,472.686468467,2_ND,training,02,1_A,82.0,00111,ignore,1.0,4700.0,1.70939039081
82,2_17_1,17,1.0,475.624130353,2_ND,training,02,1_A,83.0,00110,ignore,1.0,4800.0,1.15146930722
83,2_17_1,17,1.0,478.255755738,2_ND,training,02,1_A,84.0,10011,kill,1.0,4900.0,0.847437660605
84,2_17_1,17,1.0,481.334025245,2_ND,training,02,1_A,85.0,11101,ignore,1.0,5000.0,1.32527072431
85,2_17_1,17,1.0,483.959149847,2_ND,training,02,1_A,86.0,01111,ignore,1.0,5100.0,0.846976136749
86,2_17_1,17,1.0,487.496522374,2_ND,training,02,1_A,87.0,11001,kill,1.0,5200.0,1.78078931805
87,2_17_1,17,1.0,490.262279934,2_ND,training,02,1_A,88.0,00011,kill,1.0,5300.0,1.01177126377
88,2_17_1,17,1.0,493.309306617,2_ND,training,02,1_A,89.0,10110,ignore,1.0,5400.0,1.26661999043
89,2_17_1,17,1.0,496.621958721,2_ND,training,02,1_A,90.0,11011,kill,1.0,5500.0,1.56758710581
90,2_17_1,17,1.0,499.622104972,2_ND,training,02,1_A,91.0,00001,kill,1.0,5600.0,1.23170101208
91,2_17_1,17,1.0,503.247287625,2_ND,training,02,1_A,92.0,01110,ignore,1.0,5700.0,1.8608202488
92,2_17_1,17,1.0,506.513081427,2_ND,training,02,1_A,93.0,00010,kill,0.0,5600.0,1.50512711631
93,2_17_1,17,1.0,509.575705949,2_ND,training,02,1_A,94.0,10001,kill,1.0,5700.0,1.26709819201
94,2_17_1,17,1.0,512.372697673,2_ND,training,02,1_A,95.0,10101,ignore,1.0,5800.0,1.02270415134
95,2_17_1,17,1.0,515.216556359,2_ND,training,02,1_A,96.0,11110,ignore,1.0,5900.0,1.08494187814
96,2_17_1,17,1.0,519.763713256,2_ND,training,02,1_A,97.0,00111,kill,0.0,5800.0,2.76864889933
97,2_17_1,17,1.0,521.982532012,2_ND,training,02,1_A,98.0,01011,kill,1.0,5900.0,0.455761703592
98,2_17_1,17,1.0,524.92017273,2_ND,training,02,1_A,99.0,10101,ignore,1.0,6000.0,1.14821971743
99,2_17_1,17,1.0,528.451627232,2_ND,training,02,1_A,100.0,00000,kill,1.0,6100.0,1.7651449743
100,2_17_1,17,1.0,531.217331873,2_ND,training,02,1_A,101.0,10010,kill,0.0,6000.0,0.980432863835
101,2_17_1,17,1.0,534.279971148,2_ND,training,02,1_A,102.0,00011,kill,1.0,6100.0,1.28389714721
102,2_17_1,17,1.0,540.092759881,2_ND,training,02,1_A,103.0,00101,ignore,1.0,6200.0,4.04702219292
103,2_17_1,17,1.0,543.389797789,2_ND,training,02,1_A,104.0,10111,ignore,1.0,6300.0,1.52946472213
104,2_17_1,17,1.0,546.218057995,2_ND,training,02,1_A,105.0,10001,kill,1.0,6400.0,1.0514786724
105,2_17_1,17,1.0,549.061938169,2_ND,training,02,1_A,106.0,11110,ignore,1.0,6500.0,1.11281900952
106,2_17_1,17,1.0,551.827721387,2_ND,training,02,1_A,107.0,01101,ignore,1.0,6600.0,0.980437033266
107,2_17_1,17,1.0,554.734106453,2_ND,training,02,1_A,108.0,11010,kill,0.0,6500.0,1.1646180866
108,2_17_1,17,1.0,557.76550547,2_ND,training,02,1_A,109.0,01001,kill,1.0,6600.0,1.27734889664
109,2_17_1,17,1.0,560.734363033,2_ND,training,02,1_A,110.0,00110,ignore,1.0,6700.0,1.18467881917
110,2_17_1,17,1.0,563.625146411,2_ND,training,02,1_A,111.0,11011,kill,1.0,6800.0,1.13617391271
111,2_17_1,17,1.0,566.750284163,2_ND,training,02,1_A,112.0,01010,kill,0.0,6700.0,1.36201206441
112,2_17_1,17,1.0,569.297273962,2_ND,training,02,1_A,113.0,00010,kill,0.0,6600.0,0.794628619225
113,2_17_1,17,1.0,572.016159749,2_ND,training,02,1_A,114.0,01111,ignore,1.0,6700.0,0.962402964529
114,2_17_1,17,1.0,574.985069912,2_ND,training,02,1_A,115.0,00001,kill,1.0,6800.0,1.19478455592
115,2_17_1,17,1.0,578.610253206,2_ND,training,02,1_A,116.0,11100,ignore,1.0,6900.0,1.86707663926
116,2_17_1,17,1.0,581.610372195,2_ND,training,02,1_A,117.0,00100,ignore,1.0,7000.0,1.20517253102
117,2_17_1,17,1.0,585.157398237,2_ND,training,02,1_A,118.0,01100,ignore,1.0,7100.0,1.78822373291
118,2_17_1,17,1.0,588.079447531,2_ND,training,02,1_A,119.0,10000,kill,1.0,7200.0,1.15517015766
119,2_17_1,17,1.0,591.04830317,2_ND,training,02,1_A,120.0,01000,kill,1.0,7300.0,1.21199019093
120,2_17_1,17,1.0,594.142230491,2_ND,training,02,1_A,121.0,10011,ignore,0.0,7200.0,1.32288997964
121,2_17_1,17,1.0,597.079872492,2_ND,training,02,1_A,122.0,11000,kill,1.0,7300.0,1.16528519544
122,2_17_1,17,1.0,600.111255794,2_ND,training,02,1_A,123.0,01110,ignore,1.0,7400.0,1.29390538344
123,2_17_1,17,1.0,602.939487776,2_ND,training,02,1_A,124.0,10110,ignore,1.0,7500.0,1.04881216139
124,2_17_1,17,1.0,605.924049338,2_ND,training,02,1_A,125.0,11101,ignore,1.0,7600.0,1.22174024321
125,2_17_1,17,1.0,609.064798078,2_ND,training,02,1_A,126.0,11001,kill,1.0,7700.0,1.38076808602
126,2_17_1,17,1.0,612.018046898,2_ND,training,02,1_A,127.0,10100,ignore,1.0,7800.0,1.16319342436
127,2_17_1,17,1.0,614.471339978,2_ND,training,02,1_A,128.0,11111,ignore,1.0,7900.0,0.70043188883
128,2_17_1,17,1.0,617.330792333,2_ND,training,02,1_A,129.0,00001,kill,1.0,8000.0,1.08739382385
129,2_17_1,17,1.0,620.47159271,2_ND,training,02,1_A,130.0,10100,ignore,1.0,8100.0,1.37049493061
130,2_17_1,17,1.0,623.362359089,2_ND,training,02,1_A,131.0,11010,kill,0.0,8000.0,1.15591905147
131,2_17_1,17,1.0,626.409383527,2_ND,training,02,1_A,132.0,00111,ignore,1.0,8100.0,1.28470729958
132,2_17_1,17,1.0,629.20637044,2_ND,training,02,1_A,133.0,11110,ignore,1.0,8200.0,1.04100795014
133,2_17_1,17,1.0,634.019110102,2_ND,training,02,1_A,134.0,01101,ignore,1.0,8300.0,3.05475135442
134,2_17_1,17,1.0,637.128630772,2_ND,training,02,1_A,135.0,11000,kill,1.0,8400.0,1.34598413307
135,2_17_1,17,1.0,640.160037166,2_ND,training,02,1_A,136.0,10101,ignore,1.0,8500.0,1.27559260433
136,2_17_1,17,1.0,645.347778271,2_ND,training,02,1_A,137.0,10011,kill,1.0,8600.0,3.39880375839
137,2_17_1,17,1.0,648.086966938,2_ND,training,02,1_A,138.0,01110,ignore,1.0,8700.0,0.995782781663
138,2_17_1,17,1.0,650.712126179,2_ND,training,02,1_A,139.0,01000,kill,1.0,8800.0,0.876303588404
139,2_17_1,17,1.0,655.776570175,2_ND,training,02,1_A,140.0,00000,kill,1.0,8900.0,3.29677042347
140,2_17_1,17,1.0,658.714208328,2_ND,training,02,1_A,141.0,01010,ignore,1.0,9000.0,1.19528232174
141,2_17_1,17,1.0,661.229964284,2_ND,training,02,1_A,142.0,11011,kill,1.0,9100.0,0.738136046584
142,2_17_1,17,1.0,664.823884549,2_ND,training,02,1_A,143.0,10000,kill,1.0,9200.0,1.83618821706
143,2_17_1,17,1.0,667.370896479,2_ND,training,02,1_A,144.0,00110,ignore,1.0,9300.0,0.769274634598
144,2_17_1,17,1.0,669.996001196,2_ND,training,02,1_A,145.0,10110,ignore,1.0,9400.0,0.856951979709
145,2_17_1,17,1.0,673.293020181,2_ND,training,02,1_A,146.0,01001,kill,1.0,9500.0,1.53480704518
146,2_17_1,17,1.0,676.043160338,2_ND,training,02,1_A,147.0,11101,ignore,1.0,9600.0,0.975367968256
147,2_17_1,17,1.0,678.79329376,2_ND,training,02,1_A,148.0,11111,ignore,1.0,9700.0,0.991604371102
148,2_17_1,17,1.0,681.52780593,2_ND,training,02,1_A,149.0,00010,kill,0.0,9600.0,0.967568247159
149,2_17_1,17,1.0,684.121673276,2_ND,training,02,1_A,150.0,10111,ignore,1.0,9700.0,0.839858277859
150,2_17_1,17,1.0,686.949938292,2_ND,training,02,1_A,151.0,11100,ignore,1.0,9800.0,1.05367499997
151,2_17_1,17,1.0,689.965677571,2_ND,training,02,1_A,152.0,00011,kill,1.0,9900.0,1.25852327761
152,2_17_1,17,1.0,694.169017156,2_ND,training,02,1_A,153.0,10001,kill,1.0,10000.0,2.4226577103
153,2_17_1,17,1.0,697.106651139,2_ND,training,02,1_A,154.0,00100,ignore,1.0,10100.0,1.16389324719
154,2_17_1,17,1.0,699.716171488,2_ND,training,02,1_A,155.0,01111,ignore,1.0,10200.0,0.844424766159
155,2_17_1,17,1.0,702.63817556,2_ND,training,02,1_A,156.0,11001,kill,1.0,10300.0,1.15325382337
156,2_17_1,17,1.0,705.310152049,2_ND,training,02,1_A,157.0,01100,ignore,1.0,10400.0,0.914888137395
157,2_17_1,17,1.0,708.138441441,2_ND,training,02,1_A,158.0,00101,ignore,1.0,10500.0,1.04475306068
158,2_17_1,17,1.0,711.216696195,2_ND,training,02,1_A,159.0,10010,kill,0.0,10400.0,1.31427272949
159,2_17_1,17,1.0,713.951193612,2_ND,training,02,1_A,160.0,01011,kill,1.0,10500.0,0.947933758658
160,2_17_1,17,1.0,717.326335212,2_ND,training,02,1_A,161.0,10010,kill,0.0,10400.0,1.60496252003
161,2_17_1,17,1.0,719.998380337,2_ND,training,02,1_A,162.0,11011,kill,1.0,10500.0,0.916181943672
162,2_17_1,17,1.0,722.795399002,2_ND,training,02,1_A,163.0,11101,ignore,1.0,10600.0,1.02178206581
163,2_17_1,17,1.0,725.967384151,2_ND,training,02,1_A,164.0,01001,kill,1.0,10700.0,1.42878388624
164,2_17_1,17,1.0,728.826898726,2_ND,training,02,1_A,165.0,01100,ignore,1.0,10800.0,1.12360885356
165,2_17_1,17,1.0,731.655160215,2_ND,training,02,1_A,166.0,10011,kill,1.0,10900.0,1.06172424543
166,2_17_1,17,1.0,734.655304221,2_ND,training,02,1_A,167.0,11111,ignore,1.0,11000.0,1.25969488751
167,2_17_1,17,1.0,737.139813505,2_ND,training,02,1_A,168.0,01110,ignore,1.0,11100.0,0.695880153897
168,2_17_1,17,1.0,739.686791117,2_ND,training,02,1_A,169.0,00111,ignore,1.0,11200.0,0.779223215901
169,2_17_1,17,1.0,743.015088527,2_ND,training,02,1_A,170.0,01000,kill,1.0,11300.0,1.56353698541
170,2_17_1,17,1.0,745.624571671,2_ND,training,02,1_A,171.0,11010,ignore,1.0,11400.0,0.85418091222
171,2_17_1,17,1.0,748.187210626,2_ND,training,02,1_A,172.0,00001,kill,1.0,11500.0,0.792541017572
172,2_17_1,17,1.0,751.296735144,2_ND,training,02,1_A,173.0,01011,kill,1.0,11600.0,1.3604982405
173,2_17_1,17,1.0,754.046851246,2_ND,training,02,1_A,174.0,00100,ignore,1.0,11700.0,0.968515349276
174,2_17_1,17,1.0,756.750096218,2_ND,training,02,1_A,175.0,11100,ignore,1.0,11800.0,0.961551759307
175,2_17_1,17,1.0,759.422102855,2_ND,training,02,1_A,176.0,00101,ignore,1.0,11900.0,0.882183126509
176,2_17_1,17,1.0,762.172232428,2_ND,training,02,1_A,177.0,00000,kill,1.0,12000.0,0.989945258587
177,2_17_1,17,1.0,765.094256065,2_ND,training,02,1_A,178.0,01111,ignore,1.0,12100.0,1.14968992268
178,2_17_1,17,1.0,768.063178094,2_ND,training,02,1_A,179.0,10100,ignore,1.0,12200.0,1.18971068003
179,2_17_1,17,1.0,771.016406067,2_ND,training,02,1_A,180.0,00010,kill,0.0,12100.0,1.20598877718
180,2_17_1,17,1.0,774.032164909,2_ND,training,02,1_A,181.0,10110,ignore,1.0,12200.0,1.26119363732
181,2_17_1,17,1.0,777.73548461,2_ND,training,02,1_A,182.0,01101,ignore,1.0,12300.0,1.96247127904
182,2_17_1,17,1.0,780.641849149,2_ND,training,02,1_A,183.0,10111,ignore,1.0,12400.0,1.12195904208
183,2_17_1,17,1.0,783.845131645,2_ND,training,02,1_A,184.0,11001,kill,1.0,12500.0,1.43616826794
184,2_17_1,17,1.0,786.535751902,2_ND,training,02,1_A,185.0,00110,ignore,1.0,12600.0,0.930567440213
185,2_17_1,17,1.0,789.504685798,2_ND,training,02,1_A,186.0,11000,kill,1.0,12700.0,1.21193438471
186,2_17_1,17,1.0,792.114159,2_ND,training,02,1_A,187.0,10000,ignore,0.0,12600.0,0.86750095897
187,2_17_1,17,1.0,794.223638938,2_ND,training,02,1_A,188.0,00011,kill,1.0,12700.0,0.352503197633
188,2_17_1,17,1.0,797.067525847,2_ND,training,02,1_A,189.0,11110,ignore,1.0,12800.0,1.09032365042
189,2_17_1,17,1.0,799.661423982,2_ND,training,02,1_A,190.0,10101,ignore,1.0,12900.0,0.830724018355
190,2_17_1,17,1.0,802.692799266,2_ND,training,02,1_A,191.0,10001,kill,1.0,13000.0,1.26869829105
191,2_17_1,17,1.0,806.505449445,2_ND,training,02,1_A,192.0,01010,kill,0.0,12900.0,2.04852286708
192,2_17_1,17,1.0,809.536885667,2_ND,training,02,1_A,193.0,11011,kill,1.0,13000.0,1.29407183992
193,2_17_1,17,1.0,812.958897115,2_ND,training,02,1_A,194.0,00101,ignore,1.0,13100.0,1.62399885565
194,2_17_1,17,1.0,816.037171433,2_ND,training,02,1_A,195.0,11110,ignore,1.0,13200.0,1.34268194431
195,2_17_1,17,1.0,818.474846469,2_ND,training,02,1_A,196.0,01101,ignore,1.0,13300.0,0.655374139013
196,2_17_1,17,1.0,821.881240194,2_ND,training,02,1_A,197.0,00011,kill,1.0,13400.0,1.62008151557
197,2_17_1,17,1.0,824.614039049,2_ND,training,02,1_A,198.0,00110,ignore,1.0,13500.0,0.970040719298
198,2_17_1,17,1.0,827.364153227,2_ND,training,02,1_A,199.0,01011,kill,1.0,13600.0,0.994340479523
199,2_17_1,17,1.0,830.036194824,2_ND,training,02,1_A,200.0,01000,ignore,0.0,13500.0,0.922663483359
200,2_17_1,17,1.0,833.020696731,2_ND,training,02,1_A,201.0,00001,kill,1.0,13600.0,1.1965405275
201,2_17_1,17,1.0,836.598989651,2_ND,training,02,1_A,202.0,10011,kill,1.0,13700.0,1.80258036416
202,2_17_1,17,1.0,840.255387225,2_ND,training,02,1_A,203.0,01001,ignore,0.0,13600.0,1.90570897633
203,2_17_1,17,1.0,960.823625403,2_ND,test,02,2,0.0,10000,kill,0.0,0.0,18.8293192411
204,2_17_1,17,1.0,965.542616067,2_ND,test,02,2,1.0,11000,ignore,1.0,100.0,2.97366651999
205,2_17_1,17,1.0,976.152461311,2_ND,test,02,2,2.0,11111,kill,1.0,200.0,8.86168075506
206,2_17_1,17,1.0,987.824890985,2_ND,test,02,2,3.0,11001,ignore,1.0,300.0,9.90756276917
207,2_17_1,17,1.0,1000.20051367,2_ND,test,02,2,4.0,10001,ignore,1.0,400.0,10.6320833809
208,2_17_1,17,1.0,1004.95070418,2_ND,test,02,2,5.0,10111,kill,1.0,500.0,2.99896950928
209,2_17_1,17,1.0,1021.904657,2_ND,test,02,2,6.0,11010,ignore,0.0,400.0,15.2215834085
210,2_17_1,17,1.0,1055.17186873,2_ND,test,02,2,7.0,10110,,,300.0,
211,2_17_1,17,1.0,1071.64140045,2_ND,test,02,2,8.0,10010,ignore,0.0,200.0,14.6995364235
212,2_17_1,17,1.0,1082.67315483,2_ND,test,02,2,9.0,11100,kill,0.0,100.0,9.28425571821
213,2_17_1,17,1.0,1089.97035824,2_ND,test,02,2,10.0,11101,ignore,1.0,200.0,5.55465866478
214,2_17_1,17,1.0,1093.70494321,2_ND,test,02,2,11.0,10101,ignore,1.0,300.0,1.93549634822
215,2_17_1,17,1.0,1100.80540563,2_ND,test,02,2,12.0,01100,ignore,1.0,400.0,5.36008482545
216,2_17_1,17,1.0,1104.52428533,2_ND,test,02,2,13.0,01110,kill,0.0,300.0,1.95833392133
217,2_17_1,17,1.0,1114.89978037,2_ND,test,02,2,14.0,00000,ignore,1.0,400.0,8.61421673083
218,2_17_1,17,1.0,1121.38444681,2_ND,test,02,2,15.0,00111,kill,1.0,500.0,4.7104128634
219,2_17_1,17,1.0,1126.77533378,2_ND,test,02,2,16.0,00010,kill,1.0,600.0,3.63092876945
220,2_17_1,17,1.0,1130.50992934,2_ND,test,02,2,17.0,00100,ignore,1.0,700.0,1.97849375804
221,2_17_1,17,1.0,1139.21342415,2_ND,test,02,2,18.0,10100,ignore,1.0,800.0,6.92929736761
222,2_17_1,17,1.0,1142.74481868,2_ND,test,02,2,19.0,01111,kill,0.0,700.0,1.78415757624
223,2_17_1,17,1.0,1155.18294466,2_ND,test,02,2,20.0,01010,kill,0.0,600.0,10.6871650825
224,2_17_1,17,1.0,1159.4643828,2_ND,test,02,2,21.0,10010,ignore,0.0,500.0,2.5155628795
225,2_17_1,17,1.0,1177.68402133,2_ND,test,02,2,22.0,01100,ignore,1.0,600.0,16.4613349489
226,2_17_1,17,1.0,1190.4346259,2_ND,test,02,2,23.0,01000,ignore,1.0,700.0,10.9816233965
227,2_17_1,17,1.0,1200.52883353,2_ND,test,02,2,24.0,00110,kill,1.0,800.0,8.34171431577
228,2_17_1,17,1.0,1219.85786541,2_ND,test,02,2,25.0,10111,kill,1.0,900.0,17.5619846745
229,2_17_1,17,1.0,1229.45209357,2_ND,test,02,2,26.0,11101,ignore,1.0,1000.0,7.82068370959
230,2_17_1,17,1.0,1241.67141971,2_ND,test,02,2,27.0,01001,ignore,1.0,1100.0,10.4541555108
231,2_17_1,17,1.0,1251.43748324,2_ND,test,02,2,28.0,00011,kill,1.0,1200.0,8.02779181842
232,2_17_1,17,1.0,1260.84419416,2_ND,test,02,2,29.0,00100,ignore,1.0,1300.0,7.62752362784
233,2_17_1,17,1.0,1266.26633005,2_ND,test,02,2,30.0,00000,ignore,1.0,1400.0,3.67737301519
234,2_17_1,17,1.0,1269.6415172,2_ND,test,02,2,31.0,10011,kill,1.0,1500.0,1.59946945604
235,2_17_1,17,1.0,1275.11052133,2_ND,test,02,3,0.0,11110,kill,0.0,1400.0,3.73542078532
236,2_17_1,17,1.0,1285.67348839,2_ND,test,02,3,1.0,01010,kill,1.0,1500.0,8.79058747914
237,2_17_1,17,1.0,1294.08011817,2_ND,test,02,3,2.0,00010,kill,1.0,1600.0,6.63133576999
238,2_17_1,17,1.0,1305.48906487,2_ND,test,02,3,3.0,10101,ignore,1.0,1700.0,9.64882973715
239,2_17_1,17,1.0,1311.47370404,2_ND,test,02,3,4.0,11001,ignore,1.0,1800.0,4.21559065432
240,2_17_1,17,1.0,1314.8957357,2_ND,test,02,3,5.0,00001,ignore,1.0,1900.0,1.67597818041
241,2_17_1,17,1.0,1317.91152726,2_ND,test,02,3,6.0,00101,ignore,1.0,2000.0,1.23925473679
242,2_17_1,17,1.0,1320.94289516,2_ND,test,02,3,7.0,10110,kill,0.0,1900.0,1.2765050681
243,2_17_1,17,1.0,1328.95890096,2_ND,test,02,3,8.0,11011,kill,0.0,1800.0,6.27410828716
244,2_17_1,17,1.0,1336.41237141,2_ND,test,02,3,9.0,01110,ignore,1.0,1900.0,5.69791515658
245,2_17_1,17,1.0,1351.70995102,2_ND,test,02,3,10.0,01011,ignore,1.0,2000.0,13.563125174
246,2_17_1,17,1.0,1355.6632967,2_ND,test,02,3,11.0,00111,ignore,1.0,2100.0,2.1938146823
247,2_17_1,17,1.0,1359.21034583,2_ND,test,02,3,12.0,11111,ignore,1.0,2200.0,1.79246115695
248,2_17_1,17,1.0,1362.64942981,2_ND,test,02,3,13.0,11010,ignore,0.0,2100.0,1.69696484721
249,2_17_1,17,1.0,1371.602983,2_ND,test,02,3,14.0,10000,ignore,0.0,2000.0,7.21208961581
250,2_17_1,17,1.0,1376.80633959,2_ND,test,02,3,15.0,01111,ignore,1.0,2100.0,3.43794636958
251,2_17_1,17,1.0,1382.2909778,2_ND,test,02,3,16.0,11100,kill,1.0,2200.0,3.72212190644
252,2_17_1,17,1.0,1385.1348955,2_ND,test,02,3,17.0,10100,kill,1.0,2300.0,1.07375978694
253,2_17_1,17,1.0,1391.21327983,2_ND,test,02,3,18.0,01101,kill,0.0,2200.0,4.31848096751
254,2_17_1,17,1.0,1398.85429573,2_ND,test,02,3,19.0,11000,kill,1.0,2300.0,5.89499257841
255,2_17_1,17,1.0,1405.38583619,2_ND,test,02,3,20.0,10001,ignore,1.0,2400.0,4.75787637447
256,2_17_1,17,1.0,1409.63607802,2_ND,test,02,3,21.0,10111,ignore,1.0,2500.0,2.50845817035
257,2_17_1,17,1.0,1413.35494392,2_ND,test,02,3,22.0,11110,ignore,1.0,2600.0,1.97487308896
258,2_17_1,17,1.0,1427.37124158,2_ND,test,02,3,23.0,11001,kill,0.0,2500.0,12.271945315
259,2_17_1,17,1.0,1433.29341371,2_ND,test,02,3,24.0,10110,ignore,1.0,2600.0,4.14618375256
260,2_17_1,17,1.0,1443.41888855,2_ND,test,02,3,25.0,10100,kill,1.0,2700.0,8.33648681241
261,2_17_1,17,1.0,1455.49766608,2_ND,test,02,3,26.0,10010,ignore,0.0,2600.0,10.324737358
262,2_17_1,17,1.0,1463.15418521,2_ND,test,02,3,27.0,10001,ignore,1.0,2700.0,5.87070243995
263,2_17_1,17,1.0,1467.18563298,2_ND,test,02,3,28.0,00001,ignore,1.0,2800.0,2.27124003987
264,2_17_1,17,1.0,1471.93587096,2_ND,test,02,3,29.0,11010,kill,1.0,2900.0,2.98644614443
265,2_17_1,17,1.0,1474.81108825,2_ND,test,02,3,30.0,01010,kill,1.0,3000.0,1.0713453661
266,2_17_1,17,1.0,1478.34242376,2_ND,test,02,3,31.0,01110,ignore,1.0,3100.0,1.80476386271
267,2_17_1,17,1.0,1481.65509222,2_ND,test,02,3,32.0,01111,ignore,1.0,3200.0,1.5313101761
268,2_17_1,17,1.0,1486.74906925,2_ND,test,02,3,33.0,01000,kill,1.0,3300.0,3.35712998231
269,2_17_1,17,1.0,1496.90580584,2_ND,test,02,3,34.0,10101,kill,0.0,3200.0,8.40494308407
270,2_17_1,17,1.0,1518.15680425,2_ND,test,02,3,35.0,10000,ignore,0.0,3100.0,19.4936358458
271,2_17_1,17,1.0,1527.37598799,2_ND,test,02,3,36.0,11100,kill,1.0,3200.0,7.48414814691
272,2_17_1,17,1.0,1531.81370665,2_ND,test,02,3,37.0,00100,kill,1.0,3300.0,2.67516129281
273,2_17_1,17,1.0,1537.59524422,2_ND,test,02,3,38.0,11101,kill,0.0,3200.0,4.0056181469
274,2_17_1,17,1.0,1550.75213379,2_ND,test,02,3,39.0,10011,ignore,1.0,3300.0,11.418602779
275,2_17_1,17,1.0,1557.84218418,2_ND,test,02,3,40.0,01101,kill,0.0,3200.0,5.32091751841
276,2_17_1,17,1.0,1566.92386877,2_ND,test,02,3,41.0,00110,ignore,1.0,3300.0,7.34456267808
277,2_17_1,17,1.0,1572.33038469,2_ND,test,02,3,42.0,00101,ignore,1.0,3400.0,3.60433037026
278,2_17_1,17,1.0,1576.78368515,2_ND,test,02,3,43.0,00111,ignore,1.0,3500.0,2.66436695861
279,2_17_1,17,1.0,1588.50299237,2_ND,test,02,3,44.0,01011,ignore,1.0,3600.0,9.97200420022
280,2_17_1,17,1.0,1593.41090377,2_ND,test,02,3,45.0,00010,ignore,0.0,3500.0,3.13315620738
281,2_17_1,17,1.0,1596.864193,2_ND,test,02,3,46.0,11011,ignore,1.0,3600.0,1.71858815394
282,2_17_1,17,1.0,1613.13058912,2_ND,test,02,3,47.0,00000,ignore,0.0,3500.0,14.4626271516
283,2_17_1,17,1.0,1622.07968359,2_ND,test,02,3,48.0,01100,kill,1.0,3600.0,7.17580049854
284,2_17_1,17,1.0,1630.33010534,2_ND,test,02,3,49.0,11111,ignore,1.0,3700.0,6.51574729661
285,2_17_1,17,1.0,1633.92738841,2_ND,test,02,3,50.0,11000,kill,1.0,3800.0,1.85923714821
286,2_17_1,17,1.0,1638.11743649,2_ND,test,02,3,51.0,01001,ignore,1.0,3900.0,2.4328221398
287,2_17_1,17,1.0,1641.50824393,2_ND,test,02,3,52.0,00011,ignore,1.0,4000.0,1.63707932052
288,2_17_1,17,1.0,1645.30781589,2_ND,test,02,3,53.0,01110,kill,0.0,3900.0,2.03504438198
289,2_17_1,17,1.0,1649.71426702,2_ND,test,02,3,54.0,11001,ignore,1.0,4000.0,2.68056166716
290,2_17_1,17,1.0,1653.55817606,2_ND,test,02,3,55.0,01000,kill,1.0,4100.0,2.10093549186
291,2_17_1,17,1.0,1656.94899344,2_ND,test,02,3,56.0,10101,ignore,1.0,4200.0,1.59832254199
292,2_17_1,17,1.0,1661.10541891,2_ND,test,02,3,57.0,00110,ignore,1.0,4300.0,2.42950519768
293,2_17_1,17,1.0,1664.38683236,2_ND,test,02,3,58.0,01011,ignore,1.0,4400.0,1.51569726344
294,2_17_1,17,1.0,1667.77758206,2_ND,test,02,3,59.0,01101,ignore,1.0,4500.0,1.66198396886
295,2_17_1,17,1.0,1670.98088541,2_ND,test,02,3,60.0,10111,ignore,1.0,4600.0,1.4758622061
296,2_17_1,17,1.0,1674.79916303,2_ND,test,02,3,61.0,10100,kill,1.0,4700.0,2.04792503493
297,2_17_1,17,1.0,1679.48690029,2_ND,test,02,3,62.0,10001,ignore,1.0,4800.0,2.94927374939
298,2_17_1,17,1.0,1683.65895536,2_ND,test,02,3,63.0,11010,kill,1.0,4900.0,2.42947184224
299,2_17_1,17,1.0,1687.62789984,2_ND,test,02,4,0.0,01111,ignore,1.0,5000.0,2.244226622
300,2_17_1,17,1.0,1691.28432532,2_ND,test,02,4,1.0,01010,kill,0.0,4900.0,1.89679313083
301,2_17_1,17,1.0,1698.9096972,2_ND,test,02,4,2.0,00111,ignore,1.0,5000.0,5.851722552
302,2_17_1,17,1.0,1702.8473655,2_ND,test,02,4,3.0,10010,kill,1.0,5100.0,2.20606414765
303,2_17_1,17,1.0,1712.45721619,2_ND,test,02,4,4.0,11100,kill,0.0,5000.0,7.83596627508
304,2_17_1,17,1.0,1716.25426533,2_ND,test,02,4,5.0,01100,ignore,1.0,5100.0,2.06078484072
305,2_17_1,17,1.0,1723.2233567,2_ND,test,02,4,6.0,10110,ignore,0.0,5000.0,5.19208853817
306,2_17_1,17,1.0,1736.27086255,2_ND,test,02,4,7.0,10000,kill,1.0,5100.0,11.276213208
307,2_17_1,17,1.0,1740.00541352,2_ND,test,02,4,8.0,00100,ignore,1.0,5200.0,1.99279907323
308,2_17_1,17,1.0,1746.73022696,2_ND,test,02,4,9.0,01001,ignore,1.0,5300.0,4.95978776959
309,2_17_1,17,1.0,1760.44964996,2_ND,test,02,4,10.0,00000,kill,0.0,5200.0,11.9584291768
310,2_17_1,17,1.0,1768.93440492,2_ND,test,02,4,11.0,00001,ignore,1.0,5300.0,6.71812759226
311,2_17_1,17,1.0,1772.54399166,2_ND,test,02,4,12.0,11101,ignore,0.0,5200.0,1.8271681358
312,2_17_1,17,1.0,1784.62267394,2_ND,test,02,4,13.0,11011,ignore,0.0,5100.0,10.3700295581
313,2_17_1,17,1.0,1802.78608257,2_ND,test,02,4,14.0,11000,kill,0.0,5000.0,16.436529084
314,2_17_1,17,1.0,1808.72386569,2_ND,test,02,4,15.0,00011,kill,0.0,4900.0,4.15840916351
315,2_17_1,17,1.0,1814.81792162,2_ND,test,02,4,16.0,10011,ignore,0.0,4800.0,4.3574417274
316,2_17_1,17,1.0,1835.80326608,2_ND,test,02,4,17.0,00101,ignore,1.0,4900.0,19.1948634544
317,2_17_1,17,1.0,1844.08490724,2_ND,test,02,4,18.0,11110,kill,0.0,4800.0,6.54910819094
318,2_17_1,17,1.0,1850.96021754,2_ND,test,02,4,19.0,11111,ignore,0.0,4700.0,5.11330587069
319,2_17_1,17,1.0,1863.38270783,2_ND,test,02,4,20.0,00010,ignore,1.0,4800.0,10.6408978772
320,2_17_1,17,1.0,1871.89875629,2_ND,test,02,4,21.0,11010,ignore,1.0,4900.0,6.78429965759
321,2_17_1,17,1.0,1889.99962635,2_ND,test,02,4,22.0,01011,ignore,1.0,5000.0,16.3550548889
322,2_17_1,17,1.0,1901.68765066,2_ND,test,02,4,23.0,00101,ignore,1.0,5100.0,9.93726226229
323,2_17_1,17,1.0,1910.57869222,2_ND,test,02,4,24.0,01000,ignore,1.0,5200.0,7.13161127311
324,2_17_1,17,1.0,1915.12579652,2_ND,test,02,4,25.0,01100,ignore,1.0,5300.0,2.77707146917
325,2_17_1,17,1.0,1919.48537653,2_ND,test,02,4,26.0,01001,ignore,1.0,5400.0,2.62430931784
326,2_17_1,17,1.0,1923.70428637,2_ND,test,02,4,27.0,00011,kill,0.0,5300.0,2.46148889713
327,2_17_1,17,1.0,1931.73596762,2_ND,test,02,4,28.0,11011,ignore,0.0,5200.0,6.31528429741
328,2_17_1,17,1.0,1947.37733312,2_ND,test,02,4,29.0,10010,kill,1.0,5300.0,13.9065072619
329,2_17_1,17,1.0,1960.62796078,2_ND,test,02,4,30.0,10110,ignore,0.0,5200.0,11.4756704123
330,2_17_1,17,1.0,1972.58164995,2_ND,test,02,4,31.0,10001,ignore,0.0,5100.0,10.2078393628
331,2_17_1,17,1.0,1977.83191712,2_ND,test,02,4,32.0,11110,kill,0.0,5000.0,3.52889415164
332,2_17_1,17,1.0,1987.09797616,2_ND,test,02,4,33.0,00001,ignore,1.0,5100.0,7.48899623212
333,2_17_1,17,1.0,1993.36388029,2_ND,test,02,4,34.0,00010,ignore,1.0,5200.0,4.52017811806
334,2_17_1,17,1.0,1997.00468259,2_ND,test,02,4,35.0,01010,ignore,1.0,5300.0,1.88809185062
335,2_17_1,17,1.0,2001.5361326,2_ND,test,02,4,36.0,10100,kill,1.0,5400.0,2.78780454481
336,2_17_1,17,1.0,2006.67969892,2_ND,test,02,4,37.0,11001,kill,1.0,5500.0,3.37014084977
337,2_17_1,17,1.0,2009.92983554,2_ND,test,02,4,38.0,00100,ignore,1.0,5600.0,1.47151701833
338,2_17_1,17,1.0,2012.66437722,2_ND,test,02,4,39.0,00110,ignore,1.0,5700.0,0.988416039863
339,2_17_1,17,1.0,2016.00826349,2_ND,test,02,4,40.0,11100,kill,0.0,5600.0,1.57205898012
340,2_17_1,17,1.0,2023.30549383,2_ND,test,02,4,41.0,10011,kill,1.0,5700.0,5.56464060153
341,2_17_1,17,1.0,2027.38378194,2_ND,test,02,4,42.0,00111,ignore,1.0,5800.0,2.28111421288
342,2_17_1,17,1.0,2035.04041782,2_ND,test,02,4,43.0,11111,kill,1.0,5900.0,5.89191553889
343,2_17_1,17,1.0,2038.83747401,2_ND,test,02,4,44.0,11101,kill,1.0,6000.0,2.06025083292
344,2_17_1,17,1.0,2042.6032739,2_ND,test,02,4,45.0,01101,ignore,1.0,6100.0,2.00026973006
345,2_17_1,17,1.0,2051.58808082,2_ND,test,02,4,46.0,10000,kill,1.0,6200.0,7.23988303786
346,2_17_1,17,1.0,2056.26017694,2_ND,test,02,4,47.0,01110,ignore,1.0,6300.0,2.92110668225
347,2_17_1,17,1.0,2065.24495659,2_ND,test,02,4,48.0,10101,kill,1.0,6400.0,7.20138893343
348,2_17_1,17,1.0,2069.1514119,2_ND,test,02,4,49.0,00000,ignore,1.0,6500.0,2.1477245174
349,2_17_1,17,1.0,2073.76101339,2_ND,test,02,4,50.0,11000,kill,0.0,6400.0,2.85181844889
350,2_17_1,17,1.0,2078.6831496,2_ND,test,02,4,51.0,01111,ignore,1.0,6500.0,3.1845088347
351,2_17_1,17,1.0,2083.27714492,2_ND,test,02,4,52.0,10111,kill,1.0,6600.0,2.84734881967
352,2_17_1,17,1.0,2090.6681172,2_ND,test,02,4,53.0,11100,ignore,1.0,6700.0,5.60264944842
353,2_17_1,17,1.0,2095.46519648,2_ND,test,02,4,54.0,00111,ignore,1.0,6800.0,3.05475071297
354,2_17_1,17,1.0,2099.54350544,2_ND,test,02,4,55.0,10101,kill,1.0,6900.0,2.31452738546
355,2_17_1,17,1.0,2104.90315151,2_ND,test,02,4,56.0,11110,ignore,1.0,7000.0,3.60378064692
356,2_17_1,17,1.0,2107.96578245,2_ND,test,02,5,0.0,00000,ignore,1.0,7100.0,1.31330253514
357,2_17_1,17,1.0,2110.99717473,2_ND,test,02,5,1.0,00010,ignore,0.0,7000.0,1.27627991887
358,2_17_1,17,1.0,2121.37343855,2_ND,test,02,5,2.0,11001,kill,0.0,6900.0,8.63301733328
359,2_17_1,17,1.0,2126.65493731,2_ND,test,02,5,3.0,10001,ignore,1.0,7000.0,3.51234343789
360,2_17_1,17,1.0,2132.42083022,2_ND,test,02,5,4.0,00001,ignore,1.0,7100.0,3.98538293972
361,2_17_1,17,1.0,2143.8276226,2_ND,test,02,5,5.0,10010,kill,1.0,7200.0,9.66324377825
362,2_17_1,17,1.0,2153.37493762,2_ND,test,02,5,6.0,11101,ignore,1.0,7300.0,7.78044293461
363,2_17_1,17,1.0,2159.40649989,2_ND,test,02,5,7.0,01110,kill,0.0,7200.0,4.31318001804
364,2_17_1,17,1.0,2166.26617194,2_ND,test,02,5,8.0,00101,ignore,1.0,7300.0,5.06397605849
