,unique_id,pair_id,sbj_id,wall_time,condition,block,rule_id,rule_num,trial,stimulus,choice,correct,points,reaction_time
0,2_20_1,20,1.0,25.8311630914,2_ND,training,05,1_B,1.0,01010,ignore,1.0,100.0,3.67445633837
1,2_20_1,20,1.0,28.4094011672,2_ND,training,05,1_B,2.0,00010,ignore,1.0,200.0,0.785477361274
2,2_20_1,20,1.0,31.9775864259,2_ND,training,05,1_B,3.0,01001,ignore,0.0,100.0,1.77631038778
3,2_20_1,20,1.0,37.9153801302,2_ND,training,05,1_B,4.0,11100,kill,1.0,200.0,4.14279079852
4,2_20_1,20,1.0,46.2275970098,2_ND,training,05,1_B,5.0,10001,kill,1.0,300.0,6.51649105882
5,2_20_1,20,1.0,49.3528697868,2_ND,training,05,1_B,6.0,01111,ignore,1.0,400.0,1.3136036963
6,2_20_1,20,1.0,52.0873732974,2_ND,training,05,1_B,7.0,01000,kill,1.0,500.0,0.938320014677
7,2_20_1,20,1.0,56.4032162985,2_ND,training,05,1_B,8.0,11001,kill,1.0,600.0,2.54679127062
8,2_20_1,20,1.0,59.0439310415,2_ND,training,05,1_B,9.0,10101,kill,1.0,700.0,0.825882989109
9,2_20_1,20,1.0,62.0597652547,2_ND,training,05,1_B,10.0,00110,ignore,1.0,800.0,1.19825320116
10,2_20_1,20,1.0,65.0005410638,2_ND,training,05,1_B,11.0,00000,kill,0.0,700.0,1.13910341855
11,2_20_1,20,1.0,68.1569011127,2_ND,training,05,1_B,12.0,00111,ignore,1.0,800.0,1.3471534979
12,2_20_1,20,1.0,71.8758414231,2_ND,training,05,1_B,13.0,10111,ignore,1.0,900.0,1.91478358091
13,2_20_1,20,1.0,77.9698765079,2_ND,training,05,1_B,14.0,01101,kill,1.0,1000.0,4.2827556855
14,2_20_1,20,1.0,81.8294356644,2_ND,training,05,1_B,15.0,10010,ignore,1.0,1100.0,2.06705598455
15,2_20_1,20,1.0,86.2827697974,2_ND,training,05,1_B,16.0,10110,ignore,1.0,1200.0,2.6780510287
16,2_20_1,20,1.0,89.5016937509,2_ND,training,05,1_B,17.0,00001,ignore,0.0,1100.0,1.42367120258
17,2_20_1,20,1.0,92.6580618179,2_ND,training,05,1_B,18.0,01110,ignore,1.0,1200.0,1.40566920638
18,2_20_1,20,1.0,96.9083068521,2_ND,training,05,1_B,19.0,10011,ignore,1.0,1300.0,2.45184917439
19,2_20_1,20,1.0,99.8307461484,2_ND,training,05,1_B,20.0,11110,ignore,1.0,1400.0,1.15886748011
20,2_20_1,20,1.0,104.627879954,2_ND,training,05,1_B,21.0,00101,kill,1.0,1500.0,2.99905033208
21,2_20_1,20,1.0,107.627989,2_ND,training,05,1_B,22.0,11011,ignore,1.0,1600.0,1.22774550568
22,2_20_1,20,1.0,110.393777991,2_ND,training,05,1_B,23.0,11101,kill,1.0,1700.0,1.01006275955
23,2_20_1,20,1.0,113.972053271,2_ND,training,05,1_B,24.0,01100,kill,1.0,1800.0,1.79229854916
24,2_20_1,20,1.0,116.659708101,2_ND,training,05,1_B,25.0,11111,ignore,1.0,1900.0,0.926633422408
25,2_20_1,20,1.0,120.284821478,2_ND,training,05,1_B,26.0,11010,ignore,1.0,2000.0,1.87388916756
26,2_20_1,20,1.0,124.441304685,2_ND,training,05,1_B,27.0,10000,kill,0.0,1900.0,2.35604528899
27,2_20_1,20,1.0,127.207039794,2_ND,training,05,1_B,28.0,00100,kill,0.0,1800.0,0.978700946653
28,2_20_1,20,1.0,130.050939212,2_ND,training,05,1_B,29.0,10100,ignore,1.0,1900.0,1.05845444994
29,2_20_1,20,1.0,133.207327485,2_ND,training,05,1_B,30.0,11000,ignore,0.0,1800.0,1.39086388029
30,2_20_1,20,1.0,135.691809507,2_ND,training,05,1_B,31.0,01011,ignore,1.0,1900.0,0.725985043933
31,2_20_1,20,1.0,138.254446858,2_ND,training,05,1_B,32.0,00011,ignore,1.0,2000.0,0.775778625062
32,2_20_1,20,1.0,142.960966435,2_ND,training,05,1_B,33.0,11101,kill,1.0,2100.0,2.93566216325
33,2_20_1,20,1.0,150.726922845,2_ND,training,05,1_B,34.0,10100,ignore,1.0,2200.0,5.99168808043
34,2_20_1,20,1.0,154.133353774,2_ND,training,05,1_B,35.0,00000,kill,0.0,2100.0,1.6187764839
35,2_20_1,20,1.0,157.730407847,2_ND,training,05,1_B,36.0,11011,ignore,1.0,2200.0,1.84859130988
36,2_20_1,20,1.0,160.324264609,2_ND,training,05,1_B,37.0,00110,ignore,1.0,2300.0,0.812878536159
37,2_20_1,20,1.0,163.855713017,2_ND,training,05,1_B,38.0,01101,kill,1.0,2400.0,1.76334570478
38,2_20_1,20,1.0,166.343355468,2_ND,training,05,1_B,39.0,11010,ignore,1.0,2500.0,0.75694049774
39,2_20_1,20,1.0,169.280991054,2_ND,training,05,1_B,40.0,01001,kill,1.0,2600.0,1.15780106814
40,2_20_1,20,1.0,171.749819432,2_ND,training,05,1_B,41.0,11110,ignore,1.0,2700.0,0.702641366137
41,2_20_1,20,1.0,174.454969512,2_ND,training,05,1_B,42.0,01000,ignore,0.0,2600.0,0.921422917498
42,2_20_1,20,1.0,178.002012231,2_ND,training,05,1_B,43.0,00011,ignore,1.0,2700.0,1.77091161706
43,2_20_1,20,1.0,180.689654553,2_ND,training,05,1_B,44.0,10111,ignore,1.0,2800.0,0.898233508618
44,2_20_1,20,1.0,183.596038015,2_ND,training,05,1_B,45.0,10010,ignore,1.0,2900.0,1.10016318508
45,2_20_1,20,1.0,186.986842882,2_ND,training,05,1_B,46.0,00101,kill,1.0,3000.0,1.59746203573
46,2_20_1,20,1.0,190.486996509,2_ND,training,05,1_B,47.0,10001,kill,1.0,3100.0,1.71544857296
47,2_20_1,20,1.0,195.47737154,2_ND,training,05,1_B,48.0,01100,ignore,0.0,3000.0,3.20438226363
48,2_20_1,20,1.0,198.852537195,2_ND,training,05,1_B,49.0,11100,kill,1.0,3100.0,1.60182069397
49,2_20_1,20,1.0,203.571515992,2_ND,training,05,1_B,50.0,11001,kill,1.0,3200.0,2.94341185119
50,2_20_1,20,1.0,206.352851826,2_ND,training,05,1_B,51.0,00100,kill,0.0,3100.0,0.990175860155
51,2_20_1,20,1.0,211.790660284,2_ND,training,05,1_B,52.0,10000,ignore,1.0,3200.0,3.66982153556
52,2_20_1,20,1.0,214.384504858,2_ND,training,05,1_B,53.0,01011,ignore,1.0,3300.0,0.824023743942
53,2_20_1,20,1.0,219.294187943,2_ND,training,05,1_B,54.0,11111,ignore,1.0,3400.0,3.15051482842
54,2_20_1,20,1.0,222.263021131,2_ND,training,05,1_B,55.0,01010,ignore,1.0,3500.0,1.20590667148
55,2_20_1,20,1.0,225.872536348,2_ND,training,05,1_B,56.0,10101,kill,1.0,3600.0,1.82001692147
56,2_20_1,20,1.0,229.169590613,2_ND,training,05,1_B,57.0,00001,kill,1.0,3700.0,1.52083175643
57,2_20_1,20,1.0,233.216703571,2_ND,training,05,1_B,58.0,11000,ignore,0.0,3600.0,2.27510574317
58,2_20_1,20,1.0,238.076357663,2_ND,training,05,1_B,59.0,00111,ignore,1.0,3700.0,3.09349017233
59,2_20_1,20,1.0,240.4982668,2_ND,training,05,1_B,60.0,01111,ignore,1.0,3800.0,0.655671130735
60,2_20_1,20,1.0,243.217149701,2_ND,training,05,1_B,61.0,10011,ignore,1.0,3900.0,0.940178939116
61,2_20_1,20,1.0,246.12354118,2_ND,training,05,1_B,62.0,10110,ignore,1.0,4000.0,1.14185043164
62,2_20_1,20,1.0,248.717462408,2_ND,training,05,1_B,63.0,00010,ignore,1.0,4100.0,0.839432995974
63,2_20_1,20,1.0,250.920703851,2_ND,training,05,1_B,64.0,01110,ignore,1.0,4200.0,0.454244993158
64,2_20_1,20,1.0,253.280145301,2_ND,training,05,1_B,65.0,00010,ignore,1.0,4300.0,0.571043884214
65,2_20_1,20,1.0,255.749046804,2_ND,training,05,1_B,66.0,00111,ignore,1.0,4400.0,0.690862404954
66,2_20_1,20,1.0,259.2179807,2_ND,training,05,1_B,67.0,00001,kill,1.0,4500.0,1.68606371146
67,2_20_1,20,1.0,263.858777549,2_ND,training,05,1_B,68.0,10100,kill,0.0,4400.0,2.8566274056
68,2_20_1,20,1.0,266.952712567,2_ND,training,05,1_B,69.0,10010,ignore,1.0,4500.0,1.31548924095
69,2_20_1,20,1.0,269.609062994,2_ND,training,05,1_B,70.0,00101,ignore,0.0,4400.0,0.869002595311
70,2_20_1,20,1.0,272.374829534,2_ND,training,05,1_B,71.0,11111,ignore,1.0,4500.0,1.00944279734
71,2_20_1,20,1.0,277.125099906,2_ND,training,05,1_B,72.0,10110,ignore,1.0,4600.0,2.99236513176
72,2_20_1,20,1.0,285.406733053,2_ND,training,05,1_B,73.0,00000,ignore,1.0,4700.0,6.49365990021
73,2_20_1,20,1.0,289.328795176,2_ND,training,05,1_B,74.0,01001,kill,1.0,4800.0,2.13221199179
74,2_20_1,20,1.0,293.047684812,2_ND,training,05,1_B,75.0,01000,ignore,0.0,4700.0,1.94900562296
75,2_20_1,20,1.0,296.891691993,2_ND,training,05,1_B,76.0,11010,ignore,1.0,4800.0,2.08518691235
76,2_20_1,20,1.0,301.288782116,2_ND,training,05,1_B,77.0,11100,ignore,0.0,4700.0,2.64025161549
77,2_20_1,20,1.0,304.010892476,2_ND,training,05,1_B,78.0,01011,ignore,1.0,4800.0,0.93160691125
78,2_20_1,20,1.0,311.589438448,2_ND,training,05,1_B,79.0,10000,ignore,1.0,4900.0,5.80539889901
79,2_20_1,20,1.0,314.089526006,2_ND,training,05,1_B,80.0,01010,ignore,1.0,5000.0,0.736392904015
80,2_20_1,20,1.0,316.230258068,2_ND,training,05,1_B,81.0,00110,ignore,1.0,5100.0,0.35363728266
81,2_20_1,20,1.0,321.152297099,2_ND,training,05,1_B,82.0,00100,kill,0.0,5000.0,3.13873779159
82,2_20_1,20,1.0,324.715023933,2_ND,training,05,1_B,83.0,10001,kill,1.0,5100.0,1.79384476634
83,2_20_1,20,1.0,331.793477215,2_ND,training,05,1_B,84.0,11101,kill,1.0,5200.0,5.30470516997
84,2_20_1,20,1.0,334.981118254,2_ND,training,05,1_B,85.0,10011,ignore,1.0,5300.0,1.41641767684
85,2_20_1,20,1.0,338.356305077,2_ND,training,05,1_B,86.0,01101,kill,1.0,5400.0,1.60634260144
86,2_20_1,20,1.0,341.04396119,2_ND,training,05,1_B,87.0,10111,ignore,1.0,5500.0,0.92418468395
87,2_20_1,20,1.0,344.247202633,2_ND,training,05,1_B,88.0,11001,kill,1.0,5600.0,1.43052221793
88,2_20_1,20,1.0,348.794267162,2_ND,training,05,1_B,89.0,01100,ignore,0.0,5500.0,2.76340503898
89,2_20_1,20,1.0,352.106949093,2_ND,training,05,1_B,90.0,10101,kill,1.0,5600.0,1.5460789395
90,2_20_1,20,1.0,356.575882348,2_ND,training,05,1_B,91.0,11000,ignore,0.0,5500.0,2.69952551884
91,2_20_1,20,1.0,359.169775351,2_ND,training,05,1_B,92.0,11110,ignore,1.0,5600.0,0.813173603528
92,2_20_1,20,1.0,361.391772495,2_ND,training,05,1_B,93.0,01111,ignore,1.0,5700.0,0.475686127855
93,2_20_1,20,1.0,363.954379698,2_ND,training,05,1_B,94.0,00011,ignore,1.0,5800.0,0.7758687489
94,2_20_1,20,1.0,366.376387618,2_ND,training,05,1_B,95.0,11011,ignore,1.0,5900.0,0.656768332345
95,2_20_1,20,1.0,372.377055689,2_ND,training,05,1_B,96.0,01110,ignore,1.0,6000.0,4.22085600327
96,2_20_1,20,1.0,377.111676906,2_ND,training,05,1_B,97.0,11000,ignore,0.0,5900.0,2.97668390459
97,2_20_1,20,1.0,379.36173143,2_ND,training,05,1_B,98.0,00010,ignore,1.0,6000.0,0.47956017001
98,2_20_1,20,1.0,383.065056903,2_ND,training,05,1_B,99.0,10000,kill,0.0,5900.0,1.91465785655
99,2_20_1,20,1.0,385.987063862,2_ND,training,05,1_B,100.0,00110,ignore,1.0,6000.0,1.15647037845
100,2_20_1,20,1.0,389.987281634,2_ND,training,05,1_B,101.0,00001,kill,1.0,6100.0,2.22056286025
101,2_20_1,20,1.0,392.612407519,2_ND,training,05,1_B,102.0,11110,ignore,1.0,6200.0,0.850148110992
102,2_20_1,20,1.0,394.878155136,2_ND,training,05,1_B,103.0,11111,ignore,1.0,6300.0,0.503228421916
103,2_20_1,20,1.0,407.050617204,2_ND,training,05,1_B,104.0,11100,ignore,0.0,6200.0,10.4104804082
104,2_20_1,20,1.0,411.519575154,2_ND,training,05,1_B,105.0,01111,ignore,1.0,6300.0,2.68916127741
105,2_20_1,20,1.0,414.754105606,2_ND,training,05,1_B,106.0,11011,ignore,1.0,6400.0,1.46741526114
106,2_20_1,20,1.0,419.785615273,2_ND,training,05,1_B,107.0,00111,ignore,1.0,6500.0,3.23865850827
107,2_20_1,20,1.0,425.317090944,2_ND,training,05,1_B,108.0,01000,kill,1.0,6600.0,3.77843230706
108,2_20_1,20,1.0,428.08284241,2_ND,training,05,1_B,109.0,01001,kill,1.0,6700.0,0.983999651053
109,2_20_1,20,1.0,431.911162591,2_ND,training,05,1_B,110.0,10101,kill,1.0,6800.0,2.03904671429
110,2_20_1,20,1.0,434.739447813,2_ND,training,05,1_B,111.0,01100,kill,1.0,6900.0,1.07586374558
111,2_20_1,20,1.0,437.80207458,2_ND,training,05,1_B,112.0,10110,ignore,1.0,7000.0,1.26403237787
112,2_20_1,20,1.0,442.192923707,2_ND,training,05,1_B,113.0,10100,ignore,1.0,7100.0,2.62713587083
113,2_20_1,20,1.0,446.818111171,2_ND,training,05,1_B,114.0,10001,kill,1.0,7200.0,2.84713521655
114,2_20_1,20,1.0,451.615202961,2_ND,training,05,1_B,115.0,10011,ignore,1.0,7300.0,3.02739443965
115,2_20_1,20,1.0,454.396622184,2_ND,training,05,1_B,116.0,01110,ignore,1.0,7400.0,1.02438411101
116,2_20_1,20,1.0,457.95930155,2_ND,training,05,1_B,117.0,00000,ignore,1.0,7500.0,1.78971221951
117,2_20_1,20,1.0,460.506273068,2_ND,training,05,1_B,118.0,11010,ignore,1.0,7600.0,0.781672595811
118,2_20_1,20,1.0,464.193942972,2_ND,training,05,1_B,119.0,01011,ignore,1.0,7700.0,1.93332247143
119,2_20_1,20,1.0,466.553424193,2_ND,training,05,1_B,120.0,01010,ignore,1.0,7800.0,0.590585362348
120,2_20_1,20,1.0,469.022297472,2_ND,training,05,1_B,121.0,10111,ignore,1.0,7900.0,0.702627254217
121,2_20_1,20,1.0,471.647400905,2_ND,training,05,1_B,122.0,10010,ignore,1.0,8000.0,0.849648100088
122,2_20_1,20,1.0,474.600702004,2_ND,training,05,1_B,123.0,01101,kill,1.0,8100.0,1.18284426986
123,2_20_1,20,1.0,478.210253463,2_ND,training,05,1_B,124.0,00100,ignore,1.0,8200.0,1.8455097802
124,2_20_1,20,1.0,481.819800111,2_ND,training,05,1_B,125.0,11101,kill,1.0,8300.0,1.81788794624
125,2_20_1,20,1.0,484.788666334,2_ND,training,05,1_B,126.0,00101,kill,1.0,8400.0,1.17437519484
126,2_20_1,20,1.0,487.382551319,2_ND,training,05,1_B,127.0,11001,kill,1.0,8500.0,0.830673664466
127,2_20_1,20,1.0,490.070624696,2_ND,training,05,1_B,128.0,00011,ignore,1.0,8600.0,0.8996068548
128,2_20_1,20,1.0,493.633301817,2_ND,training,05,1_B,129.0,00100,ignore,1.0,8700.0,1.77433183277
129,2_20_1,20,1.0,496.961696406,2_ND,training,05,1_B,130.0,11110,ignore,1.0,8800.0,1.55716256801
130,2_20_1,20,1.0,499.336773862,2_ND,training,05,1_B,131.0,11010,ignore,1.0,8900.0,0.606216877084
131,2_20_1,20,1.0,503.555720587,2_ND,training,05,1_B,132.0,00000,ignore,1.0,9000.0,2.42005277857
132,2_20_1,20,1.0,506.852790247,2_ND,training,05,1_B,133.0,01100,kill,1.0,9100.0,1.52833576871
133,2_20_1,20,1.0,512.259268643,2_ND,training,05,1_B,134.0,01011,kill,0.0,9000.0,3.63430440433
134,2_20_1,20,1.0,514.806288271,2_ND,training,05,1_B,135.0,00110,ignore,1.0,9100.0,0.756549212747
135,2_20_1,20,1.0,517.275145513,2_ND,training,05,1_B,136.0,11111,ignore,1.0,9200.0,0.701882209109
136,2_20_1,20,1.0,519.743959778,2_ND,training,05,1_B,137.0,00111,ignore,1.0,9300.0,0.688435796546
137,2_20_1,20,1.0,522.228487664,2_ND,training,05,1_B,138.0,01010,ignore,1.0,9400.0,0.716318059534
138,2_20_1,20,1.0,525.10363632,2_ND,training,05,1_B,139.0,01111,ignore,1.0,9500.0,1.11964340467
139,2_20_1,20,1.0,527.275620828,2_ND,training,05,1_B,140.0,10110,ignore,1.0,9600.0,0.393384140512
140,2_20_1,20,1.0,530.307007658,2_ND,training,05,1_B,141.0,11000,kill,1.0,9700.0,1.26536948208
141,2_20_1,20,1.0,532.807142683,2_ND,training,05,1_B,142.0,10111,ignore,1.0,9800.0,0.72473132833
142,2_20_1,20,1.0,535.65099303,2_ND,training,05,1_B,143.0,00010,ignore,1.0,9900.0,1.04660845714
143,2_20_1,20,1.0,538.807392528,2_ND,training,05,1_B,144.0,10101,kill,1.0,10000.0,1.39499001261
144,2_20_1,20,1.0,541.901314718,2_ND,training,05,1_B,145.0,10100,ignore,1.0,10100.0,1.32238644076
145,2_20_1,20,1.0,544.760868101,2_ND,training,05,1_B,146.0,00011,ignore,1.0,10200.0,1.06710826278
146,2_20_1,20,1.0,547.042189503,2_ND,training,05,1_B,147.0,01110,ignore,1.0,10300.0,0.512151323375
147,2_20_1,20,1.0,549.214180745,2_ND,training,05,1_B,148.0,11011,ignore,1.0,10400.0,0.410120554265
148,2_20_1,20,1.0,552.170872553,2_ND,training,05,1_B,149.0,10000,ignore,1.0,10500.0,1.21838545549
149,2_20_1,20,1.0,555.155369328,2_ND,training,05,1_B,150.0,00001,kill,1.0,10600.0,1.20048737432
150,2_20_1,20,1.0,557.921122077,2_ND,training,05,1_B,151.0,10011,ignore,1.0,10700.0,0.999462143496
151,2_20_1,20,1.0,560.405564008,2_ND,training,05,1_B,152.0,10010,ignore,1.0,10800.0,0.743109856146
152,2_20_1,20,1.0,563.233860456,2_ND,training,05,1_B,153.0,11101,kill,1.0,10900.0,1.04940999355
153,2_20_1,20,1.0,566.202786655,2_ND,training,05,1_B,154.0,11100,kill,1.0,11000.0,1.20619339998
154,2_20_1,20,1.0,569.640414865,2_ND,training,05,1_B,155.0,01001,kill,1.0,11100.0,1.65215309378
155,2_20_1,20,1.0,572.531163284,2_ND,training,05,1_B,156.0,01000,kill,1.0,11200.0,1.10400162672
156,2_20_1,20,1.0,575.171932871,2_ND,training,05,1_B,157.0,00101,kill,1.0,11300.0,0.874399762408
157,2_20_1,20,1.0,577.547081848,2_ND,training,05,1_B,158.0,01101,kill,1.0,11400.0,0.590222942643
158,2_20_1,20,1.0,579.984718397,2_ND,training,05,1_B,159.0,10001,kill,1.0,11500.0,0.662162292185
159,2_20_1,20,1.0,582.328573234,2_ND,training,05,1_B,160.0,11001,kill,1.0,11600.0,0.586948015542
160,2_20_1,20,1.0,585.406825742,2_ND,training,05,1_B,161.0,11111,ignore,1.0,11700.0,1.2987730329
161,2_20_1,20,1.0,588.266348015,2_ND,training,05,1_B,162.0,10000,ignore,1.0,11800.0,1.10964030004
162,2_20_1,20,1.0,591.735241821,2_ND,training,05,1_B,163.0,11011,ignore,1.0,11900.0,1.72915413165
163,2_20_1,20,1.0,595.297943958,2_ND,training,05,1_B,164.0,11101,kill,1.0,12000.0,1.78708964788
164,2_20_1,20,1.0,597.938691735,2_ND,training,05,1_B,165.0,00111,ignore,1.0,12100.0,0.86530687648
165,2_20_1,20,1.0,601.829480887,2_ND,training,05,1_B,166.0,10001,kill,1.0,12200.0,2.10129630794
166,2_20_1,20,1.0,604.392140047,2_ND,training,05,1_B,167.0,00110,ignore,1.0,12300.0,0.799387542767
167,2_20_1,20,1.0,607.236018617,2_ND,training,05,1_B,168.0,00100,ignore,1.0,12400.0,1.06266974392
168,2_20_1,20,1.0,611.548702794,2_ND,training,05,1_B,169.0,10110,ignore,1.0,12500.0,2.53818973602
169,2_20_1,20,1.0,614.47340128,2_ND,training,05,1_B,170.0,01011,ignore,1.0,12600.0,1.16345064613
170,2_20_1,20,1.0,616.832875765,2_ND,training,05,1_B,171.0,01111,ignore,1.0,12700.0,0.587669326978
171,2_20_1,20,1.0,620.914601409,2_ND,training,05,1_B,172.0,11100,kill,1.0,12800.0,2.33179812773
172,2_20_1,20,1.0,623.336581106,2_ND,training,05,1_B,173.0,10111,ignore,1.0,12900.0,0.636190269706
173,2_20_1,20,1.0,626.852392868,2_ND,training,05,1_B,174.0,10010,ignore,1.0,13000.0,1.72973272028
174,2_20_1,20,1.0,629.024353001,2_ND,training,05,1_B,175.0,01010,ignore,1.0,13100.0,0.427416313119
175,2_20_1,20,1.0,632.462052412,2_ND,training,05,1_B,176.0,00001,kill,1.0,13200.0,1.65765064793
176,2_20_1,20,1.0,634.993412942,2_ND,training,05,1_B,177.0,00010,ignore,1.0,13300.0,0.765787708009
177,2_20_1,20,1.0,638.884224223,2_ND,training,05,1_B,178.0,01100,kill,1.0,13400.0,2.10978943736
178,2_20_1,20,1.0,641.462435679,2_ND,training,05,1_B,179.0,10011,ignore,1.0,13500.0,0.799301267634
179,2_20_1,20,1.0,645.65017935,2_ND,training,05,1_B,180.0,10100,ignore,1.0,13600.0,2.42245886055
180,2_20_1,20,1.0,648.478391126,2_ND,training,05,1_B,181.0,01110,ignore,1.0,13700.0,1.06762270633
181,2_20_1,20,1.0,652.166063275,2_ND,training,05,1_B,182.0,00000,ignore,1.0,13800.0,1.9277947691
182,2_20_1,20,1.0,656.416301895,2_ND,training,05,1_B,183.0,01000,kill,1.0,13900.0,2.48212469034
183,2_20_1,20,1.0,658.713302599,2_ND,training,05,1_B,184.0,11110,ignore,1.0,14000.0,0.532585380308
184,2_20_1,20,1.0,661.400932413,2_ND,training,05,1_B,185.0,01001,kill,1.0,14100.0,0.92677486231
185,2_20_1,20,1.0,664.010403049,2_ND,training,05,1_B,186.0,11001,kill,1.0,14200.0,0.857322417552
186,2_20_1,20,1.0,666.791740808,2_ND,training,05,1_B,187.0,11010,ignore,1.0,14300.0,0.998418823758
187,2_20_1,20,1.0,669.885684486,2_ND,training,05,1_B,188.0,11000,kill,1.0,14400.0,1.34126337585
188,2_20_1,20,1.0,672.729570754,2_ND,training,05,1_B,189.0,10101,kill,1.0,14500.0,1.05425230569
189,2_20_1,20,1.0,675.229689743,2_ND,training,05,1_B,190.0,00101,kill,1.0,14600.0,0.705945799971
190,2_20_1,20,1.0,677.839207205,2_ND,training,05,1_B,191.0,01101,kill,1.0,14700.0,0.844659857881
191,2_20_1,20,1.0,683.167562025,2_ND,training,05,1_B,192.0,00011,ignore,1.0,14800.0,3.54541824517
192,2_20_1,20,1.0,685.589553909,2_ND,training,05,1_B,193.0,01110,ignore,1.0,14900.0,0.673875183937
193,2_20_1,20,1.0,688.43345461,2_ND,training,05,1_B,194.0,11001,kill,1.0,15000.0,1.06974013545
194,2_20_1,20,1.0,691.824228367,2_ND,training,05,1_B,195.0,10101,kill,1.0,15100.0,1.61808307558
195,2_20_1,20,1.0,694.089958023,2_ND,training,05,1_B,196.0,10110,ignore,1.0,15200.0,0.487291255868
196,2_20_1,20,1.0,697.043224483,2_ND,training,05,1_B,197.0,11100,kill,1.0,15300.0,1.19561427254
197,2_20_1,20,1.0,699.558967931,2_ND,training,05,1_B,198.0,00001,kill,1.0,15400.0,0.746961126799
198,2_20_1,20,1.0,701.954931346,2_ND,training,05,1_B,199.0,11101,kill,1.0,15500.0,0.619451931601
199,2_20_1,20,1.0,704.236300535,2_ND,training,05,1_B,200.0,01001,kill,1.0,15600.0,0.522868042026
200,2_20_1,20,1.0,707.502057453,2_ND,training,05,1_B,201.0,10011,ignore,1.0,15700.0,1.50154846225
201,2_20_1,20,1.0,709.924057356,2_ND,training,05,1_B,202.0,01111,ignore,1.0,15800.0,0.639577129969
202,2_20_1,20,1.0,712.846077464,2_ND,training,05,1_B,203.0,11000,kill,1.0,15900.0,1.14963796517
203,2_20_1,20,1.0,715.45556991,2_ND,training,05,1_B,204.0,00110,ignore,1.0,16000.0,0.837847329574
204,2_20_1,20,1.0,718.549452329,2_ND,training,05,1_B,205.0,11011,ignore,1.0,16100.0,1.32378127554
205,2_20_1,20,1.0,720.815195777,2_ND,training,05,1_B,206.0,11110,ignore,1.0,16200.0,0.501712673657
206,2_20_1,20,1.0,723.11216922,2_ND,training,05,1_B,207.0,10111,ignore,1.0,16300.0,0.512680520293
207,2_20_1,20,1.0,726.315456206,2_ND,training,05,1_B,208.0,10100,ignore,1.0,16400.0,1.42664144054
208,2_20_1,20,1.0,729.3468626,2_ND,training,05,1_B,209.0,00000,ignore,1.0,16500.0,1.24797910923
209,2_20_1,20,1.0,732.190751434,2_ND,training,05,1_B,210.0,00101,kill,1.0,16600.0,1.06002696659
210,2_20_1,20,1.0,735.440892553,2_ND,training,05,1_B,211.0,00111,ignore,1.0,16700.0,1.48120773641
211,2_20_1,20,1.0,738.128536799,2_ND,training,05,1_B,212.0,01010,ignore,1.0,16800.0,0.924394759091
212,2_20_1,20,1.0,741.050512968,2_ND,training,05,1_B,213.0,10000,ignore,1.0,16900.0,1.15907498945
213,2_20_1,20,1.0,744.613172128,2_ND,training,05,1_B,214.0,00100,ignore,1.0,17000.0,1.77453837993
214,2_20_1,20,1.0,748.207116127,2_ND,training,05,1_B,215.0,01101,kill,1.0,17100.0,1.79733297583
215,2_20_1,20,1.0,752.566685226,2_ND,training,05,1_B,216.0,11010,ignore,1.0,17200.0,2.62063188036
216,2_20_1,20,1.0,754.738706296,2_ND,training,05,1_B,217.0,11111,ignore,1.0,17300.0,0.40967859466
217,2_20_1,20,1.0,757.988848698,2_ND,training,05,1_B,218.0,01100,kill,1.0,17400.0,1.48097617267
218,2_20_1,20,1.0,761.863995751,2_ND,training,05,1_B,219.0,01000,kill,1.0,17500.0,2.11703654859
219,2_20_1,20,1.0,764.535997578,2_ND,training,05,1_B,220.0,00010,ignore,1.0,17600.0,0.885674222529
220,2_20_1,20,1.0,766.911137254,2_ND,training,05,1_B,221.0,00011,ignore,1.0,17700.0,0.625707680603
221,2_20_1,20,1.0,769.145619276,2_ND,training,05,1_B,222.0,01011,ignore,1.0,17800.0,0.472214916812
222,2_20_1,20,1.0,771.973876595,2_ND,training,05,1_B,223.0,10001,kill,1.0,17900.0,1.07777943842
223,2_20_1,20,1.0,774.55209671,2_ND,training,05,1_B,224.0,10010,ignore,1.0,18000.0,0.818367109994
224,2_20_1,20,1.0,777.052227245,2_ND,training,05,1_B,225.0,00111,ignore,1.0,18100.0,0.728039931593
225,2_20_1,20,1.0,783.318175958,2_ND,training,05,1_B,226.0,01001,kill,1.0,18200.0,4.49907855592
226,2_20_1,20,1.0,785.849537129,2_ND,training,05,1_B,227.0,11011,ignore,1.0,18300.0,0.771477697399
227,2_20_1,20,1.0,788.099662212,2_ND,training,05,1_B,228.0,01110,ignore,1.0,18400.0,0.483859494052
228,2_20_1,20,1.0,790.95914247,2_ND,training,05,1_B,229.0,00101,kill,1.0,18500.0,1.08787651559
229,2_20_1,20,1.0,794.006149268,2_ND,training,05,1_B,230.0,11101,kill,1.0,18600.0,1.26693013189
230,2_20_1,20,1.0,796.756301613,2_ND,training,05,1_B,231.0,10011,ignore,1.0,18700.0,0.991101473668
231,2_20_1,20,1.0,798.990794539,2_ND,training,05,1_B,232.0,11010,ignore,1.0,18800.0,0.462852300821
232,2_20_1,20,1.0,801.694051378,2_ND,training,05,1_B,233.0,10101,kill,1.0,18900.0,0.915138944656
233,2_20_1,20,1.0,804.225390419,2_ND,training,05,1_B,234.0,10110,ignore,1.0,19000.0,0.782097877698
234,2_20_1,20,1.0,806.491139961,2_ND,training,05,1_B,235.0,00110,ignore,1.0,19100.0,0.51040721863
235,2_20_1,20,1.0,809.397514122,2_ND,training,05,1_B,236.0,01100,kill,1.0,19200.0,1.16209590203
236,2_20_1,20,1.0,812.038259654,2_ND,training,05,1_B,237.0,10001,kill,1.0,19300.0,0.850309115143
237,2_20_1,20,1.0,816.382234763,2_ND,training,05,1_B,238.0,11000,kill,1.0,19400.0,2.58350310398
238,2_20_1,20,1.0,819.210505553,2_ND,training,05,1_B,239.0,00001,kill,1.0,19500.0,1.07054996709
239,2_20_1,20,1.0,822.038733366,2_ND,training,05,1_B,240.0,11100,kill,1.0,19600.0,1.07494422585
240,2_20_1,20,1.0,824.585751068,2_ND,training,05,1_B,241.0,11001,kill,1.0,19700.0,0.783806381922
241,2_20_1,20,1.0,826.948635185,2_ND,training,05,1_B,242.0,01101,kill,1.0,19800.0,0.615867183762
242,2_20_1,20,1.0,829.808150082,2_ND,training,05,1_B,243.0,01111,ignore,1.0,19900.0,1.08708977617
243,2_20_1,20,1.0,832.276990326,2_ND,training,05,1_B,244.0,01011,ignore,1.0,20000.0,0.698818960773
244,2_20_1,20,1.0,834.902126153,2_ND,training,05,1_B,245.0,00011,ignore,1.0,20100.0,0.8779473061
245,2_20_1,20,1.0,837.339722932,2_ND,training,05,1_B,246.0,11110,ignore,1.0,20200.0,0.691252407043
246,2_20_1,20,1.0,840.449244563,2_ND,training,05,1_B,247.0,01000,kill,1.0,20300.0,1.35984973374
247,2_20_1,20,1.0,935.109975137,2_ND,test,05,2,0.0,00010,ignore,1.0,100.0,4.83135745103
248,2_20_1,20,1.0,939.828981197,2_ND,test,05,2,1.0,10000,ignore,1.0,200.0,2.96262394433
249,2_20_1,20,1.0,945.391698408,2_ND,test,05,2,2.0,00100,ignore,0.0,100.0,3.77665869557
250,2_20_1,20,1.0,953.735889044,2_ND,test,05,2,3.0,01010,ignore,1.0,200.0,6.58259031948
251,2_20_1,20,1.0,958.189199764,2_ND,test,05,2,4.0,11111,kill,1.0,300.0,2.70694999121
252,2_20_1,20,1.0,966.627118872,2_ND,test,05,2,5.0,00000,ignore,1.0,400.0,6.65203667046
253,2_20_1,20,1.0,970.117934259,2_ND,test,05,2,6.0,10111,kill,1.0,500.0,1.75732953765
254,2_20_1,20,1.0,978.868320733,2_ND,test,05,2,7.0,10100,kill,1.0,600.0,6.96478691645
255,2_20_1,20,1.0,983.509150616,2_ND,test,05,2,8.0,10010,ignore,1.0,700.0,2.88093710831
256,2_20_1,20,1.0,986.259323808,2_ND,test,05,2,9.0,01011,ignore,1.0,800.0,1.00448277897
257,2_20_1,20,1.0,992.197067159,2_ND,test,05,2,10.0,00110,kill,1.0,900.0,4.17143767087
258,2_20_1,20,1.0,1000.4162076,2_ND,test,05,2,11.0,10010,ignore,1.0,1000.0,6.48176611934
259,2_20_1,20,1.0,1004.35393716,2_ND,test,05,2,12.0,00010,ignore,1.0,1100.0,2.1864152265
260,2_20_1,20,1.0,1012.19805146,2_ND,test,05,3,0.0,01111,kill,0.0,1000.0,6.08085872303
261,2_20_1,20,1.0,1022.90168291,2_ND,test,05,3,1.0,11001,ignore,0.0,900.0,8.95405095429
262,2_20_1,20,1.0,1031.94899087,2_ND,test,05,3,2.0,01101,kill,0.0,800.0,7.26835062471
263,2_20_1,20,1.0,1039.68372017,2_ND,test,05,3,3.0,11011,kill,1.0,900.0,5.99601113815
264,2_20_1,20,1.0,1044.4026871,2_ND,test,05,3,4.0,00111,ignore,1.0,1000.0,2.9596970043
265,2_20_1,20,1.0,1049.46541714,2_ND,test,05,3,5.0,11110,kill,1.0,1100.0,3.31178774906
266,2_20_1,20,1.0,1056.6376268,2_ND,test,05,3,6.0,10000,ignore,0.0,1000.0,5.41757292975
267,2_20_1,20,1.0,1066.23185496,2_ND,test,05,3,7.0,10011,kill,1.0,1100.0,7.84507583873
268,2_20_1,20,1.0,1071.32585412,2_ND,test,05,3,8.0,01000,ignore,1.0,1200.0,3.31628816793
269,2_20_1,20,1.0,1075.53545267,2_ND,test,05,3,9.0,11101,kill,0.0,1100.0,2.47737731291
270,2_20_1,20,1.0,1082.05132986,2_ND,test,05,3,10.0,10001,kill,1.0,1200.0,4.69662712337
271,2_20_1,20,1.0,1087.37974722,2_ND,test,05,3,11.0,00000,ignore,1.0,1300.0,3.57598177253
272,2_20_1,20,1.0,1097.20836279,2_ND,test,05,3,12.0,10111,ignore,1.0,1400.0,8.02926651383
273,2_20_1,20,1.0,1102.30232892,2_ND,test,05,3,13.0,01100,ignore,1.0,1500.0,3.31644853063
274,2_20_1,20,1.0,1108.41200257,2_ND,test,05,3,14.0,11000,kill,1.0,1600.0,4.34111969087
275,2_20_1,20,1.0,1115.02174101,2_ND,test,05,3,15.0,00001,ignore,1.0,1700.0,4.82714889228
276,2_20_1,20,1.0,1119.41250868,2_ND,test,05,3,16.0,11010,kill,1.0,1800.0,2.61480109252
277,2_20_1,20,1.0,1122.74722925,2_ND,test,05,3,17.0,01110,ignore,1.0,1900.0,1.57870761774
278,2_20_1,20,1.0,1126.90367494,2_ND,test,05,3,18.0,10101,ignore,1.0,2000.0,2.3947853898
279,2_20_1,20,1.0,1132.79456255,2_ND,test,05,3,19.0,00101,ignore,1.0,2100.0,4.13808126669
280,2_20_1,20,1.0,1138.10731889,2_ND,test,05,4,0.0,11100,ignore,1.0,2200.0,3.53700882508
281,2_20_1,20,1.0,1141.31062255,2_ND,test,05,4,1.0,01010,ignore,0.0,2100.0,1.45728450781
282,2_20_1,20,1.0,1147.37337376,2_ND,test,05,4,2.0,00100,kill,0.0,2000.0,4.28519704727
283,2_20_1,20,1.0,1153.54555487,2_ND,test,05,4,3.0,10100,ignore,1.0,2100.0,4.38958899681
284,2_20_1,20,1.0,1157.90513007,2_ND,test,05,4,4.0,00011,kill,1.0,2200.0,2.61112782447
285,2_20_1,20,1.0,1161.5615719,2_ND,test,05,4,5.0,11111,ignore,1.0,2300.0,1.89742367698
286,2_20_1,20,1.0,1165.79615014,2_ND,test,05,4,6.0,01001,kill,0.0,2200.0,2.45106564223
287,2_20_1,20,1.0,1189.32849786,2_ND,test,05,4,7.0,10110,ignore,0.0,2100.0,21.7668489884
288,2_20_1,20,1.0,1199.86024615,2_ND,test,05,4,8.0,11010,ignore,1.0,2200.0,8.78338591092
289,2_20_1,20,1.0,1218.24008221,2_ND,test,05,4,9.0,00010,kill,1.0,2300.0,16.6331639048
290,2_20_1,20,1.0,1225.36544479,2_ND,test,05,4,10.0,00001,kill,0.0,2200.0,5.34678498441
291,2_20_1,20,1.0,1229.615609,2_ND,test,05,4,11.0,10011,kill,1.0,2300.0,2.46416150192
292,2_20_1,20,1.0,1233.67830985,2_ND,test,05,4,12.0,10101,ignore,1.0,2400.0,2.30744224056
293,2_20_1,20,1.0,1236.61596789,2_ND,test,05,4,13.0,01111,ignore,0.0,2300.0,1.17321416888
294,2_20_1,20,1.0,1244.74133817,2_ND,test,05,4,14.0,01110,ignore,0.0,2200.0,6.39888522264
295,2_20_1,20,1.0,1251.83540244,2_ND,test,05,4,15.0,11111,kill,0.0,2100.0,5.31333685276
296,2_20_1,20,1.0,1259.8045432,2_ND,test,05,4,16.0,10000,ignore,1.0,2200.0,6.19996234684
297,2_20_1,20,1.0,1267.1330292,2_ND,test,05,4,17.0,01101,ignore,1.0,2300.0,5.57219432624
298,2_20_1,20,1.0,1273.88333934,2_ND,test,05,4,18.0,00110,kill,1.0,2400.0,4.96814459071
299,2_20_1,20,1.0,1277.0709868,2_ND,test,05,4,19.0,10110,kill,1.0,2500.0,1.4299827578
300,2_20_1,20,1.0,1282.08689413,2_ND,test,05,4,20.0,01011,kill,1.0,2600.0,3.26796222624
301,2_20_1,20,1.0,1286.22773588,2_ND,test,05,4,21.0,11000,ignore,1.0,2700.0,2.37448090593
302,2_20_1,20,1.0,1289.99351397,2_ND,test,05,4,22.0,00011,ignore,0.0,2600.0,2.02239785858
303,2_20_1,20,1.0,1293.97810825,2_ND,test,05,4,23.0,10001,ignore,1.0,2700.0,2.23657507604
304,2_20_1,20,1.0,1298.24416408,2_ND,test,05,4,24.0,11011,kill,0.0,2600.0,2.53051702218
305,2_20_1,20,1.0,1307.16986483,2_ND,test,05,4,25.0,00101,ignore,1.0,2700.0,7.1547907395
306,2_20_1,20,1.0,1311.95473025,2_ND,test,05,4,26.0,00111,ignore,0.0,2600.0,3.03084159629
307,2_20_1,20,1.0,1319.48631689,2_ND,test,05,4,27.0,11110,kill,0.0,2500.0,5.81343114603
308,2_20_1,20,1.0,1325.09600017,2_ND,test,05,4,28.0,00100,ignore,1.0,2600.0,3.83267723606
309,2_20_1,20,1.0,1331.26814344,2_ND,test,05,4,29.0,01100,ignore,1.0,2700.0,4.37858715328
310,2_20_1,20,1.0,1343.76874993,2_ND,test,05,4,30.0,10111,kill,1.0,2800.0,10.7519788757
311,2_20_1,20,1.0,1347.89393964,2_ND,test,05,4,31.0,10100,ignore,1.0,2900.0,2.34516467967
312,2_20_1,20,1.0,1351.3159652,2_ND,test,05,4,32.0,00000,ignore,1.0,3000.0,1.66651774317
313,2_20_1,20,1.0,1365.47289934,2_ND,test,05,4,33.0,01010,kill,1.0,3100.0,12.3814438545
314,2_20_1,20,1.0,1370.12937518,2_ND,test,05,4,34.0,11001,ignore,1.0,3200.0,2.88444263698
315,2_20_1,20,1.0,1373.20764661,2_ND,test,05,4,35.0,01000,ignore,1.0,3300.0,1.33537453671
316,2_20_1,20,1.0,1376.64529406,2_ND,test,05,4,36.0,11101,ignore,1.0,3400.0,1.66464310318
317,2_20_1,20,1.0,1382.47369346,2_ND,test,05,4,37.0,10010,kill,1.0,3500.0,4.08587518907
318,2_20_1,20,1.0,1385.73946898,2_ND,test,05,5,0.0,11100,ignore,1.0,3600.0,1.48617160349
319,2_20_1,20,1.0,1388.45832719,2_ND,test,05,5,1.0,01001,ignore,1.0,3700.0,0.936931273678
320,2_20_1,20,1.0,1392.08352363,2_ND,test,05,5,2.0,11111,kill,1.0,3800.0,1.89209097569
321,2_20_1,20,1.0,1396.61495697,2_ND,test,05,5,3.0,00000,ignore,1.0,3900.0,2.75833404962
322,2_20_1,20,1.0,1399.44327073,2_ND,test,05,5,4.0,10000,ignore,1.0,4000.0,1.07892122086
323,2_20_1,20,1.0,1401.88089509,2_ND,test,05,5,5.0,00001,ignore,1.0,4100.0,0.691047784239
324,2_20_1,20,1.0,1404.53723045,2_ND,test,05,5,6.0,11101,ignore,1.0,4200.0,0.887000422077
325,2_20_1,20,1.0,1407.59991462,2_ND,test,05,5,7.0,01111,kill,1.0,4300.0,1.34007572968
326,2_20_1,20,1.0,1410.50629937,2_ND,test,05,5,8.0,11001,ignore,1.0,4400.0,1.17482196533
327,2_20_1,20,1.0,1414.19740584,2_ND,test,05,5,9.0,11011,kill,0.0,4300.0,1.93505535079
328,2_20_1,20,1.0,1418.67555835,2_ND,test,05,5,10.0,01010,ignore,1.0,4400.0,2.74541298527
329,2_20_1,20,1.0,1424.19142688,2_ND,test,05,5,11.0,00101,ignore,0.0,4300.0,3.74560028891
330,2_20_1,20,1.0,1430.39483863,2_ND,test,05,5,12.0,11110,kill,1.0,4400.0,4.47423420395
331,2_20_1,20,1.0,1437.6920555,2_ND,test,05,5,13.0,01001,ignore,1.0,4500.0,5.48982819382
332,2_20_1,20,1.0,1441.19221234,2_ND,test,05,5,14.0,11010,ignore,1.0,4600.0,1.73843688702
333,2_20_1,20,1.0,1444.03608,2_ND,test,05,5,15.0,10001,ignore,1.0,4700.0,1.10837567978
334,2_20_1,20,1.0,1448.23940099,2_ND,test,05,5,16.0,00011,ignore,1.0,4800.0,2.44720314619
335,2_20_1,20,1.0,1451.19271363,2_ND,test,05,5,17.0,10010,ignore,1.0,4900.0,1.22905566895
336,2_20_1,20,1.0,1453.97404947,2_ND,test,05,5,18.0,00010,ignore,1.0,5000.0,1.01050888858
337,2_20_1,20,1.0,1457.27108288,2_ND,test,05,5,19.0,00111,kill,1.0,5100.0,1.52162362745
338,2_20_1,20,1.0,1460.58375519,2_ND,test,05,5,20.0,11000,ignore,1.0,5200.0,1.56417554969
339,2_20_1,20,1.0,1464.24018805,2_ND,test,05,5,21.0,00110,kill,1.0,5300.0,1.88405038981
340,2_20_1,20,1.0,1467.00597608,2_ND,test,05,6,0.0,10101,kill,0.0,5200.0,1.02364066952
341,2_20_1,20,1.0,1472.50621245,2_ND,test,05,6,1.0,01000,ignore,1.0,5300.0,3.7508383762
342,2_20_1,20,1.0,1478.61588803,2_ND,test,05,6,2.0,10100,ignore,0.0,5200.0,4.32485955434
343,2_20_1,20,1.0,1488.8038684,2_ND,test,05,6,3.0,01100,ignore,1.0,5300.0,8.43706277109
344,2_20_1,20,1.0,1497.10109136,2_ND,test,05,6,4.0,00100,kill,0.0,5200.0,6.54940037178
345,2_20_1,20,1.0,1504.85148554,2_ND,test,05,6,5.0,10111,kill,0.0,5100.0,5.96980498613
346,2_20_1,20,1.0,1509.8048511,2_ND,test,05,6,6.0,01110,ignore,1.0,5200.0,3.2068601881
347,2_20_1,20,1.0,1514.49262011,2_ND,test,05,6,7.0,01011,ignore,1.0,5300.0,2.89924603872
348,2_20_1,20,1.0,1523.82114587,2_ND,test,05,6,8.0,01101,ignore,1.0,5400.0,7.57322257189
349,2_20_1,20,1.0,1529.69644239,2_ND,test,05,6,9.0,10011,kill,1.0,5500.0,4.1209240612
350,2_20_1,20,1.0,1534.00912432,2_ND,test,05,6,10.0,11100,ignore,0.0,5400.0,2.53604793177
351,2_20_1,20,1.0,1540.63443269,2_ND,test,05,6,11.0,10110,kill,1.0,5500.0,4.8811074135
352,2_20_1,20,1.0,1544.58777485,2_ND,test,05,6,12.0,00101,ignore,1.0,5600.0,2.16966117285
353,2_20_1,20,1.0,1548.52543705,2_ND,test,05,6,13.0,00001,ignore,1.0,5700.0,2.19389326002
354,2_20_1,20,1.0,1554.99450726,2_ND,test,05,6,14.0,11100,kill,1.0,5800.0,4.69558765233
355,2_20_1,20,1.0,1558.13529833,2_ND,test,05,6,15.0,11000,kill,1.0,5900.0,1.36858982172
356,2_20_1,20,1.0,1561.58854811,2_ND,test,05,6,16.0,11010,kill,1.0,6000.0,1.71385745424
357,2_20_1,20,1.0,1564.60432588,2_ND,test,05,6,17.0,01000,ignore,1.0,6100.0,1.25956467299
358,2_20_1,20,1.0,1567.43256716,2_ND,test,05,6,18.0,01101,ignore,1.0,6200.0,1.08918635813
359,2_20_1,20,1.0,1575.27673856,2_ND,test,05,6,19.0,11111,ignore,1.0,6300.0,6.06867693074
360,2_20_1,20,1.0,1579.54252947,2_ND,test,05,6,20.0,10010,kill,1.0,6400.0,2.50866567968
361,2_20_1,20,1.0,1582.6207977,2_ND,test,05,7,0.0,00111,ignore,0.0,6300.0,1.32755685499
362,2_20_1,20,1.0,1587.58980343,2_ND,test,05,7,1.0,01001,ignore,1.0,6400.0,3.19268412525
363,2_20_1,20,1.0,1591.10561359,2_ND,test,05,7,2.0,00110,kill,1.0,6500.0,1.76730570135
364,2_20_1,20,1.0,1594.60575471,2_ND,test,05,7,3.0,10000,ignore,1.0,6600.0,1.75956691807
365,2_20_1,20,1.0,1598.44035021,2_ND,test,05,7,4.0,10101,kill,0.0,6500.0,2.06335577556
366,2_20_1,20,1.0,1605.34689435,2_ND,test,05,7,5.0,00000,ignore,1.0,6600.0,5.16422776379
367,2_20_1,20,1.0,1609.72212159,2_ND,test,05,7,6.0,00011,kill,1.0,6700.0,2.61838167093
368,2_20_1,20,1.0,1614.01919028,2_ND,test,05,7,7.0,01011,kill,1.0,6800.0,2.54374405856
369,2_20_1,20,1.0,1617.37873372,2_ND,test,05,7,8.0,01010,ignore,0.0,6700.0,1.61723860559
370,2_20_1,20,1.0,1624.73846896,2_ND,test,05,7,9.0,01100,kill,0.0,6600.0,5.59124317015
371,2_20_1,20,1.0,1632.91073635,2_ND,test,05,7,10.0,11110,kill,0.0,6500.0,6.43682447212
372,2_20_1,20,1.0,1638.70785444,2_ND,test,05,7,11.0,11011,kill,0.0,6400.0,4.02081572016
373,2_20_1,20,1.0,1652.16163694,2_ND,test,05,7,12.0,10110,ignore,0.0,6300.0,11.6640096705
374,2_20_1,20,1.0,1656.92748206,2_ND,test,05,7,13.0,10100,kill,0.0,6200.0,3.00440965358
375,2_20_1,20,1.0,1667.81861022,2_ND,test,05,7,14.0,00010,kill,1.0,6300.0,9.1296150782
376,2_20_1,20,1.0,1672.4126004,2_ND,test,05,7,15.0,00100,kill,0.0,6200.0,2.84595173981
377,2_20_1,20,1.0,1683.41311677,2_ND,test,05,7,16.0,11101,ignore,1.0,6300.0,9.22542601956
378,2_20_1,20,1.0,1687.49141258,2_ND,test,05,7,17.0,11001,ignore,1.0,6400.0,2.30511184978
379,2_20_1,20,1.0,1691.63225497,2_ND,test,05,7,18.0,01111,ignore,0.0,6300.0,2.41176747921
380,2_20_1,20,1.0,1696.0074713,2_ND,test,05,7,19.0,10001,ignore,1.0,6400.0,2.58478151544
381,2_20_1,20,1.0,1700.61708177,2_ND,test,05,7,20.0,01110,kill,1.0,6500.0,2.8725122934
382,2_20_1,20,1.0,1710.14874346,2_ND,test,05,7,21.0,10011,ignore,0.0,6400.0,7.77143183366
383,2_20_1,20,1.0,1715.46152867,2_ND,test,05,7,22.0,10111,kill,1.0,6500.0,3.54203138491
384,2_20_1,20,1.0,1719.25859191,2_ND,test,05,7,23.0,10001,ignore,1.0,6600.0,2.0546297995
385,2_20_1,20,1.0,1727.41520437,2_ND,test,05,7,24.0,10101,ignore,1.0,6700.0,6.4112193595
386,2_20_1,20,1.0,1731.49352199,2_ND,test,05,7,25.0,01111,kill,1.0,6800.0,2.30167944651
387,2_20_1,20,1.0,1734.77493576,2_ND,test,05,7,26.0,11000,ignore,1.0,6900.0,1.53633754681
388,2_20_1,20,1.0,1737.68133558,2_ND,test,05,7,27.0,01100,ignore,1.0,7000.0,1.14581844633
389,2_20_1,20,1.0,1740.36897565,2_ND,test,05,7,28.0,00001,ignore,1.0,7100.0,0.940161619943
390,2_20_1,20,1.0,1744.27537996,2_ND,test,05,7,29.0,11010,kill,0.0,7000.0,2.18312843256
391,2_20_1,20,1.0,1751.58822867,2_ND,test,05,7,30.0,01010,kill,1.0,7100.0,5.55038756458
392,2_20_1,20,1.0,1757.15100875,2_ND,test,05,7,31.0,11011,ignore,1.0,7200.0,3.82896067009
393,2_20_1,20,1.0,1761.13558602,2_ND,test,05,7,32.0,00010,kill,1.0,7300.0,2.20053195515
394,2_20_1,20,1.0,1764.08883837,2_ND,test,05,7,33.0,11101,ignore,1.0,7400.0,1.19914898721
395,2_20_1,20,1.0,1766.72957845,2_ND,test,05,7,34.0,01101,ignore,1.0,7500.0,0.869433329528
396,2_20_1,20,1.0,1772.47984818,2_ND,test,05,7,35.0,10010,ignore,0.0,7400.0,3.97780997148
397,2_20_1,20,1.0,1777.089433,2_ND,test,05,7,36.0,00011,kill,1.0,7500.0,2.88044639845
398,2_20_1,20,1.0,1780.0177111,2_ND,test,05,7,37.0,01001,ignore,1.0,7600.0,1.1792681816
399,2_20_1,20,1.0,1782.47094549,2_ND,test,05,7,38.0,01000,ignore,1.0,7700.0,0.72546258225
400,2_20_1,20,1.0,1787.7055635,2_ND,test,05,7,39.0,10011,kill,1.0,7800.0,3.46338855369
401,2_20_1,20,1.0,1796.17472446,2_ND,test,05,7,40.0,01110,ignore,0.0,7700.0,6.70640026787
402,2_20_1,20,1.0,1799.19047625,2_ND,test,05,7,41.0,11100,ignore,1.0,7800.0,1.28201384764
403,2_20_1,20,1.0,1801.89376805,2_ND,test,05,7,42.0,11001,ignore,1.0,7900.0,0.941767812768
404,2_20_1,20,1.0,1805.53457195,2_ND,test,05,7,43.0,10100,ignore,1.0,8000.0,1.8959303795
405,2_20_1,20,1.0,1814.47245674,2_ND,test,05,7,44.0,10111,ignore,0.0,7900.0,7.17902924118
406,2_20_1,20,1.0,1817.86326001,2_ND,test,05,7,45.0,00111,kill,1.0,8000.0,1.59736293158
407,2_20_1,20,1.0,1821.19782856,2_ND,test,05,7,46.0,00110,kill,1.0,8100.0,1.61284242248
408,2_20_1,20,1.0,1830.38575697,2_ND,test,05,7,47.0,01011,ignore,0.0,8000.0,7.436532612
409,2_20_1,20,1.0,1834.05780306,2_ND,test,05,7,48.0,00101,ignore,1.0,8100.0,1.88422550588
410,2_20_1,20,1.0,1837.37041507,2_ND,test,05,7,49.0,10000,ignore,1.0,8200.0,1.55971842875
411,2_20_1,20,1.0,1841.66751231,2_ND,test,05,7,50.0,11111,kill,0.0,8100.0,2.51968420094
412,2_20_1,20,1.0,1847.87093529,2_ND,test,05,7,51.0,10110,kill,1.0,8200.0,4.44966824164
413,2_20_1,20,1.0,1851.12108025,2_ND,test,05,7,52.0,00000,ignore,1.0,8300.0,1.47507931539
414,2_20_1,20,1.0,1856.6994742,2_ND,test,05,7,53.0,11110,kill,0.0,8200.0,3.79919703188
415,2_20_1,20,1.0,1861.05906928,2_ND,test,05,7,54.0,00100,ignore,1.0,8300.0,2.60377423241
416,2_20_1,20,1.0,1867.34064309,2_ND,test,05,7,55.0,01111,ignore,0.0,8200.0,4.48884901916
417,2_20_1,20,1.0,1873.4502866,2_ND,test,05,7,56.0,01010,ignore,0.0,8100.0,4.37022391765
418,2_20_1,20,1.0,1876.6067294,2_ND,test,05,7,57.0,10100,ignore,1.0,8200.0,1.37525994794
419,2_20_1,20,1.0,1880.76316931,2_ND,test,05,7,58.0,00010,kill,1.0,8300.0,2.39113008237
420,2_20_1,20,1.0,1883.79455742,2_ND,test,05,7,59.0,00001,ignore,1.0,8400.0,1.28634428204
421,2_20_1,20,1.0,1887.24785627,2_ND,test,05,7,60.0,10010,kill,1.0,8500.0,1.68975686449
422,2_20_1,20,1.0,1890.45113909,2_ND,test,05,7,61.0,11100,ignore,1.0,8600.0,1.47031237372
423,2_20_1,20,1.0,1893.85756489,2_ND,test,05,7,62.0,10000,ignore,1.0,8700.0,1.65111522637
424,2_20_1,20,1.0,1896.40452582,2_ND,test,05,7,63.0,10001,ignore,1.0,8800.0,0.767211728802
425,2_20_1,20,1.0,1899.85783943,2_ND,test,05,7,64.0,00011,kill,1.0,8900.0,1.72084060846
426,2_20_1,20,1.0,1905.35808029,2_ND,test,05,7,65.0,11010,kill,0.0,8800.0,3.77987909935
427,2_20_1,20,1.0,1911.38026808,2_ND,test,05,7,66.0,10110,kill,1.0,8900.0,4.2499166114
428,2_20_1,20,1.0,1914.19288297,2_ND,test,05,7,67.0,01100,ignore,1.0,9000.0,1.05316761238
429,2_20_1,20,1.0,1916.44302506,2_ND,test,05,7,68.0,01000,ignore,1.0,9100.0,0.482002814686
430,2_20_1,20,1.0,1918.83374974,2_ND,test,05,7,69.0,11001,ignore,1.0,9200.0,0.647624451081
431,2_20_1,20,1.0,1922.56827795,2_ND,test,05,7,70.0,00111,kill,1.0,9300.0,1.98937340519
432,2_20_1,20,1.0,1927.0372529,2_ND,test,05,7,71.0,01110,ignore,0.0,9200.0,2.70040077846
433,2_20_1,20,1.0,1930.17803852,2_ND,test,05,7,72.0,11000,ignore,1.0,9300.0,1.42338383262
434,2_20_1,20,1.0,1933.49069608,2_ND,test,05,7,73.0,11011,kill,0.0,9200.0,1.53358283632
435,2_20_1,20,1.0,1936.44396927,2_ND,test,05,7,74.0,00100,ignore,1.0,9300.0,1.20734031403
436,2_20_1,20,1.0,1939.1159464,2_ND,test,05,7,75.0,01001,ignore,1.0,9400.0,0.893631099076
437,2_20_1,20,1.0,1943.91307828,2_ND,test,05,7,76.0,00110,kill,1.0,9500.0,3.02480137476
438,2_20_1,20,1.0,1948.7726631,2_ND,test,05,7,77.0,11110,ignore,1.0,9600.0,3.12670674024
439,2_20_1,20,1.0,1951.25715089,2_ND,test,05,7,78.0,11101,ignore,1.0,9700.0,0.710769510046
440,2_20_1,20,1.0,1953.85103844,2_ND,test,05,7,79.0,10101,ignore,1.0,9800.0,0.858587358543
441,2_20_1,20,1.0,1956.19487436,2_ND,test,05,7,80.0,00101,ignore,1.0,9900.0,0.559052282089
442,2_20_1,20,1.0,1958.96063513,2_ND,test,05,7,81.0,00000,ignore,1.0,10000.0,0.983878416846
443,2_20_1,20,1.0,1961.85139894,2_ND,test,05,7,82.0,01101,ignore,1.0,10100.0,1.14412854418
444,2_20_1,20,1.0,1965.57030974,2_ND,test,05,7,83.0,10011,kill,1.0,10200.0,1.93694891358
445,2_20_1,20,1.0,1969.72678237,2_ND,test,05,8,0.0,11111,ignore,1.0,10300.0,2.44336085585
446,2_20_1,20,1.0,1973.91506165,2_ND,test,05,8,1.0,10111,kill,0.0,10200.0,2.44045508369
447,2_20_1,20,1.0,1980.25910283,2_ND,test,05,8,2.0,01011,ignore,0.0,10100.0,4.58119933341
448,2_20_1,20,1.0,1983.55613657,2_ND,test,05,8,3.0,11101,ignore,1.0,10200.0,1.56384039164
449,2_20_1,20,1.0,1986.3687768,2_ND,test,05,8,4.0,11000,ignore,1.0,10300.0,1.07716813581
450,2_20_1,20,1.0,1991.43150011,2_ND,test,05,8,5.0,11011,ignore,1.0,10400.0,3.29738461262
451,2_20_1,20,1.0,1995.11916103,2_ND,test,05,8,6.0,01101,ignore,0.0,10300.0,1.93120408014
452,2_20_1,20,1.0,1999.08814881,2_ND,test,05,8,7.0,11001,ignore,1.0,10400.0,2.21221213292
453,2_20_1,20,1.0,2004.4165248,2_ND,test,05,8,8.0,01100,kill,1.0,10500.0,3.59556943513
454,2_20_1,20,1.0,2012.1668622,2_ND,test,05,8,9.0,11110,ignore,1.0,10600.0,5.99311338413
455,2_20_1,20,1.0,2015.19827052,2_ND,test,05,8,10.0,11010,ignore,1.0,10700.0,1.26856679363
456,2_20_1,20,1.0,2018.01655296,2_ND,test,05,8,11.0,10100,ignore,1.0,10800.0,1.0737126403
457,2_20_1,20,1.0,2021.04790258,2_ND,test,05,8,12.0,01111,kill,1.0,10900.0,1.24493382152
458,2_20_1,20,1.0,2023.89181194,2_ND,test,05,8,13.0,00010,ignore,0.0,10800.0,1.10712036055
459,2_20_1,20,1.0,2028.47014079,2_ND,test,05,8,14.0,01110,kill,1.0,10900.0,2.80621193791
460,2_20_1,20,1.0,2032.39851511,2_ND,test,05,8,15.0,10101,ignore,1.0,11000.0,2.1629451829
461,2_20_1,20,1.0,2036.35177996,2_ND,test,05,8,16.0,10110,ignore,1.0,11100.0,2.22061962865
462,2_20_1,20,1.0,2039.97694658,2_ND,test,05,8,17.0,01000,ignore,0.0,11000.0,1.85792730566
463,2_20_1,20,1.0,2044.55531134,2_ND,test,05,8,18.0,01011,kill,1.0,11100.0,2.8475361233
464,2_20_1,20,1.0,2048.36800899,2_ND,test,05,8,19.0,00001,kill,1.0,11200.0,2.0518144719
465,2_20_1,20,1.0,2051.53947617,2_ND,test,05,8,20.0,11100,ignore,1.0,11300.0,1.38317769599
466,2_20_1,20,1.0,2054.24271697,2_ND,test,05,8,21.0,10111,ignore,1.0,11400.0,0.951343390425
467,2_20_1,20,1.0,2057.19596932,2_ND,test,05,8,22.0,00110,kill,0.0,11300.0,1.20103870129
468,2_20_1,20,1.0,2068.52463235,2_ND,test,05,8,23.0,00111,kill,0.0,11200.0,9.55047223608
469,2_20_1,20,1.0,2072.61858116,2_ND,test,05,8,24.0,10001,ignore,1.0,11300.0,2.33778286377
470,2_20_1,20,1.0,2075.54058106,2_ND,test,05,8,25.0,10010,ignore,1.0,11400.0,1.14646021786
471,2_20_1,20,1.0,2079.11887655,2_ND,test,05,8,26.0,00011,ignore,0.0,11300.0,1.84407645837
472,2_20_1,20,1.0,2082.82216578,2_ND,test,05,8,27.0,10011,ignore,1.0,11400.0,1.97830100207
473,2_20_1,20,1.0,2087.3380186,2_ND,test,05,8,28.0,01010,ignore,0.0,11300.0,2.74614103194
474,2_20_1,20,1.0,2095.86969568,2_ND,test,05,8,29.0,00101,ignore,1.0,11400.0,6.76157690418
475,2_20_1,20,1.0,2098.86983231,2_ND,test,05,8,30.0,00100,ignore,1.0,11500.0,1.21251393552
476,2_20_1,20,1.0,2101.51060254,2_ND,test,05,8,31.0,11111,ignore,1.0,11600.0,0.900585388004
477,2_20_1,20,1.0,2104.58892849,2_ND,test,05,8,32.0,10000,ignore,1.0,11700.0,1.31115239203
478,2_20_1,20,1.0,2108.04220201,2_ND,test,05,8,33.0,00000,ignore,0.0,11600.0,1.67326291914
479,2_20_1,20,1.0,2113.33932042,2_ND,test,05,8,34.0,01001,kill,1.0,11700.0,3.52501786441
480,2_20_1,20,1.0,2116.88635961,2_ND,test,05,8,35.0,01110,ignore,0.0,11600.0,1.7726303845
481,2_20_1,20,1.0,2121.01157273,2_ND,test,05,8,36.0,11001,ignore,1.0,11700.0,2.38959637349
482,2_20_1,20,1.0,2123.94923751,2_ND,test,05,8,37.0,10101,ignore,1.0,11800.0,1.14762894123
483,2_20_1,20,1.0,2128.4494216,2_ND,test,05,8,38.0,00000,kill,1.0,11900.0,2.71563299007
484,2_20_1,20,1.0,2132.15273938,2_ND,test,05,8,39.0,00111,ignore,1.0,12000.0,1.94921890535
485,2_20_1,20,1.0,2135.12163607,2_ND,test,05,8,40.0,11101,ignore,1.0,12100.0,1.20563116835
486,2_20_1,20,1.0,2139.29369755,2_ND,test,05,8,41.0,00100,kill,0.0,12000.0,2.42905201268
487,2_20_1,20,1.0,2147.23155636,2_ND,test,05,8,42.0,01101,kill,1.0,12100.0,6.17839228053
488,2_20_1,20,1.0,2151.49739699,2_ND,test,05,8,43.0,10000,ignore,1.0,12200.0,2.48571649414
489,2_20_1,20,1.0,2155.12884951,2_ND,test,05,8,44.0,01000,kill,1.0,12300.0,1.90543635974
490,2_20_1,20,1.0,2158.1446138,2_ND,test,05,8,45.0,11100,ignore,1.0,12400.0,1.27713048264
491,2_20_1,20,1.0,2161.95725789,2_ND,test,05,8,46.0,11000,ignore,1.0,12500.0,2.04092199573
