,unique_id,pair_id,sbj_id,wall_time,condition,block,rule_id,rule_num,trial,stimulus,choice,correct,points,reaction_time
0,3_17_1,17,1.0,19.6106881099,3_D,training,02,1_A,1.0,00101,ignore,1.0,100.0,2.59542158071
1,3_17_1,17,1.0,22.923358816,3_D,training,02,1_A,2.0,11111,kill,0.0,0.0,1.51918835946
2,3_17_1,17,1.0,27.7048412217,3_D,training,02,1_A,3.0,11010,kill,0.0,0.0,3.00871346777
3,3_17_1,17,1.0,30.9862104113,3_D,training,02,1_A,4.0,00110,ignore,1.0,100.0,1.46856538244
4,3_17_1,17,1.0,35.8301880862,3_D,training,02,1_A,5.0,11100,ignore,1.0,200.0,3.05528504149
5,3_17_1,17,1.0,39.0366326142,3_D,training,02,1_A,6.0,10101,ignore,1.0,300.0,1.41736798622
6,3_17_1,17,1.0,42.5992940192,3_D,training,02,1_A,7.0,00100,ignore,1.0,400.0,1.75020622644
7,3_17_1,17,1.0,46.1150743506,3_D,training,02,1_A,8.0,01010,ignore,1.0,500.0,1.72564282993
8,3_17_1,17,1.0,49.6622896202,3_D,training,02,1_A,9.0,11110,kill,0.0,400.0,1.76682140598
9,3_17_1,17,1.0,52.4593256043,3_D,training,02,1_A,10.0,00001,ignore,0.0,300.0,1.00501646604
10,3_17_1,17,1.0,57.0688841193,3_D,training,02,1_A,11.0,10001,kill,1.0,400.0,2.80278210044
11,3_17_1,17,1.0,61.1315679752,3_D,training,02,1_A,12.0,10010,ignore,1.0,500.0,2.27883449671
12,3_17_1,17,1.0,64.725622945,3_D,training,02,1_A,13.0,10011,kill,1.0,600.0,1.80962477694
13,3_17_1,17,1.0,68.1478544112,3_D,training,02,1_A,14.0,11101,ignore,1.0,700.0,1.63921920042
14,3_17_1,17,1.0,71.7730412337,3_D,training,02,1_A,15.0,00010,ignore,1.0,800.0,1.8431489205
15,3_17_1,17,1.0,74.8981809097,3_D,training,02,1_A,16.0,01000,ignore,0.0,700.0,1.33533476676
16,3_17_1,17,1.0,77.8824153317,3_D,training,02,1_A,17.0,01100,ignore,1.0,800.0,1.2002497168
17,3_17_1,17,1.0,81.1638149902,3_D,training,02,1_A,18.0,00011,kill,1.0,900.0,1.52691720024
18,3_17_1,17,1.0,84.1014839323,3_D,training,02,1_A,19.0,10111,ignore,1.0,1000.0,1.16020330142
19,3_17_1,17,1.0,87.3672453408,3_D,training,02,1_A,20.0,10100,ignore,1.0,1100.0,1.47270113652
20,3_17_1,17,1.0,90.1330279172,3_D,training,02,1_A,21.0,11011,kill,1.0,1200.0,1.01251983687
21,3_17_1,17,1.0,95.2270001398,3_D,training,02,1_A,22.0,01101,ignore,1.0,1300.0,3.32293039104
22,3_17_1,17,1.0,98.2427663592,3_D,training,02,1_A,23.0,01001,kill,1.0,1400.0,1.23517992054
23,3_17_1,17,1.0,100.886647303,3_D,training,02,1_A,24.0,01110,ignore,1.0,1500.0,0.888256382757
24,3_17_1,17,1.0,103.761812958,3_D,training,02,1_A,25.0,10110,ignore,1.0,1600.0,1.09181341992
25,3_17_1,17,1.0,107.04318311,3_D,training,02,1_A,26.0,10000,kill,1.0,1700.0,1.50288813226
26,3_17_1,17,1.0,109.76206152,3_D,training,02,1_A,27.0,01111,ignore,1.0,1800.0,0.945049795828
27,3_17_1,17,1.0,112.793472404,3_D,training,02,1_A,28.0,11000,kill,1.0,1900.0,1.27468944159
28,3_17_1,17,1.0,115.668670773,3_D,training,02,1_A,29.0,01011,kill,1.0,2000.0,1.1027312334
29,3_17_1,17,1.0,118.418752237,3_D,training,02,1_A,30.0,11001,kill,1.0,2100.0,0.977136127407
30,3_17_1,17,1.0,121.309497128,3_D,training,02,1_A,31.0,00111,ignore,1.0,2200.0,1.0965854932
31,3_17_1,17,1.0,124.200277941,3_D,training,02,1_A,32.0,00000,kill,1.0,2300.0,1.1229844012
32,3_17_1,17,1.0,126.887905188,3_D,training,02,1_A,33.0,00011,kill,1.0,2400.0,0.908451499265
33,3_17_1,17,1.0,130.747469797,3_D,training,02,1_A,34.0,11010,kill,0.0,2300.0,2.09561433668
34,3_17_1,17,1.0,133.560111317,3_D,training,02,1_A,35.0,01010,kill,0.0,2200.0,1.05849293698
35,3_17_1,17,1.0,136.607126454,3_D,training,02,1_A,36.0,00001,ignore,0.0,2100.0,1.27158578186
36,3_17_1,17,1.0,139.544759154,3_D,training,02,1_A,37.0,11100,ignore,1.0,2200.0,1.17889742304
37,3_17_1,17,1.0,142.904280465,3_D,training,02,1_A,38.0,01001,kill,1.0,2300.0,1.59515185065
38,3_17_1,17,1.0,146.284508771,3_D,training,02,1_A,39.0,10000,kill,1.0,2400.0,1.61825562584
39,3_17_1,17,1.0,149.347159271,3_D,training,02,1_A,40.0,00010,kill,0.0,2300.0,1.26343422499
40,3_17_1,17,1.0,152.378548987,3_D,training,02,1_A,41.0,01101,ignore,1.0,2400.0,1.27557753023
41,3_17_1,17,1.0,155.081800052,3_D,training,02,1_A,42.0,01011,ignore,0.0,2300.0,0.927232216738
42,3_17_1,17,1.0,158.191324891,3_D,training,02,1_A,43.0,11011,kill,1.0,2400.0,1.33776971403
43,3_17_1,17,1.0,161.707119976,3_D,training,02,1_A,44.0,10001,kill,1.0,2500.0,1.73851674764
44,3_17_1,17,1.0,164.566606969,3_D,training,02,1_A,45.0,10111,ignore,1.0,2600.0,1.09078004267
45,3_17_1,17,1.0,168.004307984,3_D,training,02,1_A,46.0,10010,ignore,1.0,2700.0,1.67037927703
46,3_17_1,17,1.0,172.145122472,3_D,training,02,1_A,47.0,00111,ignore,1.0,2800.0,2.35341886866
47,3_17_1,17,1.0,176.379710334,3_D,training,02,1_A,48.0,01000,kill,1.0,2900.0,2.4487057447
48,3_17_1,17,1.0,179.004798693,3_D,training,02,1_A,49.0,11001,kill,1.0,3000.0,0.852420450476
49,3_17_1,17,1.0,181.801845262,3_D,training,02,1_A,50.0,00101,ignore,1.0,3100.0,1.02496879342
50,3_17_1,17,1.0,187.036438255,3_D,training,02,1_A,51.0,11110,ignore,1.0,3200.0,3.47943348348
51,3_17_1,17,1.0,189.974095009,3_D,training,02,1_A,52.0,10101,ignore,1.0,3300.0,1.16101217089
52,3_17_1,17,1.0,192.317952091,3_D,training,02,1_A,53.0,10110,ignore,1.0,3400.0,0.553269603057
53,3_17_1,17,1.0,195.105732582,3_D,training,02,1_A,54.0,01111,ignore,1.0,3500.0,1.04277803365
54,3_17_1,17,1.0,198.918414192,3_D,training,02,1_A,55.0,10011,ignore,0.0,3400.0,2.04029818482
55,3_17_1,17,1.0,201.981112802,3_D,training,02,1_A,56.0,11000,kill,1.0,3500.0,1.30921136189
56,3_17_1,17,1.0,205.155054697,3_D,training,02,1_A,57.0,01100,ignore,1.0,3600.0,1.40810543655
57,3_17_1,17,1.0,207.67077858,3_D,training,02,1_A,58.0,11111,ignore,1.0,3700.0,0.750580512984
58,3_17_1,17,1.0,210.264659717,3_D,training,02,1_A,59.0,00100,ignore,1.0,3800.0,0.807298555581
59,3_17_1,17,1.0,213.155403325,3_D,training,02,1_A,60.0,00110,ignore,1.0,3900.0,1.11805068231
60,3_17_1,17,1.0,217.186953083,3_D,training,02,1_A,61.0,10100,ignore,1.0,4000.0,2.23138092813
61,3_17_1,17,1.0,221.237778758,3_D,training,02,1_A,62.0,00000,kill,1.0,4100.0,2.29149577348
62,3_17_1,17,1.0,224.536556602,3_D,training,02,1_A,63.0,01110,ignore,1.0,4200.0,1.54275109271
63,3_17_1,17,1.0,227.977336581,3_D,training,02,1_A,64.0,11101,ignore,1.0,4300.0,1.69596386323
64,3_17_1,17,1.0,232.665067744,3_D,training,02,1_A,65.0,10001,kill,1.0,4400.0,2.90706917277
65,3_17_1,17,1.0,236.212097634,3_D,training,02,1_A,66.0,10011,kill,1.0,4500.0,1.77982489676
66,3_17_1,17,1.0,239.290399534,3_D,training,02,1_A,67.0,11111,ignore,1.0,4600.0,1.29937022359
67,3_17_1,17,1.0,242.415504892,3_D,training,02,1_A,68.0,01101,ignore,1.0,4700.0,1.35776213208
68,3_17_1,17,1.0,245.306296289,3_D,training,02,1_A,69.0,10111,ignore,1.0,4800.0,1.1264953822
69,3_17_1,17,1.0,249.509632346,3_D,training,02,1_A,70.0,10100,ignore,1.0,4900.0,2.41584967215
70,3_17_1,17,1.0,252.462872827,3_D,training,02,1_A,71.0,00111,ignore,1.0,5000.0,1.17255443672
71,3_17_1,17,1.0,255.838032067,3_D,training,02,1_A,72.0,10010,kill,0.0,4900.0,1.61251464111
72,3_17_1,17,1.0,258.806913685,3_D,training,02,1_A,73.0,00011,kill,1.0,5000.0,1.19456999062
73,3_17_1,17,1.0,263.416518385,3_D,training,02,1_A,74.0,00001,ignore,0.0,4900.0,2.81664032442
74,3_17_1,17,1.0,266.416700236,3_D,training,02,1_A,75.0,01111,ignore,1.0,5000.0,1.24552972932
75,3_17_1,17,1.0,268.932448495,3_D,training,02,1_A,76.0,00100,ignore,1.0,5100.0,0.714490886909
76,3_17_1,17,1.0,273.46389113,3_D,training,02,1_A,77.0,00010,ignore,1.0,5200.0,2.75640713139
77,3_17_1,17,1.0,276.245263207,3_D,training,02,1_A,78.0,10110,ignore,1.0,5300.0,0.979146754966
78,3_17_1,17,1.0,279.136013229,3_D,training,02,1_A,79.0,11010,ignore,1.0,5400.0,1.11409966606
79,3_17_1,17,1.0,282.229912647,3_D,training,02,1_A,80.0,11001,kill,1.0,5500.0,1.34042083022
80,3_17_1,17,1.0,284.667562346,3_D,training,02,1_A,81.0,11101,ignore,1.0,5600.0,0.678111645797
81,3_17_1,17,1.0,289.652146359,3_D,training,02,1_A,82.0,00000,ignore,0.0,5500.0,3.22655144499
82,3_17_1,17,1.0,292.04288708,3_D,training,02,1_A,83.0,11100,ignore,1.0,5600.0,0.615259088394
83,3_17_1,17,1.0,295.089913443,3_D,training,02,1_A,84.0,01011,kill,1.0,5700.0,1.27715678212
84,3_17_1,17,1.0,298.496311016,3_D,training,02,1_A,85.0,11000,kill,1.0,5800.0,1.6581073609
85,3_17_1,17,1.0,301.340222301,3_D,training,02,1_A,86.0,00101,ignore,1.0,5900.0,1.06165336512
86,3_17_1,17,1.0,303.793428785,3_D,training,02,1_A,87.0,00110,ignore,1.0,6000.0,0.690761376449
87,3_17_1,17,1.0,307.246720903,3_D,training,02,1_A,88.0,11011,kill,1.0,6100.0,1.69462258959
88,3_17_1,17,1.0,312.590760478,3_D,training,02,1_A,89.0,10000,ignore,0.0,6000.0,3.57713542181
89,3_17_1,17,1.0,318.856646649,3_D,training,02,1_A,90.0,01100,ignore,1.0,6100.0,4.47908838294
90,3_17_1,17,1.0,324.091293203,3_D,training,02,1_A,91.0,01000,ignore,0.0,6000.0,3.48015062548
91,3_17_1,17,1.0,326.982063753,3_D,training,02,1_A,92.0,01001,ignore,0.0,5900.0,1.11392904014
92,3_17_1,17,1.0,330.482198136,3_D,training,02,1_A,93.0,01010,kill,0.0,5800.0,1.73279596861
93,3_17_1,17,1.0,333.388580636,3_D,training,02,1_A,94.0,10101,ignore,1.0,5900.0,1.1243580681
94,3_17_1,17,1.0,335.732452792,3_D,training,02,1_A,95.0,01110,ignore,1.0,6000.0,0.583632035592
95,3_17_1,17,1.0,338.795089181,3_D,training,02,1_A,96.0,11110,ignore,1.0,6100.0,1.31151481174
96,3_17_1,17,1.0,341.201469756,3_D,training,02,1_A,97.0,01101,ignore,1.0,6200.0,0.642285656006
97,3_17_1,17,1.0,346.217307177,3_D,training,02,1_A,98.0,11011,kill,1.0,6300.0,3.26497723491
98,3_17_1,17,1.0,350.983188857,3_D,training,02,1_A,99.0,01010,kill,0.0,6200.0,2.9874532222
99,3_17_1,17,1.0,354.655222436,3_D,training,02,1_A,100.0,11001,kill,1.0,6300.0,1.92171060819
100,3_17_1,17,1.0,357.295988495,3_D,training,02,1_A,101.0,10111,ignore,1.0,6400.0,0.858358039881
101,3_17_1,17,1.0,359.655521031,3_D,training,02,1_A,102.0,11111,ignore,1.0,6500.0,0.591705335457
102,3_17_1,17,1.0,362.327495276,3_D,training,02,1_A,103.0,01111,ignore,1.0,6600.0,0.927858272727
103,3_17_1,17,1.0,365.640133268,3_D,training,02,1_A,104.0,10010,ignore,1.0,6700.0,1.5461761193
104,3_17_1,17,1.0,368.171484497,3_D,training,02,1_A,105.0,00010,ignore,1.0,6800.0,0.763397983024
105,3_17_1,17,1.0,371.077900993,3_D,training,02,1_A,106.0,00001,kill,1.0,6900.0,1.14002357973
106,3_17_1,17,1.0,373.734264891,3_D,training,02,1_A,107.0,11100,ignore,1.0,7000.0,0.893653549854
107,3_17_1,17,1.0,376.859424773,3_D,training,02,1_A,108.0,01001,kill,1.0,7100.0,1.37722086306
108,3_17_1,17,1.0,379.51579733,3_D,training,02,1_A,109.0,00111,ignore,1.0,7200.0,0.889286232028
109,3_17_1,17,1.0,381.922163152,3_D,training,02,1_A,110.0,00110,ignore,1.0,7300.0,0.620100117641
110,3_17_1,17,1.0,384.594151187,3_D,training,02,1_A,111.0,10100,ignore,1.0,7400.0,0.890586132089
111,3_17_1,17,1.0,387.125519736,3_D,training,02,1_A,112.0,01011,ignore,0.0,7300.0,0.749514742463
112,3_17_1,17,1.0,390.578831097,3_D,training,02,1_A,113.0,00011,kill,1.0,7400.0,1.69488815022
113,3_17_1,17,1.0,393.500811756,3_D,training,02,1_A,114.0,10110,ignore,1.0,7500.0,1.15382792184
114,3_17_1,17,1.0,397.579149257,3_D,training,02,1_A,115.0,11000,ignore,0.0,7400.0,2.30630109958
115,3_17_1,17,1.0,400.001143065,3_D,training,02,1_A,116.0,01110,ignore,1.0,7500.0,0.677103926577
116,3_17_1,17,1.0,405.04824544,3_D,training,02,1_A,117.0,00000,ignore,0.0,7400.0,3.28077809266
117,3_17_1,17,1.0,407.595297139,3_D,training,02,1_A,118.0,00100,ignore,1.0,7500.0,0.763146534307
118,3_17_1,17,1.0,409.954731534,3_D,training,02,1_A,119.0,11101,ignore,1.0,7600.0,0.579110448849
119,3_17_1,17,1.0,412.56425509,3_D,training,02,1_A,120.0,00101,ignore,1.0,7700.0,0.818498607408
120,3_17_1,17,1.0,417.345714082,3_D,training,02,1_A,121.0,11110,ignore,1.0,7800.0,3.04191784811
121,3_17_1,17,1.0,420.65838126,3_D,training,02,1_A,122.0,11010,kill,0.0,7700.0,1.54957260133
122,3_17_1,17,1.0,423.830391426,3_D,training,02,1_A,123.0,10001,kill,1.0,7800.0,1.39819309722
123,3_17_1,17,1.0,427.049314738,3_D,training,02,1_A,124.0,10011,kill,1.0,7900.0,1.46136926655
124,3_17_1,17,1.0,430.424459866,3_D,training,02,1_A,125.0,10000,ignore,0.0,7800.0,1.60155417116
125,3_17_1,17,1.0,432.955820396,3_D,training,02,1_A,126.0,01000,kill,1.0,7900.0,0.792896060593
126,3_17_1,17,1.0,435.846582927,3_D,training,02,1_A,127.0,01100,ignore,1.0,8000.0,1.12899447454
127,3_17_1,17,1.0,438.502954843,3_D,training,02,1_A,128.0,10101,ignore,1.0,8100.0,0.866182136109
128,3_17_1,17,1.0,441.659364284,3_D,training,02,1_A,129.0,01010,ignore,1.0,8200.0,1.40706339971
129,3_17_1,17,1.0,444.096981589,3_D,training,02,1_A,130.0,10110,ignore,1.0,8300.0,0.677631199142
130,3_17_1,17,1.0,446.315848774,3_D,training,02,1_A,131.0,00110,ignore,1.0,8400.0,0.474950063053
131,3_17_1,17,1.0,450.597290768,3_D,training,02,1_A,132.0,10000,ignore,0.0,8300.0,2.52839414073
132,3_17_1,17,1.0,453.097413606,3_D,training,02,1_A,133.0,00010,ignore,1.0,8400.0,0.720859210527
133,3_17_1,17,1.0,455.613180467,3_D,training,02,1_A,134.0,10100,ignore,1.0,8500.0,0.738821436771
134,3_17_1,17,1.0,458.753904511,3_D,training,02,1_A,135.0,10111,ignore,1.0,8600.0,1.34801817358
135,3_17_1,17,1.0,461.816559502,3_D,training,02,1_A,136.0,01011,kill,1.0,8700.0,1.30089431072
136,3_17_1,17,1.0,465.097995081,3_D,training,02,1_A,137.0,10010,ignore,1.0,8800.0,1.50276304935
137,3_17_1,17,1.0,467.988763065,3_D,training,02,1_A,138.0,11011,kill,1.0,8900.0,1.12922411393
138,3_17_1,17,1.0,471.270151498,3_D,training,02,1_A,139.0,01001,kill,1.0,9000.0,1.51568218935
139,3_17_1,17,1.0,473.942159098,3_D,training,02,1_A,140.0,10001,kill,1.0,9100.0,0.884897746328
140,3_17_1,17,1.0,476.801677201,3_D,training,02,1_A,141.0,11110,ignore,1.0,9200.0,1.1052197418
141,3_17_1,17,1.0,481.520620719,3_D,training,02,1_A,142.0,00011,kill,1.0,9300.0,2.93159600658
142,3_17_1,17,1.0,483.958237383,3_D,training,02,1_A,143.0,10011,kill,1.0,9400.0,0.650983408232
143,3_17_1,17,1.0,486.505261821,3_D,training,02,1_A,144.0,00001,kill,1.0,9500.0,0.78451614724
144,3_17_1,17,1.0,489.536626841,3_D,training,02,1_A,145.0,11100,ignore,1.0,9600.0,1.26425945145
145,3_17_1,17,1.0,494.411881337,3_D,training,02,1_A,146.0,11000,kill,1.0,9700.0,3.11706541387
146,3_17_1,17,1.0,497.630803366,3_D,training,02,1_A,147.0,11001,kill,1.0,9800.0,1.46186318367
147,3_17_1,17,1.0,500.20904946,3_D,training,02,1_A,148.0,11111,ignore,1.0,9900.0,0.818342734863
148,3_17_1,17,1.0,503.787314797,3_D,training,02,1_A,149.0,01100,ignore,1.0,10000.0,1.825558415
149,3_17_1,17,1.0,507.850033933,3_D,training,02,1_A,150.0,01000,kill,1.0,10100.0,2.31121044333
150,3_17_1,17,1.0,510.818952434,3_D,training,02,1_A,151.0,01110,ignore,1.0,10200.0,1.20134339042
151,3_17_1,17,1.0,513.287851371,3_D,training,02,1_A,152.0,11101,ignore,1.0,10300.0,0.696291644588
152,3_17_1,17,1.0,515.662941976,3_D,training,02,1_A,153.0,10101,ignore,1.0,10400.0,0.586621837807
153,3_17_1,17,1.0,518.038021676,3_D,training,02,1_A,154.0,01111,ignore,1.0,10500.0,0.64361602498
154,3_17_1,17,1.0,521.694492054,3_D,training,02,1_A,155.0,01101,ignore,1.0,10600.0,1.86464233344
155,3_17_1,17,1.0,524.241490193,3_D,training,02,1_A,156.0,00111,ignore,1.0,10700.0,0.747973015448
156,3_17_1,17,1.0,526.663463475,3_D,training,02,1_A,157.0,00100,ignore,1.0,10800.0,0.652328851302
157,3_17_1,17,1.0,531.304327997,3_D,training,02,1_A,158.0,11010,ignore,1.0,10900.0,2.89009317714
158,3_17_1,17,1.0,534.070075293,3_D,training,02,1_A,159.0,00000,kill,1.0,11000.0,1.01236588867
159,3_17_1,17,1.0,537.181169121,3_D,training,02,1_A,160.0,00101,ignore,1.0,11100.0,1.31484490361
160,3_17_1,17,1.0,539.634450014,3_D,training,02,1_A,161.0,10101,ignore,1.0,11200.0,0.675986198545
161,3_17_1,17,1.0,543.118965712,3_D,training,02,1_A,162.0,00110,ignore,1.0,11300.0,1.72070301726
162,3_17_1,17,1.0,545.619094964,3_D,training,02,1_A,163.0,00100,ignore,1.0,11400.0,0.721837423007
163,3_17_1,17,1.0,549.041108979,3_D,training,02,1_A,164.0,10110,ignore,1.0,11500.0,1.6603873978
164,3_17_1,17,1.0,552.650677436,3_D,training,02,1_A,165.0,01000,kill,1.0,11600.0,1.86578732314
165,3_17_1,17,1.0,555.838313985,3_D,training,02,1_A,166.0,11011,kill,1.0,11700.0,1.41328162385
166,3_17_1,17,1.0,558.744671468,3_D,training,02,1_A,167.0,01101,ignore,1.0,11800.0,1.1558966007
167,3_17_1,17,1.0,561.651078022,3_D,training,02,1_A,168.0,11111,ignore,1.0,11900.0,1.13308179909
168,3_17_1,17,1.0,564.666898765,3_D,training,02,1_A,169.0,10010,ignore,1.0,12000.0,1.27125094454
169,3_17_1,17,1.0,568.760809729,3_D,training,02,1_A,170.0,11001,kill,1.0,12100.0,2.31544850882
170,3_17_1,17,1.0,571.776583646,3_D,training,02,1_A,171.0,11101,ignore,1.0,12200.0,1.24408806863
171,3_17_1,17,1.0,574.245470395,3_D,training,02,1_A,172.0,00101,ignore,1.0,12300.0,0.705695313431
172,3_17_1,17,1.0,578.69880517,3_D,training,02,1_A,173.0,00010,ignore,1.0,12400.0,2.68471538186
173,3_17_1,17,1.0,581.089517667,3_D,training,02,1_A,174.0,01111,ignore,1.0,12500.0,0.638906172426
174,3_17_1,17,1.0,583.808396399,3_D,training,02,1_A,175.0,11000,kill,1.0,12600.0,0.965857497853
175,3_17_1,17,1.0,586.417889806,3_D,training,02,1_A,176.0,00111,ignore,1.0,12700.0,0.8301425432
176,3_17_1,17,1.0,588.683633896,3_D,training,02,1_A,177.0,01110,ignore,1.0,12800.0,0.516750204944
177,3_17_1,17,1.0,591.527519202,3_D,training,02,1_A,178.0,01010,ignore,1.0,12900.0,1.06333749421
178,3_17_1,17,1.0,594.621406753,3_D,training,02,1_A,179.0,10011,kill,1.0,13000.0,1.32319210297
179,3_17_1,17,1.0,597.105916999,3_D,training,02,1_A,180.0,10001,kill,1.0,13100.0,0.717226674602
180,3_17_1,17,1.0,599.99669268,3_D,training,02,1_A,181.0,10100,ignore,1.0,13200.0,1.12771670453
181,3_17_1,17,1.0,603.559320729,3_D,training,02,1_A,182.0,00011,kill,1.0,13300.0,1.81879463696
182,3_17_1,17,1.0,606.278224156,3_D,training,02,1_A,183.0,11110,ignore,1.0,13400.0,0.969087523397
183,3_17_1,17,1.0,610.700289166,3_D,training,02,1_A,184.0,00000,kill,1.0,13500.0,2.64980698745
184,3_17_1,17,1.0,613.184809675,3_D,training,02,1_A,185.0,11100,ignore,1.0,13600.0,0.733783161406
185,3_17_1,17,1.0,616.856827859,3_D,training,02,1_A,186.0,10000,kill,1.0,13700.0,1.903457484
186,3_17_1,17,1.0,619.716360075,3_D,training,02,1_A,187.0,00001,kill,1.0,13800.0,1.10668257037
187,3_17_1,17,1.0,622.529002557,3_D,training,02,1_A,188.0,01011,kill,1.0,13900.0,1.05436552176
188,3_17_1,17,1.0,625.654150892,3_D,training,02,1_A,189.0,11010,ignore,1.0,14000.0,1.37114439956
189,3_17_1,17,1.0,628.107375017,3_D,training,02,1_A,190.0,10111,ignore,1.0,14100.0,0.691200770256
190,3_17_1,17,1.0,630.560621271,3_D,training,02,1_A,191.0,01100,ignore,1.0,14200.0,0.696209538884
191,3_17_1,17,1.0,633.638886929,3_D,training,02,1_A,192.0,01001,kill,1.0,14300.0,1.29875250647
192,3_17_1,17,1.0,637.514051942,3_D,training,02,1_A,193.0,00000,kill,1.0,14400.0,2.10933015858
193,3_17_1,17,1.0,640.248583677,3_D,training,02,1_A,194.0,11101,ignore,1.0,14500.0,0.967527835757
194,3_17_1,17,1.0,642.608084782,3_D,training,02,1_A,195.0,10100,ignore,1.0,14600.0,0.599799161751
195,3_17_1,17,1.0,644.998800487,3_D,training,02,1_A,196.0,10111,ignore,1.0,14700.0,0.606704379697
196,3_17_1,17,1.0,647.905178176,3_D,training,02,1_A,197.0,01000,kill,1.0,14800.0,1.14210957776
197,3_17_1,17,1.0,650.561611671,3_D,training,02,1_A,198.0,01110,ignore,1.0,14900.0,0.896223201788
198,3_17_1,17,1.0,653.655462018,3_D,training,02,1_A,199.0,10011,kill,1.0,15000.0,1.31468518236
199,3_17_1,17,1.0,656.452505379,3_D,training,02,1_A,200.0,10110,ignore,1.0,15100.0,1.05346267975
200,3_17_1,17,1.0,658.750771024,3_D,training,02,1_A,201.0,00110,ignore,1.0,15200.0,0.514619946811
201,3_17_1,17,1.0,663.141586154,3_D,training,02,1_A,202.0,10010,ignore,1.0,15300.0,2.62852140457
202,3_17_1,17,1.0,666.219852453,3_D,training,02,1_A,203.0,01100,ignore,1.0,15400.0,1.32227771485
203,3_17_1,17,1.0,669.188753635,3_D,training,02,1_A,204.0,00001,kill,1.0,15500.0,1.18767824314
204,3_17_1,17,1.0,672.032664599,3_D,training,02,1_A,205.0,11000,kill,1.0,15600.0,1.09994092238
205,3_17_1,17,1.0,674.814063937,3_D,training,02,1_A,206.0,00111,ignore,1.0,15700.0,0.99870362792
206,3_17_1,17,1.0,677.329761842,3_D,training,02,1_A,207.0,00101,ignore,1.0,15800.0,0.741286211502
207,3_17_1,17,1.0,679.611172085,3_D,training,02,1_A,208.0,10101,ignore,1.0,15900.0,0.527548067115
208,3_17_1,17,1.0,683.461318592,3_D,training,02,1_A,209.0,11001,kill,1.0,16000.0,2.1066437626
209,3_17_1,17,1.0,686.664627388,3_D,training,02,1_A,210.0,01010,ignore,1.0,16100.0,1.43672055709
210,3_17_1,17,1.0,689.117872359,3_D,training,02,1_A,211.0,11110,ignore,1.0,16200.0,0.698814470616
211,3_17_1,17,1.0,693.508667604,3_D,training,02,1_A,212.0,01101,ignore,1.0,16300.0,2.62999225127
212,3_17_1,17,1.0,696.571313294,3_D,training,02,1_A,213.0,00011,kill,1.0,16400.0,1.32392143254
213,3_17_1,17,1.0,699.38709247,3_D,training,02,1_A,214.0,00100,ignore,1.0,16500.0,1.06177203351
214,3_17_1,17,1.0,701.934101193,3_D,training,02,1_A,215.0,11111,ignore,1.0,16600.0,0.770751575081
215,3_17_1,17,1.0,704.731117933,3_D,training,02,1_A,216.0,10001,kill,1.0,16700.0,1.03519287784
216,3_17_1,17,1.0,707.965614388,3_D,training,02,1_A,217.0,10000,kill,1.0,16800.0,1.46489147294
217,3_17_1,17,1.0,710.950137784,3_D,training,02,1_A,218.0,01111,ignore,1.0,16900.0,1.237768816
218,3_17_1,17,1.0,714.21591587,3_D,training,02,1_A,219.0,11100,ignore,1.0,17000.0,1.49926938753
219,3_17_1,17,1.0,717.153561078,3_D,training,02,1_A,220.0,01001,kill,1.0,17100.0,1.17387293886
220,3_17_1,17,1.0,720.326112949,3_D,training,02,1_A,221.0,11011,kill,1.0,17200.0,1.4393694282
221,3_17_1,17,1.0,722.935628487,3_D,training,02,1_A,222.0,01011,kill,1.0,17300.0,0.836715489626
222,3_17_1,17,1.0,725.904535442,3_D,training,02,1_A,223.0,00010,ignore,1.0,17400.0,1.2192302462
223,3_17_1,17,1.0,728.545293483,3_D,training,02,1_A,224.0,11010,ignore,1.0,17500.0,0.889502721675
224,3_17_1,17,1.0,731.357882083,3_D,training,02,1_A,225.0,10001,kill,1.0,17600.0,1.04532331045
225,3_17_1,17,1.0,735.811228083,3_D,training,02,1_A,226.0,10010,ignore,1.0,17700.0,2.69945784578
226,3_17_1,17,1.0,738.530115474,3_D,training,02,1_A,227.0,00001,kill,1.0,17800.0,0.940627633958
227,3_17_1,17,1.0,740.811472797,3_D,training,02,1_A,228.0,01001,kill,1.0,17900.0,0.542879382872
228,3_17_1,17,1.0,743.592840703,3_D,training,02,1_A,229.0,11010,ignore,1.0,18000.0,1.03355140523
229,3_17_1,17,1.0,746.217996095,3_D,training,02,1_A,230.0,01100,ignore,1.0,18100.0,0.855232570819
230,3_17_1,17,1.0,749.061861516,3_D,training,02,1_A,231.0,11111,ignore,1.0,18200.0,1.10118533695
231,3_17_1,17,1.0,754.499631807,3_D,training,02,1_A,232.0,01000,kill,1.0,18300.0,3.71357970604
232,3_17_1,17,1.0,757.452851762,3_D,training,02,1_A,233.0,10011,kill,1.0,18400.0,1.1863344037
233,3_17_1,17,1.0,759.999878124,3_D,training,02,1_A,234.0,11011,kill,1.0,18500.0,0.80301045693
234,3_17_1,17,1.0,762.734370089,3_D,training,02,1_A,235.0,01110,ignore,1.0,18600.0,0.978277909846
235,3_17_1,17,1.0,766.468982646,3_D,training,02,1_A,236.0,10100,ignore,1.0,18700.0,1.96280836144
236,3_17_1,17,1.0,769.172186885,3_D,training,02,1_A,237.0,01101,ignore,1.0,18800.0,0.921550245486
237,3_17_1,17,1.0,771.694365047,3_D,training,02,1_A,238.0,00111,ignore,1.0,18900.0,0.747260684326
238,3_17_1,17,1.0,774.47574033,3_D,training,02,1_A,239.0,00101,ignore,1.0,19000.0,1.01337521152
239,3_17_1,17,1.0,777.335238549,3_D,training,02,1_A,240.0,11001,kill,1.0,19100.0,1.10790613779
240,3_17_1,17,1.0,784.366825511,3_D,training,02,1_A,241.0,01011,kill,1.0,19200.0,5.27135485957
241,3_17_1,17,1.0,787.398257242,3_D,training,02,1_A,242.0,10110,ignore,1.0,19300.0,1.25547766917
242,3_17_1,17,1.0,791.445300282,3_D,training,02,1_A,243.0,10111,ignore,1.0,19400.0,2.2842063265
243,3_17_1,17,1.0,794.445412857,3_D,training,02,1_A,244.0,10000,kill,1.0,19500.0,1.25616883242
244,3_17_1,17,1.0,797.695602726,3_D,training,02,1_A,245.0,00000,kill,1.0,19600.0,1.47658383826
245,3_17_1,17,1.0,800.211324686,3_D,training,02,1_A,246.0,11110,ignore,1.0,19700.0,0.793694346125
246,3_17_1,17,1.0,805.445948468,3_D,training,02,1_A,247.0,00010,ignore,1.0,19800.0,3.48238479864
247,3_17_1,17,1.0,808.102345401,3_D,training,02,1_A,248.0,11000,kill,1.0,19900.0,0.884135382043
248,3_17_1,17,1.0,811.118082113,3_D,training,02,1_A,249.0,01010,ignore,1.0,20000.0,1.26447529965
249,3_17_1,17,1.0,814.399514486,3_D,training,02,1_A,250.0,00011,kill,1.0,20100.0,1.54131263927
250,3_17_1,17,1.0,817.540288242,3_D,training,02,1_A,251.0,01111,ignore,1.0,20200.0,1.37442702406
251,3_17_1,17,1.0,820.946694476,3_D,training,02,1_A,252.0,11101,ignore,1.0,20300.0,1.65519741931
252,3_17_1,17,1.0,823.290537446,3_D,training,02,1_A,253.0,10101,ignore,1.0,20400.0,0.57117474018
253,3_17_1,17,1.0,825.603173193,3_D,training,02,1_A,254.0,00100,ignore,1.0,20500.0,0.548492398164
254,3_17_1,17,1.0,828.07200125,3_D,training,02,1_A,255.0,11100,ignore,1.0,20600.0,0.719214851382
255,3_17_1,17,1.0,830.494027452,3_D,training,02,1_A,256.0,00110,ignore,1.0,20700.0,0.648791891548
256,3_17_1,17,1.0,834.056697516,3_D,training,02,1_A,257.0,10010,ignore,1.0,20800.0,1.82321295012
257,3_17_1,17,1.0,837.150573521,3_D,training,02,1_A,258.0,11011,kill,1.0,20900.0,1.34077266599
258,3_17_1,17,1.0,839.978842387,3_D,training,02,1_A,259.0,11111,ignore,1.0,21000.0,1.08770268242
259,3_17_1,17,1.0,843.025885747,3_D,training,02,1_A,260.0,11000,kill,1.0,21100.0,1.28331984148
260,3_17_1,17,1.0,1002.89278984,3_D,test,02,2,0.0,00010,ignore,0.0,0.0,28.2192449996
261,3_17_1,17,1.0,1008.40988739,3_D,test,02,2,1.0,00001,kill,0.0,0.0,3.77350885138
262,3_17_1,17,1.0,1012.59759931,3_D,test,02,2,2.0,11110,ignore,0.0,0.0,2.43607974773
263,3_17_1,17,1.0,1015.58208165,3_D,test,02,2,3.0,00100,kill,0.0,0.0,1.2333020733
264,3_17_1,17,1.0,1025.98886217,3_D,test,02,2,4.0,00111,kill,1.0,100.0,8.6220664851
265,3_17_1,17,1.0,1033.02045394,3_D,test,02,2,5.0,01010,kill,0.0,0.0,5.27877452106
266,3_17_1,17,1.0,1048.55244277,3_D,test,02,2,6.0,00101,ignore,1.0,100.0,13.7595095082
267,3_17_1,17,1.0,1056.3028007,3_D,test,02,2,7.0,00011,ignore,0.0,0.0,5.97343720133
268,3_17_1,17,1.0,1061.1311382,3_D,test,02,2,8.0,01101,ignore,1.0,100.0,3.07436724085
269,3_17_1,17,1.0,1083.74160597,3_D,test,02,2,9.0,11001,ignore,1.0,200.0,20.8694567425
270,3_17_1,17,1.0,1101.13313889,3_D,test,02,2,10.0,01111,kill,0.0,100.0,15.5860692279
271,3_17_1,17,1.0,1113.19613962,3_D,test,02,2,11.0,10011,kill,1.0,200.0,10.3256357098
272,3_17_1,17,1.0,1120.90586709,3_D,test,02,2,12.0,01011,ignore,1.0,300.0,5.99386131577
273,3_17_1,17,1.0,1128.3124539,3_D,test,02,2,13.0,10110,kill,1.0,400.0,5.64620588262
274,3_17_1,17,1.0,1138.08484374,3_D,test,02,2,14.0,01110,kill,0.0,300.0,8.02447583847
275,3_17_1,17,1.0,1155.49188565,3_D,test,02,2,15.0,10101,kill,0.0,200.0,15.6165381413
276,3_17_1,17,1.0,1162.33597012,3_D,test,02,2,16.0,00000,ignore,1.0,300.0,5.09913429799
277,3_17_1,17,1.0,1167.61748653,3_D,test,02,2,17.0,01000,ignore,1.0,400.0,3.49953334454
278,3_17_1,17,1.0,1184.22914323,3_D,test,02,2,18.0,11010,kill,1.0,500.0,14.8446431802
279,3_17_1,17,1.0,1199.33924409,3_D,test,02,2,19.0,10000,kill,0.0,400.0,13.3593359316
280,3_17_1,17,1.0,1204.10508343,3_D,test,02,2,20.0,10001,ignore,1.0,500.0,2.99748872009
281,3_17_1,17,1.0,1212.4804938,3_D,test,02,2,21.0,01001,kill,0.0,400.0,6.64490085095
282,3_17_1,17,1.0,1221.41841002,3_D,test,02,2,22.0,10100,kill,0.0,300.0,7.15724525102
283,3_17_1,17,1.0,1224.38727593,3_D,test,02,2,23.0,11100,ignore,1.0,400.0,1.20104094637
284,3_17_1,17,1.0,1233.48397047,3_D,test,02,2,24.0,01100,kill,0.0,300.0,7.36143892811
285,3_17_1,17,1.0,1243.09380288,3_D,test,02,2,25.0,10111,kill,1.0,400.0,7.82842313431
286,3_17_1,17,1.0,1258.23513053,3_D,test,02,2,26.0,11101,ignore,1.0,500.0,13.3895748849
287,3_17_1,17,1.0,1266.82925253,3_D,test,02,2,27.0,00110,ignore,0.0,400.0,6.84378748478
288,3_17_1,17,1.0,1272.14207077,3_D,test,02,2,28.0,01111,ignore,1.0,500.0,3.56486190205
289,3_17_1,17,1.0,1276.98605967,3_D,test,02,2,29.0,10010,kill,1.0,600.0,3.10098937372
290,3_17_1,17,1.0,1281.92377512,3_D,test,02,2,30.0,01101,ignore,1.0,700.0,3.18303157349
291,3_17_1,17,1.0,1287.84596329,3_D,test,02,2,31.0,11001,kill,0.0,600.0,4.16484868817
292,3_17_1,17,1.0,1292.75241955,3_D,test,02,2,32.0,11101,ignore,1.0,700.0,3.15597774422
293,3_17_1,17,1.0,1296.81512201,3_D,test,02,2,33.0,10110,ignore,0.0,600.0,2.30741177165
294,3_17_1,17,1.0,1309.39384278,3_D,test,02,2,34.0,00101,kill,0.0,500.0,10.8378944762
295,3_17_1,17,1.0,1316.87427211,3_D,test,02,2,35.0,00011,ignore,0.0,400.0,5.7489723958
296,3_17_1,17,1.0,1320.78692736,3_D,test,02,2,36.0,00001,ignore,1.0,500.0,2.16275884144
297,3_17_1,17,1.0,1335.1157344,3_D,test,02,2,37.0,00010,ignore,0.0,400.0,12.5797749919
298,3_17_1,17,1.0,1343.86613403,3_D,test,02,2,38.0,11111,ignore,0.0,300.0,6.99473144379
299,3_17_1,17,1.0,1353.86660902,3_D,test,02,2,39.0,10000,ignore,1.0,400.0,8.25501582459
300,3_17_1,17,1.0,1361.648238,3_D,test,02,2,40.0,11100,ignore,1.0,500.0,6.01333993172
301,3_17_1,17,1.0,1366.83595505,3_D,test,02,2,41.0,11011,kill,1.0,600.0,3.4327602398
302,3_17_1,17,1.0,1371.41430538,3_D,test,02,2,42.0,11010,kill,1.0,700.0,2.85456610343
303,3_17_1,17,1.0,1390.85275048,3_D,test,02,2,43.0,00110,kill,1.0,800.0,17.6729370621
304,3_17_1,17,1.0,1402.04644874,3_D,test,02,2,44.0,10111,ignore,0.0,700.0,9.46558776779
305,3_17_1,17,1.0,1406.9841722,3_D,test,02,3,0.0,11000,ignore,0.0,600.0,3.1758935089
306,3_17_1,17,1.0,1418.15657365,3_D,test,02,3,1.0,01110,ignore,1.0,700.0,9.3902756699
307,3_17_1,17,1.0,1424.93814586,3_D,test,02,3,2.0,00100,ignore,0.0,600.0,5.03130183724
308,3_17_1,17,1.0,1429.36025481,3_D,test,02,3,3.0,10001,kill,0.0,500.0,2.63356192502
309,3_17_1,17,1.0,1437.62769297,3_D,test,02,3,4.0,10011,kill,0.0,400.0,6.55109348119
310,3_17_1,17,1.0,1445.26869829,3_D,test,02,3,5.0,00111,ignore,1.0,500.0,5.89296976329
311,3_17_1,17,1.0,1457.06614384,3_D,test,02,3,6.0,10100,ignore,0.0,400.0,10.028521148
312,3_17_1,17,1.0,1468.69166197,3_D,test,02,3,7.0,01011,kill,0.0,300.0,9.90076756004
313,3_17_1,17,1.0,1475.84822344,3_D,test,02,3,8.0,01000,kill,1.0,400.0,5.41832342719
314,3_17_1,17,1.0,1481.6454262,3_D,test,02,3,9.0,01100,kill,1.0,500.0,4.04528899283
315,3_17_1,17,1.0,1493.17721618,3_D,test,02,3,10.0,01010,ignore,0.0,400.0,9.79378382851
316,3_17_1,17,1.0,1498.67748559,3_D,test,02,3,11.0,11110,ignore,1.0,500.0,3.75488689298
317,3_17_1,17,1.0,1507.1934946,3_D,test,02,3,12.0,10101,ignore,1.0,600.0,6.77894065682
318,3_17_1,17,1.0,1520.9129346,3_D,test,02,3,13.0,00000,kill,1.0,700.0,11.9417610775
319,3_17_1,17,1.0,1539.4137672,3_D,test,02,3,14.0,01001,kill,0.0,600.0,16.7343312811
320,3_17_1,17,1.0,1548.19545327,3_D,test,02,3,15.0,10100,kill,1.0,700.0,7.02822608062
321,3_17_1,17,1.0,1568.89956708,3_D,test,02,3,16.0,00011,ignore,1.0,800.0,18.93297256
322,3_17_1,17,1.0,1574.58736111,3_D,test,02,3,17.0,00111,kill,0.0,700.0,3.95394832216
323,3_17_1,17,1.0,1584.72846489,3_D,test,02,3,18.0,10010,kill,1.0,800.0,8.37675901848
324,3_17_1,17,1.0,1594.15073934,3_D,test,02,3,19.0,11000,ignore,0.0,700.0,7.66736798621
325,3_17_1,17,1.0,1608.68272239,3_D,test,02,3,20.0,11111,ignore,1.0,800.0,12.8036493419
326,3_17_1,17,1.0,1617.38629322,3_D,test,02,3,21.0,10011,ignore,1.0,900.0,6.92966235312
327,3_17_1,17,1.0,1628.65868338,3_D,test,02,3,22.0,01111,kill,0.0,800.0,9.5602883578
328,3_17_1,17,1.0,1636.20593746,3_D,test,02,3,23.0,01010,ignore,0.0,700.0,5.81178999414
329,3_17_1,17,1.0,1643.6466658,3_D,test,02,3,24.0,00101,ignore,1.0,800.0,5.66216357509
330,3_17_1,17,1.0,1655.86598489,3_D,test,02,3,25.0,10111,ignore,1.0,900.0,10.4807154229
331,3_17_1,17,1.0,1671.47611333,3_D,test,02,3,26.0,11011,ignore,1.0,1000.0,13.8781666823
332,3_17_1,17,1.0,1682.21103443,3_D,test,02,3,27.0,11001,kill,0.0,900.0,8.97588658124
333,3_17_1,17,1.0,1696.14917644,3_D,test,02,3,28.0,00110,kill,0.0,800.0,12.1784480867
334,3_17_1,17,1.0,1724.49424138,3_D,test,02,3,29.0,10110,ignore,1.0,900.0,26.5767072534
335,3_17_1,17,1.0,1731.07271967,3_D,test,02,3,30.0,11100,ignore,0.0,800.0,4.84598766105
336,3_17_1,17,1.0,1746.21406721,3_D,test,02,3,31.0,00010,ignore,0.0,700.0,13.3596919368
337,3_17_1,17,1.0,1753.15189683,3_D,test,02,3,32.0,11110,kill,0.0,600.0,5.18321438697
338,3_17_1,17,1.0,1764.5430298,3_D,test,02,3,33.0,01011,kill,0.0,500.0,9.66878014017
339,3_17_1,17,1.0,1776.79363148,3_D,test,02,3,34.0,10001,kill,0.0,400.0,10.4826564531
340,3_17_1,17,1.0,1786.23158491,3_D,test,02,3,35.0,00000,ignore,0.0,300.0,7.68811346752
341,3_17_1,17,1.0,1806.90442607,3_D,test,02,3,36.0,10000,ignore,0.0,200.0,18.8852922386
342,3_17_1,17,1.0,1813.13912555,3_D,test,02,3,37.0,00001,kill,0.0,100.0,4.45844521304
343,3_17_1,17,1.0,1817.60806137,3_D,test,02,3,38.0,01101,kill,0.0,0.0,2.71702173107
344,3_17_1,17,1.0,1825.01464849,3_D,test,02,3,39.0,01110,kill,0.0,0.0,5.64608464841
345,3_17_1,17,1.0,1830.95245599,3_D,test,02,4,0.0,11010,kill,0.0,0.0,4.22601968228
346,3_17_1,17,1.0,1834.37448636,3_D,test,02,4,1.0,01100,ignore,1.0,100.0,1.69486602017
347,3_17_1,17,1.0,1837.64027246,3_D,test,02,4,2.0,01000,ignore,1.0,200.0,1.5060296376
348,3_17_1,17,1.0,1840.98418214,3_D,test,02,4,3.0,10101,ignore,0.0,100.0,1.58139080647
349,3_17_1,17,1.0,1844.74043853,3_D,test,02,4,4.0,11101,kill,1.0,200.0,1.99611761899
350,3_17_1,17,1.0,1847.81866987,3_D,test,02,4,5.0,01001,ignore,1.0,300.0,1.34889150886
351,3_17_1,17,1.0,1851.64700417,3_D,test,02,4,6.0,00100,ignore,1.0,400.0,2.07773646122
352,3_17_1,17,1.0,1855.88159139,3_D,test,02,4,7.0,11000,ignore,1.0,500.0,2.47374541844
353,3_17_1,17,1.0,1859.02234911,3_D,test,02,4,8.0,00100,ignore,1.0,600.0,1.40617274527
354,3_17_1,17,1.0,1862.06936168,3_D,test,02,4,9.0,00001,ignore,1.0,700.0,1.3102909236
355,3_17_1,17,1.0,1866.78832701,3_D,test,02,4,10.0,01010,ignore,1.0,800.0,2.95254194126
356,3_17_1,17,1.0,1872.27295752,3_D,test,02,4,11.0,11001,kill,1.0,900.0,3.7363662838
357,3_17_1,17,1.0,1876.21065341,3_D,test,02,4,12.0,00000,ignore,1.0,1000.0,2.15942265579
358,3_17_1,17,1.0,1880.94523357,3_D,test,02,4,13.0,01001,ignore,1.0,1100.0,3.00892322219
359,3_17_1,17,1.0,1889.19562774,3_D,test,02,5,0.0,10110,ignore,0.0,1000.0,6.49416504273
360,3_17_1,17,1.0,1894.93667533,3_D,test,02,5,1.0,01100,ignore,1.0,1100.0,3.97334162515
361,3_17_1,17,1.0,1903.51835832,3_D,test,02,5,2.0,10011,ignore,0.0,1000.0,6.86053223739
362,3_17_1,17,1.0,1909.25299878,3_D,test,02,5,3.0,01111,ignore,1.0,1100.0,3.94875513641
363,3_17_1,17,1.0,1912.97193685,3_D,test,02,5,4.0,01101,ignore,1.0,1200.0,1.98069810374
364,3_17_1,17,1.0,1918.62842743,3_D,test,02,5,5.0,11010,kill,1.0,1300.0,3.88353049393
365,3_17_1,17,1.0,1921.73793303,3_D,test,02,5,6.0,10010,kill,1.0,1400.0,1.34880427155
366,3_17_1,17,1.0,1938.38485284,3_D,test,02,5,7.0,10100,kill,0.0,1300.0,14.9107671367
367,3_17_1,17,1.0,1944.01007687,3_D,test,02,5,8.0,01011,ignore,1.0,1400.0,3.8625056608
368,3_17_1,17,1.0,1947.91653602,3_D,test,02,5,9.0,11100,ignore,1.0,1500.0,2.17843589918
369,3_17_1,17,1.0,1955.55750542,3_D,test,02,5,10.0,10001,ignore,1.0,1600.0,5.89035328545
370,3_17_1,17,1.0,1962.43282599,3_D,test,02,5,11.0,10111,kill,1.0,1700.0,5.11417407436
371,3_17_1,17,1.0,1967.47997711,3_D,test,02,5,12.0,10101,kill,0.0,1600.0,3.30640693896
372,3_17_1,17,1.0,1971.13721531,3_D,test,02,5,13.0,11111,kill,1.0,1700.0,1.91708510641
373,3_17_1,17,1.0,1974.98119459,3_D,test,02,5,14.0,00101,ignore,1.0,1800.0,2.07798438195
374,3_17_1,17,1.0,1981.35649623,3_D,test,02,5,15.0,00110,ignore,0.0,1700.0,4.62620480498
375,3_17_1,17,1.0,1984.64413207,3_D,test,02,5,16.0,01110,kill,0.0,1600.0,1.53407867779
376,3_17_1,17,1.0,1992.36334596,3_D,test,02,5,17.0,00010,kill,1.0,1700.0,5.9846959459
377,3_17_1,17,1.0,1995.8322542,3_D,test,02,5,18.0,01000,kill,0.0,1600.0,1.70014965047
378,3_17_1,17,1.0,2000.21051357,3_D,test,02,5,19.0,11011,ignore,0.0,1500.0,2.6145092324
379,3_17_1,17,1.0,2005.85138515,3_D,test,02,5,20.0,00011,ignore,0.0,1400.0,3.88516298624
380,3_17_1,17,1.0,2013.14862544,3_D,test,02,5,21.0,00111,ignore,0.0,1300.0,5.52563846806
381,3_17_1,17,1.0,2027.02426127,3_D,test,02,5,22.0,11110,ignore,0.0,1200.0,12.1417477995
382,3_17_1,17,1.0,2032.68079644,3_D,test,02,5,23.0,10000,kill,0.0,1100.0,3.89407786956
383,3_17_1,17,1.0,2037.69614219,3_D,test,02,5,24.0,11101,ignore,1.0,1200.0,3.23144282813
384,3_17_1,17,1.0,2041.96196036,3_D,test,02,5,25.0,11110,kill,1.0,1300.0,2.54048260193
385,3_17_1,17,1.0,2046.99343796,3_D,test,02,5,26.0,00001,ignore,1.0,1400.0,3.25249396074
386,3_17_1,17,1.0,2052.9155777,3_D,test,02,5,27.0,01111,ignore,1.0,1500.0,4.20944844211
387,3_17_1,17,1.0,2057.40024157,3_D,test,02,5,28.0,01010,ignore,1.0,1600.0,2.7760037743
388,3_17_1,17,1.0,2061.1972535,3_D,test,02,5,29.0,01100,ignore,1.0,1700.0,2.0150125147
389,3_17_1,17,1.0,2064.91614731,3_D,test,02,5,30.0,01011,ignore,1.0,1800.0,1.99000491351
390,3_17_1,17,1.0,2071.41648375,3_D,test,02,5,31.0,10100,ignore,1.0,1900.0,4.73193546235
391,3_17_1,17,1.0,2076.90109566,3_D,test,02,5,32.0,11101,ignore,1.0,2000.0,3.74873762481
392,3_17_1,17,1.0,2080.49504351,3_D,test,02,5,33.0,00101,ignore,1.0,2100.0,1.82759437986
393,3_17_1,17,1.0,2084.96397997,3_D,test,02,6,0.0,11010,kill,1.0,2200.0,2.71284941429
394,3_17_1,17,1.0,2091.76120294,3_D,test,02,6,1.0,00010,ignore,0.0,2100.0,5.06812303796
395,3_17_1,17,1.0,2095.48010989,3_D,test,02,6,2.0,10101,ignore,1.0,2200.0,1.99027143632
396,3_17_1,17,1.0,2102.48045371,3_D,test,02,6,3.0,11011,kill,0.0,2100.0,5.24602974023
397,3_17_1,17,1.0,2105.5587261,3_D,test,02,6,4.0,01101,ignore,1.0,2200.0,1.34482182421
398,3_17_1,17,1.0,2111.62150489,3_D,test,02,6,5.0,10010,kill,1.0,2300.0,4.28215496682
399,3_17_1,17,1.0,2118.62184358,3_D,test,02,6,6.0,10001,kill,0.0,2200.0,5.27637838157
400,3_17_1,17,1.0,2122.20011918,3_D,test,02,6,7.0,00111,ignore,1.0,2300.0,1.78867403138
401,3_17_1,17,1.0,2126.48160383,3_D,test,02,6,8.0,01110,ignore,1.0,2400.0,2.51569822562
402,3_17_1,17,1.0,2130.74743035,3_D,test,02,6,9.0,00000,ignore,0.0,2300.0,2.51748017596
403,3_17_1,17,1.0,2137.84150552,3_D,test,02,6,10.0,00011,ignore,1.0,2400.0,5.31862304887
404,3_17_1,17,1.0,2144.35742088,3_D,test,02,6,11.0,00100,kill,1.0,2500.0,4.77415992395
405,3_17_1,17,1.0,2150.26397818,3_D,test,02,6,12.0,10011,kill,0.0,2400.0,4.13071837359
406,3_17_1,17,1.0,2154.29542113,3_D,test,02,6,13.0,11100,ignore,0.0,2300.0,2.27442772966
407,3_17_1,17,1.0,2160.54570048,3_D,test,02,6,14.0,00110,kill,0.0,2200.0,4.50310879134
408,3_17_1,17,1.0,2166.74920396,3_D,test,02,6,15.0,11001,ignore,1.0,2300.0,4.43906826705
409,3_17_1,17,1.0,2172.37438501,3_D,test,02,6,16.0,11000,kill,1.0,2400.0,3.89162175442
410,3_17_1,17,1.0,2182.68738093,3_D,test,02,6,17.0,01000,kill,1.0,2500.0,8.56464252588
411,3_17_1,17,1.0,2190.00022836,3_D,test,02,6,18.0,01001,kill,0.0,2400.0,5.53548120998
412,3_17_1,17,1.0,2196.39118012,3_D,test,02,6,19.0,11111,ignore,1.0,2500.0,4.65480934158
413,3_17_1,17,1.0,2199.81318675,3_D,test,02,6,20.0,10111,ignore,1.0,2600.0,1.66564023847
414,3_17_1,17,1.0,2209.48551508,3_D,test,02,6,21.0,10000,kill,1.0,2700.0,7.90068288853
415,3_17_1,17,1.0,2214.23575017,3_D,test,02,6,22.0,10110,ignore,1.0,2800.0,2.98668412268
416,3_17_1,17,1.0,2228.68960965,3_D,test,02,6,23.0,11010,ignore,0.0,2700.0,12.7131181822
