,unique_id,pair_id,sbj_id,wall_time,condition,block,rule_id,rule_num,trial,stimulus,choice,correct,points,reaction_time
0,2_23_2,23,2.0,54.3449714461,2_ND,training,03,1_A,1.0,00000,ignore,1.0,100.0,2.33316674408
1,2_23_2,23,2.0,58.1423080851,2_ND,training,03,1_A,2.0,01111,ignore,0.0,0.0,1.5443910101
2,2_23_2,23,2.0,61.6739241553,2_ND,training,03,1_A,3.0,01000,ignore,0.0,0.0,1.2771122583
3,2_23_2,23,2.0,68.9715234781,2_ND,training,03,1_A,4.0,00101,ignore,1.0,100.0,5.04485337349
4,2_23_2,23,2.0,72.7687705173,2_ND,training,03,1_A,5.0,00111,kill,0.0,0.0,1.53922494185
5,2_23_2,23,2.0,77.8317989961,2_ND,training,03,1_A,6.0,10000,kill,0.0,0.0,2.80816541431
6,2_23_2,23,2.0,83.8012295368,2_ND,training,03,1_A,7.0,10011,kill,0.0,0.0,3.72984722808
7,2_23_2,23,2.0,88.8954566646,2_ND,training,03,1_A,8.0,01100,ignore,0.0,0.0,2.84576404875
8,2_23_2,23,2.0,94.5366916854,2_ND,training,03,1_A,9.0,11100,ignore,0.0,0.0,3.39062126223
9,2_23_2,23,2.0,104.52207611,2_ND,training,03,1_A,10.0,11010,ignore,0.0,0.0,7.74445995927
10,2_23_2,23,2.0,109.241289691,2_ND,training,03,1_A,11.0,11000,ignore,0.0,0.0,2.48847675511
11,2_23_2,23,2.0,118.211005244,2_ND,training,03,1_A,12.0,01010,ignore,0.0,0.0,6.74397356038
12,2_23_2,23,2.0,128.868423695,2_ND,training,03,1_A,13.0,00100,ignore,1.0,100.0,8.40176520132
13,2_23_2,23,2.0,132.915695979,2_ND,training,03,1_A,14.0,00110,kill,0.0,0.0,1.79063656531
14,2_23_2,23,2.0,139.822616581,2_ND,training,03,1_A,15.0,10010,kill,0.0,0.0,4.66602970219
15,2_23_2,23,2.0,143.916808723,2_ND,training,03,1_A,16.0,10001,ignore,1.0,100.0,1.847999777
16,2_23_2,23,2.0,151.011345894,2_ND,training,03,1_A,17.0,10111,kill,0.0,0.0,4.87341938137
17,2_23_2,23,2.0,154.793003138,2_ND,training,03,1_A,18.0,01101,ignore,0.0,0.0,1.58450896325
18,2_23_2,23,2.0,159.918540985,2_ND,training,03,1_A,19.0,11001,kill,0.0,0.0,2.90185494333
19,2_23_2,23,2.0,163.528251953,2_ND,training,03,1_A,20.0,11011,ignore,1.0,100.0,1.38030647681
20,2_23_2,23,2.0,167.013001642,2_ND,training,03,1_A,21.0,01011,ignore,0.0,0.0,1.25756954722
21,2_23_2,23,2.0,176.357714528,2_ND,training,03,1_A,22.0,11101,ignore,1.0,100.0,7.11524695553
22,2_23_2,23,2.0,180.264445976,2_ND,training,03,1_A,23.0,10100,kill,0.0,0.0,1.69367877705
23,2_23_2,23,2.0,184.514833033,2_ND,training,03,1_A,24.0,11110,kill,1.0,100.0,2.03868833863
24,2_23_2,23,2.0,189.671634667,2_ND,training,03,1_A,25.0,01110,ignore,0.0,0.0,2.9451137249
25,2_23_2,23,2.0,193.344041315,2_ND,training,03,1_A,26.0,00010,ignore,1.0,100.0,1.47042452952
26,2_23_2,23,2.0,196.688000994,2_ND,training,03,1_A,27.0,10110,kill,0.0,0.0,1.12894548436
27,2_23_2,23,2.0,201.235299589,2_ND,training,03,1_A,28.0,10101,ignore,1.0,100.0,2.33611386627
28,2_23_2,23,2.0,207.251558681,2_ND,training,03,1_A,29.0,11111,kill,0.0,0.0,3.79096680456
29,2_23_2,23,2.0,213.033469648,2_ND,training,03,1_A,30.0,01001,ignore,0.0,0.0,3.56121102516
30,2_23_2,23,2.0,217.908958927,2_ND,training,03,1_A,31.0,00001,kill,0.0,0.0,2.64500447003
31,2_23_2,23,2.0,229.082013396,2_ND,training,03,1_A,32.0,00011,ignore,1.0,100.0,8.95823312615
32,2_23_2,23,2.0,235.41078975,2_ND,training,03,1_A,33.0,10100,ignore,1.0,200.0,4.11000579412
33,2_23_2,23,2.0,242.177131686,2_ND,training,03,1_A,34.0,01010,ignore,0.0,100.0,4.55563734895
34,2_23_2,23,2.0,246.052484716,2_ND,training,03,1_A,35.0,11111,ignore,1.0,200.0,1.65576810776
35,2_23_2,23,2.0,249.740387293,2_ND,training,03,1_A,36.0,00111,kill,0.0,100.0,1.48171495716
36,2_23_2,23,2.0,253.91263707,2_ND,training,03,1_A,37.0,10111,ignore,1.0,200.0,1.93811413194
37,2_23_2,23,2.0,259.382053246,2_ND,training,03,1_A,38.0,01100,ignore,0.0,100.0,3.25700521073
38,2_23_2,23,2.0,264.101297832,2_ND,training,03,1_A,39.0,01101,kill,1.0,200.0,2.53818643755
39,2_23_2,23,2.0,268.429869955,2_ND,training,03,1_A,40.0,00101,ignore,1.0,300.0,2.12101576018
40,2_23_2,23,2.0,274.22732862,2_ND,training,03,1_A,41.0,01001,kill,1.0,400.0,3.60089093486
41,2_23_2,23,2.0,278.133971606,2_ND,training,03,1_A,42.0,11100,ignore,0.0,300.0,1.69193428324
42,2_23_2,23,2.0,283.290774663,2_ND,training,03,1_A,43.0,10000,ignore,1.0,400.0,2.94069233051
43,2_23_2,23,2.0,287.166197666,2_ND,training,03,1_A,44.0,00011,kill,0.0,300.0,1.65802886706
44,2_23_2,23,2.0,291.604150945,2_ND,training,03,1_A,45.0,10010,ignore,1.0,400.0,2.23637563989
45,2_23_2,23,2.0,297.604804597,2_ND,training,03,1_A,46.0,11000,ignore,0.0,300.0,3.79132463485
46,2_23_2,23,2.0,301.542698001,2_ND,training,03,1_A,47.0,11110,ignore,0.0,200.0,1.73013536965
47,2_23_2,23,2.0,305.527434462,2_ND,training,03,1_A,48.0,00000,kill,0.0,100.0,1.76091190406
48,2_23_2,23,2.0,312.70010038,2_ND,training,03,1_A,49.0,01111,ignore,0.0,0.0,4.96683954213
49,2_23_2,23,2.0,317.075573588,2_ND,training,03,1_A,50.0,11011,ignore,1.0,100.0,2.16211362221
50,2_23_2,23,2.0,328.983088678,2_ND,training,03,1_A,51.0,01110,kill,1.0,200.0,9.69574355457
51,2_23_2,23,2.0,333.999228873,2_ND,training,03,1_A,52.0,01011,kill,1.0,300.0,2.8176629927
52,2_23_2,23,2.0,337.718336925,2_ND,training,03,1_A,53.0,10101,ignore,1.0,400.0,1.51640430045
53,2_23_2,23,2.0,341.343734684,2_ND,training,03,1_A,54.0,11001,kill,0.0,300.0,1.43769244401
54,2_23_2,23,2.0,345.031609386,2_ND,training,03,1_A,55.0,00110,ignore,1.0,400.0,1.46451549408
55,2_23_2,23,2.0,348.656992638,2_ND,training,03,1_A,56.0,10110,ignore,1.0,500.0,1.43461988211
56,2_23_2,23,2.0,352.548009135,2_ND,training,03,1_A,57.0,11010,kill,1.0,600.0,1.69494796527
57,2_23_2,23,2.0,357.064127001,2_ND,training,03,1_A,58.0,00010,ignore,1.0,700.0,2.31166307746
58,2_23_2,23,2.0,360.423840031,2_ND,training,03,1_A,59.0,11101,kill,0.0,600.0,1.1600989068
59,2_23_2,23,2.0,364.893063354,2_ND,training,03,1_A,60.0,10001,ignore,1.0,700.0,2.24566756541
60,2_23_2,23,2.0,368.565316687,2_ND,training,03,1_A,61.0,00001,ignore,1.0,800.0,1.46370938036
61,2_23_2,23,2.0,372.722012224,2_ND,training,03,1_A,62.0,01000,kill,1.0,900.0,1.95420909976
62,2_23_2,23,2.0,377.284956934,2_ND,training,03,1_A,63.0,10011,ignore,1.0,1000.0,2.35206888774
63,2_23_2,23,2.0,380.847833377,2_ND,training,03,1_A,64.0,00100,ignore,1.0,1100.0,1.34991906152
64,2_23_2,23,2.0,384.44196479,2_ND,training,03,1_A,65.0,10000,ignore,1.0,1200.0,1.3804285032
65,2_23_2,23,2.0,387.692271065,2_ND,training,03,1_A,66.0,00000,ignore,1.0,1300.0,1.04220036619
66,2_23_2,23,2.0,392.364687099,2_ND,training,03,1_A,67.0,11011,kill,0.0,1200.0,2.47818984519
67,2_23_2,23,2.0,398.005877747,2_ND,training,03,1_A,68.0,01010,kill,1.0,1300.0,3.4552147508
68,2_23_2,23,2.0,400.943669888,2_ND,training,03,1_A,69.0,10011,ignore,1.0,1400.0,0.728690110714
69,2_23_2,23,2.0,404.912863772,2_ND,training,03,1_A,70.0,00101,ignore,1.0,1500.0,1.75200369322
70,2_23_2,23,2.0,408.694508784,2_ND,training,03,1_A,71.0,10111,ignore,1.0,1600.0,1.57477643429
71,2_23_2,23,2.0,412.60117993,2_ND,training,03,1_A,72.0,10100,ignore,1.0,1700.0,1.69236578448
72,2_23_2,23,2.0,416.398531929,2_ND,training,03,1_A,73.0,11000,kill,1.0,1800.0,1.57237174643
73,2_23_2,23,2.0,420.539455626,2_ND,training,03,1_A,74.0,01011,ignore,0.0,1700.0,1.92157941401
74,2_23_2,23,2.0,423.477272229,2_ND,training,03,1_A,75.0,10110,ignore,1.0,1800.0,0.720963479408
75,2_23_2,23,2.0,426.790146469,2_ND,training,03,1_A,76.0,11100,kill,1.0,1900.0,1.11317961801
76,2_23_2,23,2.0,430.071754077,2_ND,training,03,1_A,77.0,10010,ignore,1.0,2000.0,1.07414084462
77,2_23_2,23,2.0,434.103446236,2_ND,training,03,1_A,78.0,11001,kill,0.0,1900.0,1.8195977794
78,2_23_2,23,2.0,438.088155675,2_ND,training,03,1_A,79.0,01100,ignore,0.0,1800.0,1.78317844895
79,2_23_2,23,2.0,441.072935941,2_ND,training,03,1_A,80.0,00111,ignore,1.0,1900.0,0.772916001187
80,2_23_2,23,2.0,446.026510446,2_ND,training,03,1_A,81.0,01000,kill,1.0,2000.0,2.74700032683
81,2_23_2,23,2.0,450.214427957,2_ND,training,03,1_A,82.0,01101,kill,1.0,2100.0,2.00116593512
82,2_23_2,23,2.0,454.167957236,2_ND,training,03,1_A,83.0,01111,ignore,0.0,2000.0,1.74196112052
83,2_23_2,23,2.0,457.152703368,2_ND,training,03,1_A,84.0,10001,ignore,1.0,2100.0,0.772595433027
84,2_23_2,23,2.0,460.387349874,2_ND,training,03,1_A,85.0,00011,ignore,1.0,2200.0,1.02631617123
85,2_23_2,23,2.0,463.778402922,2_ND,training,03,1_A,86.0,11101,kill,0.0,2100.0,1.17464962924
86,2_23_2,23,2.0,472.466756058,2_ND,training,03,1_A,87.0,11110,kill,1.0,2200.0,6.50105941092
87,2_23_2,23,2.0,477.186003772,2_ND,training,03,1_A,88.0,01110,ignore,0.0,2100.0,2.52150722217
88,2_23_2,23,2.0,480.186228767,2_ND,training,03,1_A,89.0,00110,ignore,1.0,2200.0,0.7930466576
89,2_23_2,23,2.0,483.389728678,2_ND,training,03,1_A,90.0,00001,ignore,1.0,2300.0,1.01526325416
90,2_23_2,23,2.0,486.796398259,2_ND,training,03,1_A,91.0,00010,ignore,1.0,2400.0,1.2124652943
91,2_23_2,23,2.0,491.265616747,2_ND,training,03,1_A,92.0,11111,kill,0.0,2300.0,2.25688233101
92,2_23_2,23,2.0,494.328696141,2_ND,training,03,1_A,93.0,10101,ignore,1.0,2400.0,0.866414668425
93,2_23_2,23,2.0,498.672653545,2_ND,training,03,1_A,94.0,01001,kill,1.0,2500.0,2.1250067911
94,2_23_2,23,2.0,501.626065064,2_ND,training,03,1_A,95.0,00100,ignore,1.0,2600.0,0.740190742322
95,2_23_2,23,2.0,506.595360494,2_ND,training,03,1_A,96.0,11010,ignore,0.0,2500.0,2.76337717845
96,2_23_2,23,2.0,510.73641788,2_ND,training,03,1_A,97.0,11011,kill,0.0,2400.0,1.9369851745
97,2_23_2,23,2.0,516.862052154,2_ND,training,03,1_A,98.0,11110,kill,1.0,2500.0,3.93672206399
98,2_23_2,23,2.0,520.002816278,2_ND,training,03,1_A,99.0,10000,ignore,1.0,2600.0,0.95049397932
99,2_23_2,23,2.0,524.425311174,2_ND,training,03,1_A,100.0,01110,kill,1.0,2700.0,2.23016111181
100,2_23_2,23,2.0,528.847621467,2_ND,training,03,1_A,101.0,11101,kill,0.0,2600.0,2.19256759736
101,2_23_2,23,2.0,531.957353057,2_ND,training,03,1_A,102.0,10101,ignore,1.0,2700.0,0.876231392753
102,2_23_2,23,2.0,534.926383954,2_ND,training,03,1_A,103.0,10100,ignore,1.0,2800.0,0.758291323355
103,2_23_2,23,2.0,537.848575776,2_ND,training,03,1_A,104.0,00101,ignore,1.0,2900.0,0.716125374861
104,2_23_2,23,2.0,542.130232308,2_ND,training,03,1_A,105.0,01011,ignore,0.0,2800.0,2.07781671181
105,2_23_2,23,2.0,545.661961871,2_ND,training,03,1_A,106.0,11100,kill,1.0,2900.0,1.31020729411
106,2_23_2,23,2.0,548.927808164,2_ND,training,03,1_A,107.0,10001,ignore,1.0,3000.0,1.0369813914
107,2_23_2,23,2.0,552.10014043,2_ND,training,03,1_A,108.0,00100,ignore,1.0,3100.0,0.927768057701
108,2_23_2,23,2.0,556.022448304,2_ND,training,03,1_A,109.0,11111,ignore,1.0,3200.0,1.71982314422
109,2_23_2,23,2.0,559.600904019,2_ND,training,03,1_A,110.0,00010,ignore,1.0,3300.0,1.35046604694
110,2_23_2,23,2.0,562.491805032,2_ND,training,03,1_A,111.0,10010,ignore,1.0,3400.0,0.693789141244
111,2_23_2,23,2.0,565.664103164,2_ND,training,03,1_A,112.0,00110,ignore,1.0,3500.0,0.967818597675
112,2_23_2,23,2.0,569.039328622,2_ND,training,03,1_A,113.0,00111,ignore,1.0,3600.0,1.1663927947
113,2_23_2,23,2.0,572.539746612,2_ND,training,03,1_A,114.0,01001,kill,1.0,3700.0,1.28396479382
114,2_23_2,23,2.0,578.290312157,2_ND,training,03,1_A,115.0,01101,ignore,0.0,3600.0,3.5420198866
115,2_23_2,23,2.0,581.415664547,2_ND,training,03,1_A,116.0,10110,ignore,1.0,3700.0,0.915001366752
116,2_23_2,23,2.0,584.275313436,2_ND,training,03,1_A,117.0,00000,ignore,1.0,3800.0,0.642854074928
117,2_23_2,23,2.0,587.541334661,2_ND,training,03,1_A,118.0,10011,ignore,1.0,3900.0,1.07927277961
118,2_23_2,23,2.0,590.666578963,2_ND,training,03,1_A,119.0,00001,ignore,1.0,4000.0,0.896470706698
119,2_23_2,23,2.0,593.932514571,2_ND,training,03,1_A,120.0,00011,ignore,1.0,4100.0,1.06598896984
120,2_23_2,23,2.0,597.12038913,2_ND,training,03,1_A,121.0,10111,ignore,1.0,4200.0,0.972415209437
121,2_23_2,23,2.0,600.620685663,2_ND,training,03,1_A,122.0,01000,kill,1.0,4300.0,1.29025413062
122,2_23_2,23,2.0,604.683719546,2_ND,training,03,1_A,123.0,11001,ignore,1.0,4400.0,1.86828915305
123,2_23_2,23,2.0,609.512243741,2_ND,training,03,1_A,124.0,11010,ignore,0.0,4300.0,2.6218231539
124,2_23_2,23,2.0,613.981676699,2_ND,training,03,1_A,125.0,01111,kill,1.0,4400.0,2.25670284697
125,2_23_2,23,2.0,618.763384005,2_ND,training,03,1_A,126.0,11000,ignore,0.0,4300.0,2.58669235384
126,2_23_2,23,2.0,624.248202813,2_ND,training,03,1_A,127.0,01100,ignore,0.0,4200.0,3.287256093
127,2_23_2,23,2.0,629.780041318,2_ND,training,03,1_A,128.0,01010,kill,1.0,4300.0,3.3356627384
128,2_23_2,23,2.0,634.686805193,2_ND,training,03,1_A,129.0,11100,kill,1.0,4400.0,2.71831672987
129,2_23_2,23,2.0,639.781113956,2_ND,training,03,1_A,130.0,11101,ignore,1.0,4500.0,2.87735295465
130,2_23_2,23,2.0,643.0158128,2_ND,training,03,1_A,131.0,10001,ignore,1.0,4600.0,1.02178128377
131,2_23_2,23,2.0,646.313066239,2_ND,training,03,1_A,132.0,00001,ignore,1.0,4700.0,1.08917995707
132,2_23_2,23,2.0,649.532139447,2_ND,training,03,1_A,133.0,00000,ignore,1.0,4800.0,1.01887170817
133,2_23_2,23,2.0,654.92337909,2_ND,training,03,1_A,134.0,01010,ignore,0.0,4700.0,3.19220407818
134,2_23_2,23,2.0,658.954879818,2_ND,training,03,1_A,135.0,00100,ignore,1.0,4800.0,1.81891482985
135,2_23_2,23,2.0,662.408455604,2_ND,training,03,1_A,136.0,01101,kill,1.0,4900.0,1.2635294981
136,2_23_2,23,2.0,666.987050127,2_ND,training,03,1_A,137.0,10100,ignore,1.0,5000.0,2.36982728288
137,2_23_2,23,2.0,670.362580224,2_ND,training,03,1_A,138.0,10000,ignore,1.0,5100.0,1.17547138737
138,2_23_2,23,2.0,674.722284721,2_ND,training,03,1_A,139.0,11010,kill,1.0,5200.0,2.15757219255
139,2_23_2,23,2.0,678.847675796,2_ND,training,03,1_A,140.0,01001,kill,1.0,5300.0,1.91548577454
140,2_23_2,23,2.0,682.472969448,2_ND,training,03,1_A,141.0,11011,ignore,1.0,5400.0,1.4441356649
141,2_23_2,23,2.0,685.676452007,2_ND,training,03,1_A,142.0,10010,ignore,1.0,5500.0,0.990835220855
142,2_23_2,23,2.0,688.895501891,2_ND,training,03,1_A,143.0,00011,ignore,1.0,5600.0,1.020360487
143,2_23_2,23,2.0,692.239735206,2_ND,training,03,1_A,144.0,10111,ignore,1.0,5700.0,1.12884280014
144,2_23_2,23,2.0,695.365061712,2_ND,training,03,1_A,145.0,10110,ignore,1.0,5800.0,0.920859486755
145,2_23_2,23,2.0,698.427867186,2_ND,training,03,1_A,146.0,00101,ignore,1.0,5900.0,0.84063353598
146,2_23_2,23,2.0,702.615733212,2_ND,training,03,1_A,147.0,01110,kill,1.0,6000.0,2.00484777564
147,2_23_2,23,2.0,705.647357389,2_ND,training,03,1_A,148.0,10101,ignore,1.0,6100.0,0.833522725495
148,2_23_2,23,2.0,708.585127913,2_ND,training,03,1_A,149.0,00010,ignore,1.0,6200.0,0.750055537651
149,2_23_2,23,2.0,712.788727947,2_ND,training,03,1_A,150.0,01111,kill,1.0,6300.0,1.99736747266
150,2_23_2,23,2.0,715.835910347,2_ND,training,03,1_A,151.0,00110,ignore,1.0,6400.0,0.841954208531
151,2_23_2,23,2.0,720.08639127,2_ND,training,03,1_A,152.0,11111,ignore,1.0,6500.0,2.07012819598
152,2_23_2,23,2.0,722.961648727,2_ND,training,03,1_A,153.0,00111,ignore,1.0,6600.0,0.663824409431
153,2_23_2,23,2.0,727.102719482,2_ND,training,03,1_A,154.0,01100,kill,1.0,6700.0,1.9473010977
154,2_23_2,23,2.0,730.149922361,2_ND,training,03,1_A,155.0,10011,ignore,1.0,6800.0,0.825084415808
155,2_23_2,23,2.0,734.025302414,2_ND,training,03,1_A,156.0,11110,ignore,0.0,6700.0,1.68590492807
156,2_23_2,23,2.0,738.228893346,2_ND,training,03,1_A,157.0,01000,ignore,0.0,6600.0,2.00790497757
157,2_23_2,23,2.0,743.245063976,2_ND,training,03,1_A,158.0,11001,ignore,1.0,6700.0,2.82001136068
158,2_23_2,23,2.0,747.307960757,2_ND,training,03,1_A,159.0,11000,kill,1.0,6800.0,1.90436430651
159,2_23_2,23,2.0,751.964811458,2_ND,training,03,1_A,160.0,01011,kill,1.0,6900.0,2.4408981256
160,2_23_2,23,2.0,756.918299208,2_ND,training,03,1_A,161.0,11001,ignore,1.0,7000.0,2.77162718634
161,2_23_2,23,2.0,760.356152078,2_ND,training,03,1_A,162.0,11011,kill,0.0,6900.0,1.25823884347
162,2_23_2,23,2.0,765.091084308,2_ND,training,03,1_A,163.0,01001,ignore,0.0,6800.0,2.5489469464
163,2_23_2,23,2.0,769.888435169,2_ND,training,03,1_A,164.0,01000,ignore,0.0,6700.0,2.61244845523
164,2_23_2,23,2.0,774.560765586,2_ND,training,03,1_A,165.0,01100,kill,1.0,6800.0,2.48838402643
165,2_23_2,23,2.0,779.12372139,2_ND,training,03,1_A,166.0,11110,ignore,0.0,6700.0,2.37770893606
166,2_23_2,23,2.0,782.405482882,2_ND,training,03,1_A,167.0,00001,ignore,1.0,6800.0,1.06160085538
167,2_23_2,23,2.0,785.468198757,2_ND,training,03,1_A,168.0,10001,ignore,1.0,6900.0,0.857215756025
168,2_23_2,23,2.0,788.656011876,2_ND,training,03,1_A,169.0,00010,ignore,1.0,7000.0,0.971993094842
169,2_23_2,23,2.0,793.500212622,2_ND,training,03,1_A,170.0,11000,kill,1.0,7100.0,2.66639891024
170,2_23_2,23,2.0,797.35977191,2_ND,training,03,1_A,171.0,01111,kill,1.0,7200.0,1.65244950198
171,2_23_2,23,2.0,802.266838433,2_ND,training,03,1_A,172.0,11101,ignore,1.0,7300.0,2.71134558129
172,2_23_2,23,2.0,806.392219836,2_ND,training,03,1_A,173.0,10101,ignore,1.0,7400.0,1.91749423219
173,2_23_2,23,2.0,809.5487942,2_ND,training,03,1_A,174.0,10110,ignore,1.0,7500.0,0.966462085206
174,2_23_2,23,2.0,812.533460119,2_ND,training,03,1_A,175.0,10010,ignore,1.0,7600.0,0.789418861411
175,2_23_2,23,2.0,815.361919745,2_ND,training,03,1_A,176.0,10000,ignore,1.0,7700.0,0.611027942905
176,2_23_2,23,2.0,818.456014607,2_ND,training,03,1_A,177.0,10011,ignore,1.0,7800.0,0.904741763432
177,2_23_2,23,2.0,821.331386695,2_ND,training,03,1_A,178.0,10111,ignore,1.0,7900.0,0.664959624625
178,2_23_2,23,2.0,824.987955227,2_ND,training,03,1_A,179.0,11111,kill,0.0,7800.0,1.46914055022
179,2_23_2,23,2.0,829.691588968,2_ND,training,03,1_A,180.0,01110,kill,1.0,7900.0,2.51984464818
180,2_23_2,23,2.0,832.645033483,2_ND,training,03,1_A,181.0,00100,ignore,1.0,8000.0,0.751335250295
181,2_23_2,23,2.0,837.645522727,2_ND,training,03,1_A,182.0,11100,kill,1.0,8100.0,2.80713288332
182,2_23_2,23,2.0,840.817692859,2_ND,training,03,1_A,183.0,01101,ignore,0.0,8000.0,0.971185558902
