,unique_id,pair_id,sbj_id,wall_time,condition,block,rule_id,rule_num,trial,stimulus,choice,correct,points,reaction_time
0,2_45_1,45,1.0,35.7921701547,2_ND,training,05,1_A,1.0,00010,kill,1.0,100.0,7.89758704211
1,2_45_1,45,1.0,40.38619161,2_ND,training,05,1_A,2.0,10111,kill,0.0,0.0,2.47277989529
2,2_45_1,45,1.0,46.277136395,2_ND,training,05,1_A,3.0,00100,ignore,0.0,0.0,3.75693572245
3,2_45_1,45,1.0,53.5587482152,2_ND,training,05,1_A,4.0,10100,kill,0.0,0.0,5.18140674733
4,2_45_1,45,1.0,63.6373876012,2_ND,training,05,1_A,5.0,00011,kill,0.0,0.0,7.95587405177
5,2_45_1,45,1.0,70.8565416772,2_ND,training,05,1_A,6.0,10011,ignore,1.0,100.0,5.11301459052
6,2_45_1,45,1.0,76.4505766031,2_ND,training,05,1_A,7.0,10110,kill,0.0,0.0,3.49923699035
7,2_45_1,45,1.0,84.4822532102,2_ND,training,05,1_A,8.0,11101,ignore,1.0,100.0,5.92680720071
8,2_45_1,45,1.0,89.9825437889,2_ND,training,05,1_A,9.0,01000,ignore,0.0,0.0,3.39092874856
9,2_45_1,45,1.0,98.9517523885,2_ND,training,05,1_A,10.0,00101,ignore,1.0,100.0,6.83773616736
10,2_45_1,45,1.0,106.952188257,2_ND,training,05,1_A,11.0,00001,kill,0.0,0.0,5.88841328631
11,2_45_1,45,1.0,110.983629129,2_ND,training,05,1_A,12.0,11000,ignore,0.0,0.0,1.92237507361
12,2_45_1,45,1.0,122.531115014,2_ND,training,05,1_A,13.0,01100,ignore,0.0,0.0,9.45367193985
13,2_45_1,45,1.0,127.328238157,2_ND,training,05,1_A,14.0,11110,kill,0.0,0.0,2.70375564961
14,2_45_1,45,1.0,147.563642189,2_ND,training,05,1_A,15.0,01111,ignore,1.0,100.0,18.1481553704
15,2_45_1,45,1.0,153.360844551,2_ND,training,05,1_A,16.0,10001,kill,0.0,0.0,3.7310123172
16,2_45_1,45,1.0,160.126854925,2_ND,training,05,1_A,17.0,11001,ignore,1.0,100.0,4.70284510551
17,2_45_1,45,1.0,169.252309555,2_ND,training,05,1_A,18.0,11111,ignore,1.0,200.0,7.08383644717
18,2_45_1,45,1.0,176.346448397,2_ND,training,05,1_A,19.0,10010,kill,1.0,300.0,5.04696598625
19,2_45_1,45,1.0,180.549781008,2_ND,training,05,1_A,20.0,11010,kill,1.0,400.0,2.14982475474
20,2_45_1,45,1.0,185.253182254,2_ND,training,05,1_A,21.0,00111,ignore,1.0,500.0,2.66692175158
21,2_45_1,45,1.0,189.175231469,2_ND,training,05,1_A,22.0,00110,kill,1.0,600.0,1.85918029863
22,2_45_1,45,1.0,194.284865275,2_ND,training,05,1_A,23.0,10000,kill,1.0,700.0,3.07537630905
23,2_45_1,45,1.0,197.73818634,2_ND,training,05,1_A,24.0,01101,ignore,1.0,800.0,1.38544463674
24,2_45_1,45,1.0,200.644591131,2_ND,training,05,1_A,25.0,10101,ignore,1.0,900.0,0.836187376441
25,2_45_1,45,1.0,206.81680103,2_ND,training,05,1_A,26.0,01011,ignore,1.0,1000.0,4.14301379511
26,2_45_1,45,1.0,210.441975987,2_ND,training,05,1_A,27.0,11011,ignore,1.0,1100.0,1.60406855091
27,2_45_1,45,1.0,213.551545969,2_ND,training,05,1_A,28.0,01110,kill,1.0,1200.0,1.06343564099
28,2_45_1,45,1.0,216.692326541,2_ND,training,05,1_A,29.0,11100,kill,0.0,1100.0,1.12883573515
29,2_45_1,45,1.0,222.301974139,2_ND,training,05,1_A,30.0,00000,kill,1.0,1200.0,3.55951379062
30,2_45_1,45,1.0,226.692831366,2_ND,training,05,1_A,31.0,01010,kill,1.0,1300.0,2.36438922665
31,2_45_1,45,1.0,230.333673839,2_ND,training,05,1_A,32.0,01001,ignore,1.0,1400.0,1.60822517348
32,2_45_1,45,1.0,233.443161714,2_ND,training,05,1_A,33.0,01001,ignore,1.0,1500.0,1.06775198562
33,2_45_1,45,1.0,236.84962135,2_ND,training,05,1_A,34.0,10011,ignore,1.0,1600.0,1.3653988754
34,2_45_1,45,1.0,241.349869592,2_ND,training,05,1_A,35.0,00001,ignore,1.0,1700.0,2.45783658059
35,2_45_1,45,1.0,244.771934523,2_ND,training,05,1_A,36.0,01100,kill,1.0,1800.0,1.40316769278
36,2_45_1,45,1.0,248.037727764,2_ND,training,05,1_A,37.0,00101,ignore,1.0,1900.0,1.20572395151
37,2_45_1,45,1.0,251.991045942,2_ND,training,05,1_A,38.0,11010,kill,1.0,2000.0,1.93843419771
38,2_45_1,45,1.0,255.475638215,2_ND,training,05,1_A,39.0,10010,kill,1.0,2100.0,1.47314680703
39,2_45_1,45,1.0,258.366361377,2_ND,training,05,1_A,40.0,10000,kill,1.0,2200.0,0.858118050648
40,2_45_1,45,1.0,265.226098458,2_ND,training,05,1_A,41.0,00011,ignore,1.0,2300.0,4.83706199911
41,2_45_1,45,1.0,268.07001696,2_ND,training,05,1_A,42.0,11100,kill,0.0,2200.0,0.821005120088
42,2_45_1,45,1.0,271.085808277,2_ND,training,05,1_A,43.0,01101,ignore,1.0,2300.0,0.984522033305
43,2_45_1,45,1.0,275.50788315,2_ND,training,05,1_A,44.0,11101,ignore,1.0,2400.0,2.39805530361
44,2_45_1,45,1.0,281.64887412,2_ND,training,05,1_A,45.0,11110,kill,0.0,2300.0,4.13835523471
45,2_45_1,45,1.0,284.664646835,2_ND,training,05,1_A,46.0,00111,ignore,1.0,2400.0,0.965919864422
46,2_45_1,45,1.0,289.430489468,2_ND,training,05,1_A,47.0,10101,ignore,1.0,2500.0,2.715475016
47,2_45_1,45,1.0,293.321338676,2_ND,training,05,1_A,48.0,00010,kill,1.0,2600.0,1.8489519923
48,2_45_1,45,1.0,297.430944259,2_ND,training,05,1_A,49.0,10110,kill,0.0,2500.0,2.09099443346
49,2_45_1,45,1.0,301.868698836,2_ND,training,05,1_A,50.0,11001,ignore,1.0,2600.0,2.41073011589
50,2_45_1,45,1.0,305.759509236,2_ND,training,05,1_A,51.0,10100,ignore,1.0,2700.0,1.84502244448
51,2_45_1,45,1.0,309.853465905,2_ND,training,05,1_A,52.0,10111,ignore,1.0,2800.0,2.09600515216
52,2_45_1,45,1.0,314.916240527,2_ND,training,05,1_A,53.0,11011,ignore,1.0,2900.0,3.02374502713
53,2_45_1,45,1.0,319.197709303,2_ND,training,05,1_A,54.0,11000,ignore,0.0,2800.0,2.28312019952
54,2_45_1,45,1.0,322.135376322,2_ND,training,05,1_A,55.0,01011,ignore,1.0,2900.0,0.906874335291
55,2_45_1,45,1.0,328.495099291,2_ND,training,05,1_A,56.0,11111,ignore,1.0,3000.0,4.33118146865
56,2_45_1,45,1.0,332.370263984,2_ND,training,05,1_A,57.0,00000,kill,1.0,3100.0,1.84766331101
57,2_45_1,45,1.0,339.183153106,2_ND,training,05,1_A,58.0,01110,kill,1.0,3200.0,4.78610135744
58,2_45_1,45,1.0,342.386417723,2_ND,training,05,1_A,59.0,01010,kill,1.0,3300.0,1.20485478121
59,2_45_1,45,1.0,347.058566042,2_ND,training,05,1_A,60.0,00110,kill,1.0,3400.0,2.6497554777
60,2_45_1,45,1.0,350.949395686,2_ND,training,05,1_A,61.0,01000,kill,1.0,3500.0,1.86657209495
61,2_45_1,45,1.0,354.63708259,2_ND,training,05,1_A,62.0,10001,ignore,1.0,3600.0,1.68463999672
62,2_45_1,45,1.0,362.293741717,2_ND,training,05,1_A,63.0,00100,kill,1.0,3700.0,5.6373282667
63,2_45_1,45,1.0,367.090850748,2_ND,training,05,1_A,64.0,01111,ignore,1.0,3800.0,2.76514825928
64,2_45_1,45,1.0,370.106633405,2_ND,training,05,1_A,65.0,00111,ignore,1.0,3900.0,0.98518273103
65,2_45_1,45,1.0,375.669433686,2_ND,training,05,1_A,66.0,11110,ignore,1.0,4000.0,3.55055107321
66,2_45_1,45,1.0,379.779018742,2_ND,training,05,1_A,67.0,10010,ignore,0.0,3900.0,2.11680205625
67,2_45_1,45,1.0,383.544854961,2_ND,training,05,1_A,68.0,10100,ignore,1.0,4000.0,1.74786588221
68,2_45_1,45,1.0,387.310695028,2_ND,training,05,1_A,69.0,01010,kill,1.0,4100.0,1.76291792338
69,2_45_1,45,1.0,390.820170268,2_ND,training,05,1_A,70.0,00010,kill,1.0,4200.0,1.49696495993
70,2_45_1,45,1.0,395.08601258,2_ND,training,05,1_A,71.0,00110,kill,1.0,4300.0,2.23272179238
71,2_45_1,45,1.0,398.898713756,2_ND,training,05,1_A,72.0,10110,ignore,1.0,4400.0,1.79522026892
72,2_45_1,45,1.0,402.898904589,2_ND,training,05,1_A,73.0,10000,kill,1.0,4500.0,1.96734100598
73,2_45_1,45,1.0,406.35223752,2_ND,training,05,1_A,74.0,00011,ignore,1.0,4600.0,1.43681131884
74,2_45_1,45,1.0,412.024381029,2_ND,training,05,1_A,75.0,11010,kill,1.0,4700.0,3.69733341116
75,2_45_1,45,1.0,415.290193193,2_ND,training,05,1_A,76.0,01100,kill,1.0,4800.0,1.25663776702
76,2_45_1,45,1.0,418.915394129,2_ND,training,05,1_A,77.0,10001,ignore,1.0,4900.0,1.62792968124
77,2_45_1,45,1.0,421.774993938,2_ND,training,05,1_A,78.0,10011,ignore,1.0,5000.0,0.838751268475
78,2_45_1,45,1.0,425.384468023,2_ND,training,05,1_A,79.0,11101,ignore,1.0,5100.0,1.59451409211
79,2_45_1,45,1.0,431.884820502,2_ND,training,05,1_A,80.0,01000,kill,1.0,5200.0,4.50422269234
80,2_45_1,45,1.0,435.088113342,2_ND,training,05,1_A,81.0,11011,ignore,1.0,5300.0,1.20694367648
81,2_45_1,45,1.0,438.69769455,2_ND,training,05,1_A,82.0,00100,kill,1.0,5400.0,1.61223265797
82,2_45_1,45,1.0,441.94784465,2_ND,training,05,1_A,83.0,10101,ignore,1.0,5500.0,1.21592050588
83,2_45_1,45,1.0,444.979271732,2_ND,training,05,1_A,84.0,00101,ignore,1.0,5600.0,1.00321593013
84,2_45_1,45,1.0,447.729392646,2_ND,training,05,1_A,85.0,10111,ignore,1.0,5700.0,0.777251215233
85,2_45_1,45,1.0,450.620173539,2_ND,training,05,1_A,86.0,01001,ignore,1.0,5800.0,0.880434880222
86,2_45_1,45,1.0,455.714197881,2_ND,training,05,1_A,87.0,01110,ignore,0.0,5700.0,3.08271486467
87,2_45_1,45,1.0,459.151865541,2_ND,training,05,1_A,88.0,00000,kill,1.0,5800.0,1.39317704518
88,2_45_1,45,1.0,462.652051242,2_ND,training,05,1_A,89.0,11000,kill,1.0,5900.0,1.49430581196
89,2_45_1,45,1.0,465.464706554,2_ND,training,05,1_A,90.0,01101,ignore,1.0,6000.0,0.81611723985
90,2_45_1,45,1.0,471.155911833,2_ND,training,05,1_A,91.0,11100,ignore,1.0,6100.0,3.6925779912
91,2_45_1,45,1.0,474.140423924,2_ND,training,05,1_A,92.0,11111,ignore,1.0,6200.0,0.9642110307
92,2_45_1,45,1.0,476.796819414,2_ND,training,05,1_A,93.0,00001,ignore,1.0,6300.0,0.651112153115
93,2_45_1,45,1.0,479.406361172,2_ND,training,05,1_A,94.0,01111,ignore,1.0,6400.0,0.606218705059
94,2_45_1,45,1.0,482.078352977,2_ND,training,05,1_A,95.0,11001,ignore,1.0,6500.0,0.692836497201
95,2_45_1,45,1.0,485.453549743,2_ND,training,05,1_A,96.0,01011,ignore,1.0,6600.0,1.35066114674
96,2_45_1,45,1.0,488.93809134,2_ND,training,05,1_A,97.0,00000,kill,1.0,6700.0,1.46025710763
97,2_45_1,45,1.0,493.59456156,2_ND,training,05,1_A,98.0,00110,kill,1.0,6800.0,2.6476816566
98,2_45_1,45,1.0,496.532213183,2_ND,training,05,1_A,99.0,10111,ignore,1.0,6900.0,0.921116540663
99,2_45_1,45,1.0,499.563630002,2_ND,training,05,1_A,100.0,01000,kill,1.0,7000.0,1.03402176325
100,2_45_1,45,1.0,502.798208483,2_ND,training,05,1_A,101.0,01011,ignore,1.0,7100.0,1.22135330137
101,2_45_1,45,1.0,505.517087054,2_ND,training,05,1_A,102.0,01111,ignore,1.0,7200.0,0.705337796142
102,2_45_1,45,1.0,508.939151023,2_ND,training,05,1_A,103.0,01010,kill,1.0,7300.0,1.46091876753
103,2_45_1,45,1.0,513.251849312,2_ND,training,05,1_A,104.0,11100,kill,0.0,7200.0,2.31973247515
104,2_45_1,45,1.0,516.189550007,2_ND,training,05,1_A,105.0,01101,ignore,1.0,7300.0,0.926808804343
105,2_45_1,45,1.0,518.908392978,2_ND,training,05,1_A,106.0,00011,ignore,1.0,7400.0,0.70314530603
106,2_45_1,45,1.0,523.096114199,2_ND,training,05,1_A,107.0,11000,kill,1.0,7500.0,2.16801895882
107,2_45_1,45,1.0,525.877529093,2_ND,training,05,1_A,108.0,10001,ignore,1.0,7600.0,0.79003282962
108,2_45_1,45,1.0,529.221477423,2_ND,training,05,1_A,109.0,00010,kill,1.0,7700.0,1.29884801258
109,2_45_1,45,1.0,532.659144762,2_ND,training,05,1_A,110.0,10110,ignore,1.0,7800.0,1.40292522313
110,2_45_1,45,1.0,535.331136888,2_ND,training,05,1_A,111.0,10011,ignore,1.0,7900.0,0.655418555212
111,2_45_1,45,1.0,539.612612078,2_ND,training,05,1_A,112.0,10100,kill,0.0,7800.0,2.25778244186
112,2_45_1,45,1.0,543.722202907,2_ND,training,05,1_A,113.0,01001,ignore,1.0,7900.0,2.10836950065
113,2_45_1,45,1.0,546.097361507,2_ND,training,05,1_A,114.0,00111,ignore,1.0,8000.0,0.338895595647
114,2_45_1,45,1.0,548.816215062,2_ND,training,05,1_A,115.0,11001,ignore,1.0,8100.0,0.698888937357
115,2_45_1,45,1.0,553.488355684,2_ND,training,05,1_A,116.0,11010,kill,1.0,8200.0,2.68539242238
116,2_45_1,45,1.0,557.004164641,2_ND,training,05,1_A,117.0,00100,kill,1.0,8300.0,1.48480940474
117,2_45_1,45,1.0,560.894977286,2_ND,training,05,1_A,118.0,01100,kill,1.0,8400.0,1.9031276019
118,2_45_1,45,1.0,564.035800515,2_ND,training,05,1_A,119.0,10000,kill,1.0,8500.0,1.14416873322
119,2_45_1,45,1.0,566.910940513,2_ND,training,05,1_A,120.0,10101,ignore,1.0,8600.0,0.846786763981
120,2_45_1,45,1.0,573.567559229,2_ND,training,05,1_A,121.0,01110,kill,1.0,8700.0,4.66702117697
121,2_45_1,45,1.0,576.27084373,2_ND,training,05,1_A,122.0,00001,ignore,1.0,8800.0,0.706885624884
122,2_45_1,45,1.0,578.95851139,2_ND,training,05,1_A,123.0,11111,ignore,1.0,8900.0,0.692716224556
123,2_45_1,45,1.0,585.443139584,2_ND,training,05,1_A,124.0,11011,ignore,1.0,9000.0,4.48709939588
124,2_45_1,45,1.0,588.224588796,2_ND,training,05,1_A,125.0,11101,ignore,1.0,9100.0,0.749681838766
125,2_45_1,45,1.0,591.271594873,2_ND,training,05,1_A,126.0,10010,kill,1.0,9200.0,1.05347674536
126,2_45_1,45,1.0,595.287427564,2_ND,training,05,1_A,127.0,11110,ignore,1.0,9300.0,2.04159701544
127,2_45_1,45,1.0,599.131404117,2_ND,training,05,1_A,128.0,00101,ignore,1.0,9400.0,1.82014717523
128,2_45_1,45,1.0,601.584729672,2_ND,training,05,1_A,129.0,00101,ignore,1.0,9500.0,0.43175794345
129,2_45_1,45,1.0,604.116078496,2_ND,training,05,1_A,130.0,10001,ignore,1.0,9600.0,0.498911452396
130,2_45_1,45,1.0,608.194449434,2_ND,training,05,1_A,131.0,10110,ignore,1.0,9700.0,2.10155340939
131,2_45_1,45,1.0,611.194627437,2_ND,training,05,1_A,132.0,01011,ignore,1.0,9800.0,0.973605446718
132,2_45_1,45,1.0,613.951077258,2_ND,training,05,1_A,133.0,00001,ignore,1.0,9900.0,0.747697500512
133,2_45_1,45,1.0,616.951222227,2_ND,training,05,1_A,134.0,01000,kill,1.0,10000.0,1.01990015126
134,2_45_1,45,1.0,621.279576166,2_ND,training,05,1_A,135.0,00111,ignore,1.0,10100.0,2.30420062632
135,2_45_1,45,1.0,625.701697223,2_ND,training,05,1_A,136.0,01100,kill,1.0,10200.0,2.43320730899
136,2_45_1,45,1.0,628.717471542,2_ND,training,05,1_A,137.0,00000,kill,1.0,10300.0,0.986854360413
137,2_45_1,45,1.0,633.655222591,2_ND,training,05,1_A,138.0,00110,kill,1.0,10400.0,2.92049625455
138,2_45_1,45,1.0,636.702249195,2_ND,training,05,1_A,139.0,10011,ignore,1.0,10500.0,1.07237911477
139,2_45_1,45,1.0,639.155511887,2_ND,training,05,1_A,140.0,01101,ignore,1.0,10600.0,0.442470547638
140,2_45_1,45,1.0,642.952572167,2_ND,training,05,1_A,141.0,11100,kill,0.0,10500.0,1.81651526211
141,2_45_1,45,1.0,646.640248166,2_ND,training,05,1_A,142.0,11010,kill,1.0,10600.0,1.68482730131
142,2_45_1,45,1.0,650.499844768,2_ND,training,05,1_A,143.0,10010,kill,1.0,10700.0,1.85364679484
143,2_45_1,45,1.0,655.140739199,2_ND,training,05,1_A,144.0,10100,kill,0.0,10600.0,2.65697889231
144,2_45_1,45,1.0,658.06273838,2_ND,training,05,1_A,145.0,11011,ignore,1.0,10700.0,0.931942361502
145,2_45_1,45,1.0,660.719150227,2_ND,training,05,1_A,146.0,11111,ignore,1.0,10800.0,0.635555608296
146,2_45_1,45,1.0,664.016185811,2_ND,training,05,1_A,147.0,11000,kill,1.0,10900.0,1.30400337918
147,2_45_1,45,1.0,667.125715061,2_ND,training,05,1_A,148.0,00010,kill,1.0,11000.0,1.09654589797
148,2_45_1,45,1.0,670.282121776,2_ND,training,05,1_A,149.0,10101,ignore,1.0,11100.0,1.16267757053
149,2_45_1,45,1.0,672.751044929,2_ND,training,05,1_A,150.0,11001,ignore,1.0,11200.0,0.448773154891
150,2_45_1,45,1.0,675.751164881,2_ND,training,05,1_A,151.0,01010,kill,1.0,11300.0,1.02916403136
151,2_45_1,45,1.0,679.642009278,2_ND,training,05,1_A,152.0,11110,ignore,1.0,11400.0,1.91550734529
152,2_45_1,45,1.0,683.626590004,2_ND,training,05,1_A,153.0,10111,ignore,1.0,11500.0,1.97880314928
153,2_45_1,45,1.0,686.048614203,2_ND,training,05,1_A,154.0,11101,ignore,1.0,11600.0,0.458327613702
154,2_45_1,45,1.0,689.673784348,2_ND,training,05,1_A,155.0,01110,kill,1.0,11700.0,1.61431642161
155,2_45_1,45,1.0,692.736460828,2_ND,training,05,1_A,156.0,01111,ignore,1.0,11800.0,1.05793004045
156,2_45_1,45,1.0,696.127268984,2_ND,training,05,1_A,157.0,10000,kill,1.0,11900.0,1.39806652905
157,2_45_1,45,1.0,698.799278108,2_ND,training,05,1_A,158.0,00011,ignore,1.0,12000.0,0.650732733018
158,2_45_1,45,1.0,703.299527312,2_ND,training,05,1_A,159.0,00100,kill,1.0,12100.0,2.50224444789
159,2_45_1,45,1.0,707.315349419,2_ND,training,05,1_A,160.0,01001,ignore,1.0,12200.0,2.02251247308
160,2_45_1,45,1.0,710.081074987,2_ND,training,05,1_A,161.0,01001,ignore,1.0,12300.0,0.770613768938
161,2_45_1,45,1.0,712.90935548,2_ND,training,05,1_A,162.0,01011,ignore,1.0,12400.0,0.859067723439
162,2_45_1,45,1.0,716.581469161,2_ND,training,05,1_A,163.0,11000,kill,1.0,12500.0,1.6872269811
163,2_45_1,45,1.0,719.644107474,2_ND,training,05,1_A,164.0,01010,kill,1.0,12600.0,1.06502356061
164,2_45_1,45,1.0,722.28491595,2_ND,training,05,1_A,165.0,11111,ignore,1.0,12700.0,0.652468828539
165,2_45_1,45,1.0,725.019399496,2_ND,training,05,1_A,166.0,10111,ignore,1.0,12800.0,0.727605875207
166,2_45_1,45,1.0,728.01955569,2_ND,training,05,1_A,167.0,10000,kill,1.0,12900.0,1.01735421993
167,2_45_1,45,1.0,730.722822231,2_ND,training,05,1_A,168.0,00011,ignore,1.0,13000.0,0.702134695097
168,2_45_1,45,1.0,733.73862766,2_ND,training,05,1_A,169.0,11101,ignore,1.0,13100.0,1.01609568699
169,2_45_1,45,1.0,742.379666097,2_ND,training,05,1_A,170.0,10100,ignore,1.0,13200.0,6.63672497912
170,2_45_1,45,1.0,745.129810745,2_ND,training,05,1_A,171.0,00101,ignore,1.0,13300.0,0.73943332662
171,2_45_1,45,1.0,747.895616174,2_ND,training,05,1_A,172.0,00111,ignore,1.0,13400.0,0.788728753436
172,2_45_1,45,1.0,750.473826748,2_ND,training,05,1_A,173.0,01111,ignore,1.0,13500.0,0.571118016007
173,2_45_1,45,1.0,753.958444679,2_ND,training,05,1_A,174.0,01110,kill,1.0,13600.0,1.4901610563
174,2_45_1,45,1.0,760.693153696,2_ND,training,05,1_A,175.0,11010,kill,1.0,13700.0,4.78137544437
175,2_45_1,45,1.0,763.755789765,2_ND,training,05,1_A,176.0,10011,ignore,1.0,13800.0,1.07290382422
176,2_45_1,45,1.0,768.443535682,2_ND,training,05,1_A,177.0,11100,ignore,1.0,13900.0,2.72520779906
177,2_45_1,45,1.0,771.990602697,2_ND,training,05,1_A,178.0,11110,ignore,1.0,14000.0,1.5325069694
178,2_45_1,45,1.0,775.00640107,2_ND,training,05,1_A,179.0,00000,kill,1.0,14100.0,1.01236146195
179,2_45_1,45,1.0,778.365950205,2_ND,training,05,1_A,180.0,00110,kill,1.0,14200.0,1.37787804418
180,2_45_1,45,1.0,781.991110088,2_ND,training,05,1_A,181.0,10110,ignore,1.0,14300.0,1.64038415403
181,2_45_1,45,1.0,785.069424577,2_ND,training,05,1_A,182.0,00100,kill,1.0,14400.0,1.09273373625
182,2_45_1,45,1.0,788.428978202,2_ND,training,05,1_A,183.0,10101,ignore,1.0,14500.0,1.35812382373
183,2_45_1,45,1.0,791.74166238,2_ND,training,05,1_A,184.0,01100,kill,1.0,14600.0,1.30149080347
184,2_45_1,45,1.0,794.851219212,2_ND,training,05,1_A,185.0,00001,ignore,1.0,14700.0,1.12663811341
185,2_45_1,45,1.0,797.741963863,2_ND,training,05,1_A,186.0,00010,kill,1.0,14800.0,0.920732309656
186,2_45_1,45,1.0,800.679966362,2_ND,training,05,1_A,187.0,11011,ignore,1.0,14900.0,0.929721005952
187,2_45_1,45,1.0,803.539500423,2_ND,training,05,1_A,188.0,11001,ignore,1.0,15000.0,0.865971373187
188,2_45_1,45,1.0,806.742777227,2_ND,training,05,1_A,189.0,10010,kill,1.0,15100.0,1.22138601553
189,2_45_1,45,1.0,809.805427407,2_ND,training,05,1_A,190.0,01101,ignore,1.0,15200.0,1.08374119123
190,2_45_1,45,1.0,812.44625224,2_ND,training,05,1_A,191.0,10001,ignore,1.0,15300.0,0.637048592715
191,2_45_1,45,1.0,815.508880291,2_ND,training,05,1_A,192.0,01000,kill,1.0,15400.0,1.07402925544
192,2_45_1,45,1.0,819.024670966,2_ND,training,05,1_A,193.0,01100,kill,1.0,15500.0,1.53344766183
193,2_45_1,45,1.0,821.759185302,2_ND,training,05,1_A,194.0,01101,ignore,1.0,15600.0,0.741391685984
194,2_45_1,45,1.0,824.728109096,2_ND,training,05,1_A,195.0,11111,ignore,1.0,15700.0,1.02386497904
195,2_45_1,45,1.0,827.743866737,2_ND,training,05,1_A,196.0,00110,kill,1.0,15800.0,1.00396322415
196,2_45_1,45,1.0,831.056581062,2_ND,training,05,1_A,197.0,00111,ignore,1.0,15900.0,1.29744354883
197,2_45_1,45,1.0,834.134842953,2_ND,training,05,1_A,198.0,10000,kill,1.0,16000.0,1.09944334613
198,2_45_1,45,1.0,836.978765624,2_ND,training,05,1_A,199.0,01111,ignore,1.0,16100.0,0.853555708367
199,2_45_1,45,1.0,839.807039702,2_ND,training,05,1_A,200.0,01000,kill,1.0,16200.0,0.866558624417
200,2_45_1,45,1.0,843.072860847,2_ND,training,05,1_A,201.0,11000,kill,1.0,16300.0,1.31085475042
201,2_45_1,45,1.0,940.312334264,2_ND,test,05,2,0.0,10101,ignore,0.0,0.0,8.81821639839
202,2_45_1,45,1.0,945.406336155,2_ND,test,05,2,1.0,11011,kill,0.0,0.0,3.1386586425
203,2_45_1,45,1.0,964.548005783,2_ND,test,05,2,2.0,01010,ignore,1.0,100.0,17.1622769824
204,2_45_1,45,1.0,970.235773831,2_ND,test,05,2,3.0,11001,kill,0.0,0.0,3.69258504719
205,2_45_1,45,1.0,990.461971394,2_ND,test,05,2,4.0,01110,ignore,0.0,0.0,18.2777993378
206,2_45_1,45,1.0,1014.52574765,2_ND,test,05,2,5.0,11110,ignore,0.0,0.0,22.067672766
207,2_45_1,45,1.0,1029.24526286,2_ND,test,05,2,6.0,10100,ignore,0.0,0.0,12.7673651247
208,2_45_1,45,1.0,1045.57424863,2_ND,test,05,2,7.0,00100,kill,1.0,100.0,14.3163019786
209,2_45_1,45,1.0,1058.79370772,2_ND,test,05,2,8.0,00001,ignore,1.0,200.0,11.2352956269
210,2_45_1,45,1.0,1064.48151778,2_ND,test,05,2,9.0,10011,ignore,1.0,300.0,3.72902477168
211,2_45_1,45,1.0,1081.66994076,2_ND,test,05,2,10.0,01011,ignore,1.0,400.0,15.224293727
212,2_45_1,45,1.0,1087.84210671,2_ND,test,05,2,11.0,10010,ignore,1.0,500.0,4.21125072003
213,2_45_1,45,1.0,1097.90513343,2_ND,test,05,2,12.0,11010,ignore,1.0,600.0,8.07884368918
214,2_45_1,45,1.0,1111.46837214,2_ND,test,05,2,13.0,00101,kill,1.0,700.0,11.5393294752
215,2_45_1,45,1.0,1116.3748786,2_ND,test,05,2,14.0,11100,ignore,1.0,800.0,2.94794696201
216,2_45_1,45,1.0,1128.32864484,2_ND,test,05,2,15.0,11101,kill,0.0,700.0,9.97051363796
217,2_45_1,45,1.0,1136.87596138,2_ND,test,05,2,16.0,00000,ignore,1.0,800.0,6.57981645432
218,2_45_1,45,1.0,1143.93883639,2_ND,test,05,2,17.0,10111,ignore,0.0,700.0,5.09473988395
219,2_45_1,45,1.0,1147.9390548,2_ND,test,05,2,18.0,00011,kill,0.0,600.0,2.0136841403
220,2_45_1,45,1.0,1161.3303325,2_ND,test,05,2,19.0,01001,kill,0.0,500.0,11.4197351693
221,2_45_1,45,1.0,1166.83066446,2_ND,test,05,2,20.0,10110,ignore,0.0,400.0,3.50459313208
222,2_45_1,45,1.0,1174.73733513,2_ND,test,05,2,21.0,00010,ignore,1.0,500.0,5.94522783808
223,2_45_1,45,1.0,1178.42502524,2_ND,test,05,2,22.0,10001,ignore,1.0,600.0,1.70216003254
224,2_45_1,45,1.0,1182.11272369,2_ND,test,05,2,23.0,10100,kill,1.0,700.0,1.67853367442
225,2_45_1,45,1.0,1186.20668645,2_ND,test,05,2,24.0,00000,ignore,1.0,800.0,2.13806401455
226,2_45_1,45,1.0,1189.44120528,2_ND,test,05,2,25.0,01000,ignore,1.0,900.0,1.26672367056
227,2_45_1,45,1.0,1192.9101387,2_ND,test,05,2,26.0,11110,kill,1.0,1000.0,1.51057950246
228,2_45_1,45,1.0,1196.09784131,2_ND,test,05,2,27.0,11101,kill,0.0,900.0,1.22503845517
229,2_45_1,45,1.0,1205.39518095,2_ND,test,05,2,28.0,00100,ignore,0.0,800.0,7.30160594448
230,2_45_1,45,1.0,1209.23910875,2_ND,test,05,2,29.0,01010,ignore,1.0,900.0,1.90866623732
231,2_45_1,45,1.0,1212.31743222,2_ND,test,05,2,30.0,10101,kill,1.0,1000.0,1.0693405467
232,2_45_1,45,1.0,1218.4114819,2_ND,test,05,2,31.0,01100,kill,0.0,900.0,4.09608405101
233,2_45_1,45,1.0,1224.50554569,2_ND,test,05,2,32.0,11011,ignore,1.0,1000.0,4.1451681187
234,2_45_1,45,1.0,1239.17822513,2_ND,test,05,2,33.0,00111,kill,1.0,1100.0,12.6872782974
235,2_45_1,45,1.0,1247.00675323,2_ND,test,05,2,34.0,01101,kill,0.0,1000.0,5.88194742899
236,2_45_1,45,1.0,1252.14762296,2_ND,test,05,2,35.0,11000,ignore,1.0,1100.0,3.13662459155
237,2_45_1,45,1.0,1255.49155943,2_ND,test,05,2,36.0,00110,kill,1.0,1200.0,1.35992342321
238,2_45_1,45,1.0,1258.33544842,2_ND,test,05,2,37.0,10001,ignore,1.0,1300.0,0.863615633007
239,2_45_1,45,1.0,1260.99184102,2_ND,test,05,2,38.0,01011,kill,0.0,1200.0,0.675499917252
240,2_45_1,45,1.0,1267.72654651,2_ND,test,05,2,39.0,10110,kill,1.0,1300.0,4.76777918328
241,2_45_1,45,1.0,1271.75803325,2_ND,test,05,2,40.0,10011,kill,0.0,1200.0,2.05226952875
242,2_45_1,45,1.0,1283.11801216,2_ND,test,05,2,41.0,01110,kill,1.0,1300.0,9.4002179661
243,2_45_1,45,1.0,1287.04008607,2_ND,test,05,2,42.0,01111,ignore,0.0,1200.0,1.97755423815
244,2_45_1,45,1.0,1290.41529246,2_ND,test,05,2,43.0,11010,kill,0.0,1100.0,1.42553038632
245,2_45_1,45,1.0,1295.25928633,2_ND,test,05,2,44.0,10000,ignore,1.0,1200.0,2.87900315467
246,2_45_1,45,1.0,1298.94696073,2_ND,test,05,2,45.0,01001,ignore,1.0,1300.0,1.72153611579
247,2_45_1,45,1.0,1307.15053324,2_ND,test,05,2,46.0,10010,ignore,1.0,1400.0,6.19367102898
248,2_45_1,45,1.0,1322.46384733,2_ND,test,05,2,47.0,00011,ignore,1.0,1500.0,13.3488823945
249,2_45_1,45,1.0,1329.83920317,2_ND,test,05,2,48.0,11100,ignore,1.0,1600.0,5.37009624378
250,2_45_1,45,1.0,1337.21462381,2_ND,test,05,2,49.0,00101,ignore,0.0,1500.0,5.37347991415
251,2_45_1,45,1.0,1345.73067716,2_ND,test,05,2,50.0,00010,ignore,1.0,1600.0,6.54596243132
252,2_45_1,45,1.0,1351.05907632,2_ND,test,05,2,51.0,10111,kill,1.0,1700.0,3.33335535659
253,2_45_1,45,1.0,1359.07517553,2_ND,test,05,3,0.0,11001,ignore,0.0,1600.0,6.0619275824
254,2_45_1,45,1.0,1370.82579005,2_ND,test,05,3,1.0,11111,kill,0.0,1500.0,9.74838642222
255,2_45_1,45,1.0,1378.98248189,2_ND,test,05,3,2.0,00001,ignore,1.0,1600.0,6.18171849402
256,2_45_1,45,1.0,1387.26416331,2_ND,test,05,3,3.0,11011,kill,1.0,1700.0,6.32244967472
257,2_45_1,45,1.0,1396.4990205,2_ND,test,05,3,4.0,00000,ignore,1.0,1800.0,7.24693288722
258,2_45_1,45,1.0,1403.89643146,2_ND,test,05,3,5.0,11111,ignore,1.0,1900.0,5.47286841595
259,2_45_1,45,1.0,1411.75622948,2_ND,test,05,3,6.0,11101,kill,0.0,1800.0,5.9057373579
260,2_45_1,45,1.0,1423.44430414,2_ND,test,05,3,7.0,01101,ignore,1.0,1900.0,9.69591804269
261,2_45_1,45,1.0,1429.11647427,2_ND,test,05,3,8.0,01111,kill,0.0,1800.0,3.73375774075
262,2_45_1,45,1.0,1438.55447421,2_ND,test,05,3,9.0,01011,kill,0.0,1700.0,7.48568049941
263,2_45_1,45,1.0,1449.50815833,2_ND,test,05,3,10.0,10100,ignore,0.0,1600.0,9.004838809
264,2_45_1,45,1.0,1453.14898317,2_ND,test,05,3,11.0,00101,ignore,1.0,1700.0,1.66860139914
265,2_45_1,45,1.0,1456.33669252,2_ND,test,05,3,12.0,10010,kill,1.0,1800.0,1.17643644024
266,2_45_1,45,1.0,1459.63370084,2_ND,test,05,3,13.0,01100,ignore,1.0,1900.0,1.35906066744
267,2_45_1,45,1.0,1462.68077908,2_ND,test,05,3,14.0,11100,ignore,0.0,1800.0,1.09622709528
268,2_45_1,45,1.0,1470.11867382,2_ND,test,05,3,15.0,01000,ignore,1.0,1900.0,5.45106474966
269,2_45_1,45,1.0,1477.16588292,2_ND,test,05,3,16.0,01110,kill,0.0,1800.0,5.09216508719
270,2_45_1,45,1.0,1492.52605298,2_ND,test,05,3,17.0,10000,ignore,0.0,1700.0,13.3795955375
271,2_45_1,45,1.0,1510.76139704,2_ND,test,05,3,18.0,10110,ignore,0.0,1600.0,16.3069778018
272,2_45_1,45,1.0,1518.37120083,2_ND,test,05,3,19.0,10101,ignore,1.0,1700.0,5.61629338314
273,2_45_1,45,1.0,1521.98073232,2_ND,test,05,3,20.0,00011,ignore,1.0,1800.0,1.6430077013
274,2_45_1,45,1.0,1524.91847728,2_ND,test,05,3,21.0,10111,ignore,1.0,1900.0,0.984649682672
275,2_45_1,45,1.0,1527.37169154,2_ND,test,05,3,22.0,11001,ignore,0.0,1800.0,0.480020308434
276,2_45_1,45,1.0,1533.29390689,2_ND,test,05,3,23.0,00100,kill,0.0,1700.0,3.97258617615
277,2_45_1,45,1.0,1540.45052272,2_ND,test,05,3,24.0,01001,kill,0.0,1600.0,5.17763916668
278,2_45_1,45,1.0,1548.02904793,2_ND,test,05,3,25.0,00001,kill,0.0,1500.0,5.59794715445
279,2_45_1,45,1.0,1564.42688257,2_ND,test,05,3,26.0,11000,ignore,0.0,1400.0,14.4660305153
280,2_45_1,45,1.0,1570.48972775,2_ND,test,05,3,27.0,11010,kill,1.0,1500.0,4.10860042413
281,2_45_1,45,1.0,1594.39721853,2_ND,test,05,3,28.0,11110,kill,1.0,1600.0,21.9827221131
282,2_45_1,45,1.0,1600.92946891,2_ND,test,05,3,29.0,00111,ignore,1.0,1700.0,4.58175781515
283,2_45_1,45,1.0,1609.25806661,2_ND,test,05,3,30.0,00110,ignore,1.0,1800.0,6.28304835666
284,2_45_1,45,1.0,1612.78948759,2_ND,test,05,3,31.0,00010,ignore,1.0,1900.0,1.60883455488
285,2_45_1,45,1.0,1615.83653023,2_ND,test,05,3,32.0,01010,ignore,1.0,2000.0,1.12922477706
286,2_45_1,45,1.0,1620.60234272,2_ND,test,05,3,33.0,10001,kill,1.0,2100.0,2.78661676581
287,2_45_1,45,1.0,1623.52439065,2_ND,test,05,3,34.0,10011,kill,1.0,2200.0,0.977282261611
288,2_45_1,45,1.0,1626.46201854,2_ND,test,05,3,35.0,00101,ignore,1.0,2300.0,0.961023003827
289,2_45_1,45,1.0,1633.19681319,2_ND,test,05,3,36.0,00010,ignore,1.0,2400.0,4.81096860852
290,2_45_1,45,1.0,1636.33757196,2_ND,test,05,4,0.0,01011,ignore,0.0,2300.0,1.15806102538
291,2_45_1,45,1.0,1649.57267322,2_ND,test,05,4,1.0,10010,kill,1.0,2400.0,11.2869836776
292,2_45_1,45,1.0,1658.87001061,2_ND,test,05,4,2.0,11100,kill,0.0,2300.0,7.36395688659
293,2_45_1,45,1.0,1668.72990517,2_ND,test,05,4,3.0,01101,ignore,1.0,2400.0,7.89551450392
294,2_45_1,45,1.0,1673.07391219,2_ND,test,05,4,4.0,01010,ignore,0.0,2300.0,2.43923826043
295,2_45_1,45,1.0,1685.76204651,2_ND,test,05,4,5.0,11001,kill,0.0,2200.0,10.6992520004
296,2_45_1,45,1.0,1694.51249264,2_ND,test,05,4,6.0,11110,kill,0.0,2100.0,6.80709615012
297,2_45_1,45,1.0,1719.20130658,2_ND,test,05,4,7.0,00110,ignore,0.0,2000.0,22.7547846061
298,2_45_1,45,1.0,1723.98280903,2_ND,test,05,4,8.0,11011,ignore,1.0,2100.0,2.8260812671
299,2_45_1,45,1.0,1729.12372142,2_ND,test,05,4,9.0,00111,ignore,0.0,2000.0,3.2168894223
300,2_45_1,45,1.0,1734.32713197,2_ND,test,05,4,10.0,10100,ignore,1.0,2100.0,3.25373550795
301,2_45_1,45,1.0,1738.65547372,2_ND,test,05,4,11.0,10001,ignore,1.0,2200.0,2.36101902681
302,2_45_1,45,1.0,1742.93691684,2_ND,test,05,4,12.0,01110,kill,1.0,2300.0,2.37865227928
303,2_45_1,45,1.0,1746.1870926,2_ND,test,05,4,13.0,11111,kill,0.0,2200.0,1.33185403327
304,2_45_1,45,1.0,1759.07843701,2_ND,test,05,4,14.0,00001,ignore,1.0,2300.0,10.9248318428
305,2_45_1,45,1.0,1764.12556881,2_ND,test,05,4,15.0,10000,ignore,1.0,2400.0,3.11247192035
306,2_45_1,45,1.0,1770.86030188,2_ND,test,05,4,16.0,10101,ignore,1.0,2500.0,4.77733781154
307,2_45_1,45,1.0,1775.40741925,2_ND,test,05,4,17.0,11000,kill,0.0,2400.0,2.65738204621
308,2_45_1,45,1.0,1782.07961279,2_ND,test,05,4,18.0,01001,kill,0.0,2300.0,4.73411535141
309,2_45_1,45,1.0,1789.0175024,2_ND,test,05,4,19.0,00011,ignore,0.0,2200.0,4.9892184395
310,2_45_1,45,1.0,1797.03352528,2_ND,test,05,4,20.0,00000,ignore,1.0,2300.0,6.08282968496
311,2_45_1,45,1.0,1803.01821249,2_ND,test,05,4,21.0,11101,kill,0.0,2200.0,4.03550031495
312,2_45_1,45,1.0,1809.23728606,2_ND,test,05,4,22.0,10110,ignore,0.0,2100.0,4.31262676737
313,2_45_1,45,1.0,1816.01893284,2_ND,test,05,4,23.0,01111,kill,1.0,2200.0,4.80885148927
314,2_45_1,45,1.0,1820.36291067,2_ND,test,05,4,24.0,01100,kill,0.0,2100.0,2.37167646595
315,2_45_1,45,1.0,1824.34745548,2_ND,test,05,4,25.0,01000,kill,0.0,2000.0,2.05231699635
316,2_45_1,45,1.0,1839.0045091,2_ND,test,05,4,26.0,00100,ignore,1.0,2100.0,12.6881795404
317,2_45_1,45,1.0,1853.83338967,2_ND,test,05,4,27.0,10111,ignore,0.0,2000.0,12.9088471274
318,2_45_1,45,1.0,1870.4749618,2_ND,test,05,4,28.0,11010,kill,0.0,1900.0,14.6687608005
319,2_45_1,45,1.0,1876.86595245,2_ND,test,05,4,29.0,10011,ignore,0.0,1800.0,4.42257681092
320,2_45_1,45,1.0,1899.07023698,2_ND,test,05,4,30.0,11110,kill,0.0,1700.0,20.2837805765
321,2_45_1,45,1.0,1909.71143738,2_ND,test,05,4,31.0,00000,ignore,1.0,1800.0,8.67201329349
322,2_45_1,45,1.0,1920.94639785,2_ND,test,05,4,32.0,11111,kill,0.0,1700.0,9.33656615509
323,2_45_1,45,1.0,1929.35307847,2_ND,test,05,4,33.0,00100,ignore,1.0,1800.0,6.45976447088
324,2_45_1,45,1.0,1946.22895421,2_ND,test,05,4,34.0,00101,ignore,1.0,1900.0,14.9241955203
325,2_45_1,45,1.0,1958.54212301,2_ND,test,05,4,35.0,10101,ignore,1.0,2000.0,10.4061844514
326,2_45_1,45,1.0,1973.13664544,2_ND,test,05,4,36.0,01101,ignore,1.0,2100.0,12.6875204464
327,2_45_1,45,1.0,1987.85615264,2_ND,test,05,4,37.0,11000,ignore,1.0,2200.0,12.7872332032
328,2_45_1,45,1.0,2001.09122568,2_ND,test,05,4,38.0,00111,ignore,0.0,2100.0,11.290387233
329,2_45_1,45,1.0,2005.71647761,2_ND,test,05,4,39.0,10011,ignore,0.0,2000.0,2.67808241146
330,2_45_1,45,1.0,2016.29514811,2_ND,test,05,4,40.0,10110,ignore,0.0,1900.0,8.68361559452
331,2_45_1,45,1.0,2023.95179248,2_ND,test,05,4,41.0,11100,ignore,1.0,2000.0,5.68932870546
332,2_45_1,45,1.0,2027.28192421,2_ND,test,05,4,42.0,00010,kill,1.0,2100.0,1.38571276455
333,2_45_1,45,1.0,2030.43831104,2_ND,test,05,4,43.0,01100,ignore,1.0,2200.0,1.25151543531
334,2_45_1,45,1.0,2033.70412192,2_ND,test,05,4,44.0,01010,kill,1.0,2300.0,1.34569340547
335,2_45_1,45,1.0,2036.8605219,2_ND,test,05,4,45.0,01000,ignore,1.0,2400.0,1.2703417924
336,2_45_1,45,1.0,2042.81395169,2_ND,test,05,4,46.0,10000,ignore,1.0,2500.0,3.96964190183
337,2_45_1,45,1.0,2045.72036065,2_ND,test,05,4,47.0,10100,ignore,1.0,2600.0,0.944116198127
338,2_45_1,45,1.0,2051.78318338,2_ND,test,05,4,48.0,11001,ignore,1.0,2700.0,4.15512092051
339,2_45_1,45,1.0,2057.03345023,2_ND,test,05,4,49.0,11101,ignore,1.0,2800.0,3.28216122564
340,2_45_1,45,1.0,2061.14305741,2_ND,test,05,5,0.0,01110,kill,1.0,2900.0,2.23098281031
341,2_45_1,45,1.0,2067.00272169,2_ND,test,05,5,1.0,01011,kill,0.0,2800.0,3.93340166958
342,2_45_1,45,1.0,2083.5504911,2_ND,test,05,5,2.0,11011,kill,0.0,2700.0,14.6140608022
343,2_45_1,45,1.0,2087.81634207,2_ND,test,05,5,3.0,10010,ignore,1.0,2800.0,2.37219572304
344,2_45_1,45,1.0,2091.51967147,2_ND,test,05,5,4.0,10111,ignore,0.0,2700.0,1.78160251912
345,2_45_1,45,1.0,2095.94175982,2_ND,test,05,5,5.0,00001,ignore,1.0,2800.0,2.47704396141
346,2_45_1,45,1.0,2109.30181827,2_ND,test,05,5,6.0,00110,ignore,0.0,2700.0,11.425140703
347,2_45_1,45,1.0,2113.7395799,2_ND,test,05,5,7.0,10001,ignore,1.0,2800.0,2.48756092211
348,2_45_1,45,1.0,2118.23978003,2_ND,test,05,5,8.0,00011,kill,0.0,2700.0,2.60451692733
349,2_45_1,45,1.0,2127.39655077,2_ND,test,05,5,9.0,01001,ignore,1.0,2800.0,7.25277749625
350,2_45_1,45,1.0,2139.94407675,2_ND,test,05,5,10.0,01111,ignore,0.0,2700.0,10.6057180501
351,2_45_1,45,1.0,2143.14734874,2_ND,test,05,5,11.0,11010,ignore,1.0,2800.0,1.31135604679
352,2_45_1,45,1.0,2146.2569338,2_ND,test,05,5,12.0,10010,ignore,1.0,2900.0,1.16356855028
353,2_45_1,45,1.0,2149.16330972,2_ND,test,05,5,13.0,11011,ignore,1.0,3000.0,1.03082379384
354,2_45_1,45,1.0,2152.53849815,2_ND,test,05,5,14.0,01010,ignore,1.0,3100.0,1.4044425828
355,2_45_1,45,1.0,2155.21050375,2_ND,test,05,5,15.0,01011,ignore,1.0,3200.0,0.740204033722
356,2_45_1,45,1.0,2158.64819642,2_ND,test,05,5,16.0,11111,kill,1.0,3300.0,1.54493001094
357,2_45_1,45,1.0,2164.63287529,2_ND,test,05,5,17.0,10100,kill,1.0,3400.0,4.03438835427
358,2_45_1,45,1.0,2169.82064687,2_ND,test,05,5,18.0,01100,kill,0.0,3300.0,3.3050162352
