,unique_id,pair_id,sbj_id,wall_time,condition,block,rule_id,rule_num,trial,stimulus,choice,correct,points,reaction_time
0,1_45_1,45,1.0,35.526255037,1_I,training,05,1_A,1.0,11011,kill,0.0,0.0,2.61644059686
1,1_45_1,45,1.0,43.7610378214,1_I,training,05,1_A,2.0,00010,kill,1.0,100.0,6.13539877277
2,1_45_1,45,1.0,50.1051256673,1_I,training,05,1_A,3.0,11001,ignore,1.0,200.0,4.25549886527
3,1_45_1,45,1.0,53.9923615646,1_I,training,05,1_A,4.0,10111,ignore,1.0,300.0,1.80510956678
4,1_45_1,45,1.0,57.8831770965,1_I,training,05,1_A,5.0,01001,ignore,1.0,400.0,1.80642518913
5,1_45_1,45,1.0,61.5083469215,1_I,training,05,1_A,6.0,10010,kill,1.0,500.0,1.5359762739
6,1_45_1,45,1.0,64.4616686274,1_I,training,05,1_A,7.0,11100,kill,0.0,400.0,0.876337271431
7,1_45_1,45,1.0,68.961893457,1_I,training,05,1_A,8.0,00011,ignore,1.0,500.0,2.40306634303
8,1_45_1,45,1.0,80.5718572919,1_I,training,05,1_A,9.0,10100,kill,0.0,400.0,9.51524704322
9,1_45_1,45,1.0,84.4783262282,1_I,training,05,1_A,10.0,10000,kill,1.0,500.0,1.80980661442
10,1_45_1,45,1.0,88.7285494542,1_I,training,05,1_A,11.0,10001,ignore,1.0,600.0,2.15471712516
11,1_45_1,45,1.0,92.9787300235,1_I,training,05,1_A,12.0,01000,kill,1.0,700.0,2.17387671765
12,1_45_1,45,1.0,96.7602360038,1_I,training,05,1_A,13.0,11000,kill,1.0,800.0,1.71216254704
13,1_45_1,45,1.0,100.135409677,1_I,training,05,1_A,14.0,01111,kill,0.0,700.0,1.28566164066
14,1_45_1,45,1.0,106.05758141,1_I,training,05,1_A,15.0,01101,ignore,1.0,800.0,3.85288955828
15,1_45_1,45,1.0,110.104658047,1_I,training,05,1_A,16.0,11010,kill,1.0,900.0,1.99622151463
16,1_45_1,45,1.0,113.934238126,1_I,training,05,1_A,17.0,00100,ignore,0.0,800.0,1.76681475704
17,1_45_1,45,1.0,118.034469819,1_I,training,05,1_A,18.0,01110,ignore,0.0,700.0,2.10829284689
18,1_45_1,45,1.0,121.331527854,1_I,training,05,1_A,19.0,11111,ignore,1.0,800.0,1.25959487042
19,1_45_1,45,1.0,125.222348838,1_I,training,05,1_A,20.0,00101,ignore,1.0,900.0,1.83683267926
20,1_45_1,45,1.0,129.503830122,1_I,training,05,1_A,21.0,00111,ignore,1.0,1000.0,2.26284511834
21,1_45_1,45,1.0,133.83218791,1_I,training,05,1_A,22.0,01010,kill,1.0,1100.0,2.29590694554
22,1_45_1,45,1.0,138.038681286,1_I,training,05,1_A,23.0,01011,ignore,1.0,1200.0,2.20051598568
23,1_45_1,45,1.0,141.835751829,1_I,training,05,1_A,24.0,11110,kill,0.0,1100.0,1.78886634534
24,1_45_1,45,1.0,146.007841456,1_I,training,05,1_A,25.0,00001,ignore,1.0,1200.0,2.1126172097
25,1_45_1,45,1.0,149.570525312,1_I,training,05,1_A,26.0,11101,ignore,1.0,1300.0,1.55956638986
26,1_45_1,45,1.0,153.414461134,1_I,training,05,1_A,27.0,00110,kill,1.0,1400.0,1.82991491753
27,1_45_1,45,1.0,158.492865427,1_I,training,05,1_A,28.0,10110,ignore,1.0,1500.0,3.06542479015
28,1_45_1,45,1.0,162.211816803,1_I,training,05,1_A,29.0,10011,ignore,1.0,1600.0,1.68117133367
29,1_45_1,45,1.0,165.165113172,1_I,training,05,1_A,30.0,00000,kill,1.0,1700.0,0.921676530092
30,1_45_1,45,1.0,168.258995111,1_I,training,05,1_A,31.0,01100,kill,1.0,1800.0,1.06592736944
31,1_45_1,45,1.0,172.227960599,1_I,training,05,1_A,32.0,10101,ignore,1.0,1900.0,1.93125921288
32,1_45_1,45,1.0,175.400013342,1_I,training,05,1_A,33.0,00100,kill,1.0,2000.0,1.11191481746
33,1_45_1,45,1.0,180.072127985,1_I,training,05,1_A,34.0,00111,ignore,1.0,2100.0,2.62318580744
34,1_45_1,45,1.0,183.244184577,1_I,training,05,1_A,35.0,11001,ignore,1.0,2200.0,1.12083327453
35,1_45_1,45,1.0,186.650615026,1_I,training,05,1_A,36.0,10000,kill,1.0,2300.0,1.38402574027
36,1_45_1,45,1.0,189.791390788,1_I,training,05,1_A,37.0,10001,ignore,1.0,2400.0,1.09189311066
37,1_45_1,45,1.0,192.822780024,1_I,training,05,1_A,38.0,10011,ignore,1.0,2500.0,0.99610476998
38,1_45_1,45,1.0,195.932350006,1_I,training,05,1_A,39.0,01100,kill,1.0,2600.0,1.08958547953
39,1_45_1,45,1.0,199.557523359,1_I,training,05,1_A,40.0,01010,kill,1.0,2700.0,1.56957147017
40,1_45_1,45,1.0,202.729578667,1_I,training,05,1_A,41.0,01111,ignore,1.0,2800.0,1.16732201894
41,1_45_1,45,1.0,205.776603347,1_I,training,05,1_A,42.0,00011,ignore,1.0,2900.0,0.98787651752
42,1_45_1,45,1.0,210.10900005,1_I,training,05,1_A,43.0,10100,kill,0.0,2800.0,2.30413455654
43,1_45_1,45,1.0,213.437290164,1_I,training,05,1_A,44.0,11011,ignore,1.0,2900.0,1.32892162586
44,1_45_1,45,1.0,219.29698074,1_I,training,05,1_A,45.0,11110,ignore,1.0,3000.0,3.81580164443
45,1_45_1,45,1.0,222.406529874,1_I,training,05,1_A,46.0,11000,kill,1.0,3100.0,1.08203684769
46,1_45_1,45,1.0,226.922388544,1_I,training,05,1_A,47.0,10110,ignore,1.0,3200.0,2.46571139184
47,1_45_1,45,1.0,231.110078014,1_I,training,05,1_A,48.0,10101,kill,0.0,3100.0,2.14531886042
48,1_45_1,45,1.0,234.016503973,1_I,training,05,1_A,49.0,01011,ignore,1.0,3200.0,0.879894455142
49,1_45_1,45,1.0,236.579136513,1_I,training,05,1_A,50.0,00001,ignore,1.0,3300.0,0.544741102713
50,1_45_1,45,1.0,239.344878759,1_I,training,05,1_A,51.0,01101,ignore,1.0,3400.0,0.736114763833
51,1_45_1,45,1.0,242.891970791,1_I,training,05,1_A,52.0,01110,kill,1.0,3500.0,1.52760337354
52,1_45_1,45,1.0,245.642123136,1_I,training,05,1_A,53.0,00010,kill,1.0,3600.0,0.701958936676
53,1_45_1,45,1.0,250.798612599,1_I,training,05,1_A,54.0,10111,kill,0.0,3500.0,3.13508381881
54,1_45_1,45,1.0,254.189434225,1_I,training,05,1_A,55.0,00101,ignore,1.0,3600.0,1.33910567187
55,1_45_1,45,1.0,257.845858901,1_I,training,05,1_A,56.0,10010,kill,1.0,3700.0,1.61756795244
56,1_45_1,45,1.0,260.595998096,1_I,training,05,1_A,57.0,00110,kill,1.0,3800.0,0.733133285183
57,1_45_1,45,1.0,263.58052462,1_I,training,05,1_A,58.0,01001,ignore,1.0,3900.0,0.948079743008
58,1_45_1,45,1.0,267.252603662,1_I,training,05,1_A,59.0,11111,ignore,1.0,4000.0,1.67588607262
59,1_45_1,45,1.0,270.174689119,1_I,training,05,1_A,60.0,01000,kill,1.0,4100.0,0.892449956958
60,1_45_1,45,1.0,272.893544598,1_I,training,05,1_A,61.0,00000,kill,1.0,4200.0,0.66875887612
61,1_45_1,45,1.0,276.487487476,1_I,training,05,1_A,62.0,11101,ignore,1.0,4300.0,1.58381880718
62,1_45_1,45,1.0,280.347058741,1_I,training,05,1_A,63.0,11100,ignore,1.0,4400.0,1.84428701735
63,1_45_1,45,1.0,283.519099617,1_I,training,05,1_A,64.0,11010,kill,1.0,4500.0,1.18447482229
64,1_45_1,45,1.0,286.831749476,1_I,training,05,1_A,65.0,00100,kill,1.0,4600.0,1.28511961194
65,1_45_1,45,1.0,290.035039109,1_I,training,05,1_A,66.0,01101,ignore,1.0,4700.0,1.19027869898
66,1_45_1,45,1.0,292.675816154,1_I,training,05,1_A,67.0,00011,ignore,1.0,4800.0,0.644406071235
67,1_45_1,45,1.0,295.847889103,1_I,training,05,1_A,68.0,10000,kill,1.0,4900.0,1.16025672276
68,1_45_1,45,1.0,299.035513785,1_I,training,05,1_A,69.0,11101,ignore,1.0,5000.0,1.15814152787
69,1_45_1,45,1.0,302.395107501,1_I,training,05,1_A,70.0,11010,kill,1.0,5100.0,1.36555442802
70,1_45_1,45,1.0,304.988947746,1_I,training,05,1_A,71.0,00000,kill,1.0,5200.0,0.546889653218
71,1_45_1,45,1.0,308.457923177,1_I,training,05,1_A,72.0,10100,ignore,1.0,5300.0,1.46658761814
72,1_45_1,45,1.0,311.239297338,1_I,training,05,1_A,73.0,11110,ignore,1.0,5400.0,0.772380012801
73,1_45_1,45,1.0,314.192591462,1_I,training,05,1_A,74.0,00010,kill,1.0,5500.0,0.930702751455
74,1_45_1,45,1.0,316.739568673,1_I,training,05,1_A,75.0,01010,kill,1.0,5600.0,0.563830455983
75,1_45_1,45,1.0,319.270994793,1_I,training,05,1_A,76.0,01000,kill,1.0,5700.0,0.522917872066
76,1_45_1,45,1.0,322.50753901,1_I,training,05,1_A,77.0,10110,ignore,1.0,5800.0,1.24409188702
77,1_45_1,45,1.0,325.788966412,1_I,training,05,1_A,78.0,11011,ignore,1.0,5900.0,1.26295063754
78,1_45_1,45,1.0,328.523456373,1_I,training,05,1_A,79.0,10001,ignore,1.0,6000.0,0.696914862365
79,1_45_1,45,1.0,331.289242237,1_I,training,05,1_A,80.0,10111,ignore,1.0,6100.0,0.761947082603
80,1_45_1,45,1.0,333.898723699,1_I,training,05,1_A,81.0,00101,ignore,1.0,6200.0,0.559697246495
81,1_45_1,45,1.0,336.383264655,1_I,training,05,1_A,82.0,11001,ignore,1.0,6300.0,0.487536867571
82,1_45_1,45,1.0,339.336532799,1_I,training,05,1_A,83.0,10010,kill,1.0,6400.0,0.929253065191
83,1_45_1,45,1.0,342.164854345,1_I,training,05,1_A,84.0,01001,ignore,1.0,6500.0,0.808162567562
84,1_45_1,45,1.0,345.196268918,1_I,training,05,1_A,85.0,01110,kill,1.0,6600.0,1.05486036186
85,1_45_1,45,1.0,347.602636825,1_I,training,05,1_A,86.0,11000,kill,1.0,6700.0,0.410121375946
86,1_45_1,45,1.0,350.008982602,1_I,training,05,1_A,87.0,01100,kill,1.0,6800.0,0.424834087898
87,1_45_1,45,1.0,352.852902387,1_I,training,05,1_A,88.0,00001,ignore,1.0,6900.0,0.845397053672
88,1_45_1,45,1.0,355.228033404,1_I,training,05,1_A,89.0,01011,ignore,1.0,7000.0,0.36115629799
89,1_45_1,45,1.0,357.978150149,1_I,training,05,1_A,90.0,11111,ignore,1.0,7100.0,0.777685479661
90,1_45_1,45,1.0,360.493940825,1_I,training,05,1_A,91.0,00111,ignore,1.0,7200.0,0.512072166151
91,1_45_1,45,1.0,363.072153002,1_I,training,05,1_A,92.0,01111,ignore,1.0,7300.0,0.561314673007
92,1_45_1,45,1.0,365.572330044,1_I,training,05,1_A,93.0,10101,ignore,1.0,7400.0,0.471957871858
93,1_45_1,45,1.0,368.494343978,1_I,training,05,1_A,94.0,11100,ignore,1.0,7500.0,0.898378596474
94,1_45_1,45,1.0,370.916350537,1_I,training,05,1_A,95.0,10011,ignore,1.0,7600.0,0.436042215377
95,1_45_1,45,1.0,373.963367839,1_I,training,05,1_A,96.0,00110,kill,1.0,7700.0,0.999258799791
96,1_45_1,45,1.0,376.572874317,1_I,training,05,1_A,97.0,00000,kill,1.0,7800.0,0.579418752783
97,1_45_1,45,1.0,379.291776943,1_I,training,05,1_A,98.0,00101,ignore,1.0,7900.0,0.697423856192
98,1_45_1,45,1.0,381.885683578,1_I,training,05,1_A,99.0,00111,ignore,1.0,8000.0,0.561888132968
99,1_45_1,45,1.0,385.135844904,1_I,training,05,1_A,100.0,10010,kill,1.0,8100.0,1.24094972411
100,1_45_1,45,1.0,388.089104389,1_I,training,05,1_A,101.0,01001,ignore,1.0,8200.0,0.923506919364
101,1_45_1,45,1.0,391.026781671,1_I,training,05,1_A,102.0,11101,ignore,1.0,8300.0,0.915800810541
102,1_45_1,45,1.0,394.030105686,1_I,training,05,1_A,103.0,00010,kill,1.0,8400.0,1.00397156306
103,1_45_1,45,1.0,396.827099575,1_I,training,05,1_A,104.0,00011,ignore,1.0,8500.0,0.768958496636
104,1_45_1,45,1.0,399.311571575,1_I,training,05,1_A,105.0,00001,ignore,1.0,8600.0,0.48817254859
105,1_45_1,45,1.0,402.514909959,1_I,training,05,1_A,106.0,00100,kill,1.0,8700.0,1.16935639062
106,1_45_1,45,1.0,405.499487478,1_I,training,05,1_A,107.0,11000,kill,1.0,8800.0,0.967151135566
107,1_45_1,45,1.0,408.124564613,1_I,training,05,1_A,108.0,01000,kill,1.0,8900.0,0.638853323821
108,1_45_1,45,1.0,410.562197314,1_I,training,05,1_A,109.0,01100,kill,1.0,9000.0,0.435199986146
109,1_45_1,45,1.0,413.906330382,1_I,training,05,1_A,110.0,01111,ignore,1.0,9100.0,1.3185746505
110,1_45_1,45,1.0,417.797140141,1_I,training,05,1_A,111.0,10100,ignore,1.0,9200.0,1.87037174831
111,1_45_1,45,1.0,420.875458479,1_I,training,05,1_A,112.0,00110,kill,1.0,9300.0,1.06325635457
112,1_45_1,45,1.0,424.110000077,1_I,training,05,1_A,113.0,11001,ignore,1.0,9400.0,1.25152505712
113,1_45_1,45,1.0,428.907104938,1_I,training,05,1_A,114.0,01101,ignore,1.0,9500.0,2.75724490333
114,1_45_1,45,1.0,431.454101714,1_I,training,05,1_A,115.0,11011,ignore,1.0,9600.0,0.530789796776
115,1_45_1,45,1.0,433.969858713,1_I,training,05,1_A,116.0,10101,ignore,1.0,9700.0,0.523361437576
116,1_45_1,45,1.0,436.563768235,1_I,training,05,1_A,117.0,10111,ignore,1.0,9800.0,0.572004184844
117,1_45_1,45,1.0,439.017007514,1_I,training,05,1_A,118.0,01011,ignore,1.0,9900.0,0.467824341642
118,1_45_1,45,1.0,442.204679344,1_I,training,05,1_A,119.0,01010,kill,1.0,10000.0,1.16631814327
119,1_45_1,45,1.0,445.423619495,1_I,training,05,1_A,120.0,11100,ignore,1.0,10100.0,1.17974666411
120,1_45_1,45,1.0,448.323794483,1_I,training,05,1_A,121.0,10011,ignore,1.0,10200.0,0.921732336599
121,1_45_1,45,1.0,450.777072891,1_I,training,05,1_A,122.0,10001,ignore,1.0,10300.0,0.418152701997
122,1_45_1,45,1.0,453.493604382,1_I,training,05,1_A,123.0,01110,kill,1.0,10400.0,0.743942107485
123,1_45_1,45,1.0,456.540639645,1_I,training,05,1_A,124.0,11010,kill,1.0,10500.0,1.0484557634
124,1_45_1,45,1.0,459.618939061,1_I,training,05,1_A,125.0,10110,ignore,1.0,10600.0,1.03434088667
125,1_45_1,45,1.0,462.384714341,1_I,training,05,1_A,126.0,11110,ignore,1.0,10700.0,0.791554038016
126,1_45_1,45,1.0,465.416084333,1_I,training,05,1_A,127.0,10000,kill,1.0,10800.0,1.02975416913
127,1_45_1,45,1.0,468.166227378,1_I,training,05,1_A,128.0,11111,ignore,1.0,10900.0,0.745113081943
128,1_45_1,45,1.0,470.682018374,1_I,training,05,1_A,129.0,01001,ignore,1.0,11000.0,0.521525275217
129,1_45_1,45,1.0,473.447753243,1_I,training,05,1_A,130.0,10010,kill,1.0,11100.0,0.738071519569
130,1_45_1,45,1.0,476.604209671,1_I,training,05,1_A,131.0,00011,ignore,1.0,11200.0,1.16254382735
131,1_45_1,45,1.0,479.029314452,1_I,training,05,1_A,132.0,11011,ignore,1.0,11300.0,0.449971391146
132,1_45_1,45,1.0,481.71697217,1_I,training,05,1_A,133.0,00000,kill,1.0,11400.0,0.669877892797
133,1_45_1,45,1.0,484.654632774,1_I,training,05,1_A,134.0,01011,ignore,1.0,11500.0,0.937031658326
134,1_45_1,45,1.0,487.217292576,1_I,training,05,1_A,135.0,10001,ignore,1.0,11600.0,0.560651730193
135,1_45_1,45,1.0,489.983102175,1_I,training,05,1_A,136.0,00010,kill,1.0,11700.0,0.793130411468
136,1_45_1,45,1.0,492.780073934,1_I,training,05,1_A,137.0,11010,kill,1.0,11800.0,0.766650224061
137,1_45_1,45,1.0,495.608338069,1_I,training,05,1_A,138.0,00110,kill,1.0,11900.0,0.82103751352
138,1_45_1,45,1.0,498.311640852,1_I,training,05,1_A,139.0,10011,ignore,1.0,12000.0,0.714754663051
139,1_45_1,45,1.0,501.046157113,1_I,training,05,1_A,140.0,01000,kill,1.0,12100.0,0.723120507417
140,1_45_1,45,1.0,503.936885407,1_I,training,05,1_A,141.0,11111,ignore,1.0,12200.0,0.925577533199
141,1_45_1,45,1.0,506.29888233,1_I,training,05,1_A,142.0,00111,ignore,1.0,12300.0,0.333319755886
142,1_45_1,45,1.0,509.017737489,1_I,training,05,1_A,143.0,01010,kill,1.0,12400.0,0.717835567091
143,1_45_1,45,1.0,511.642887749,1_I,training,05,1_A,144.0,11100,ignore,1.0,12500.0,0.631992010047
144,1_45_1,45,1.0,514.252409943,1_I,training,05,1_A,145.0,00101,ignore,1.0,12600.0,0.611566187159
145,1_45_1,45,1.0,516.940041682,1_I,training,05,1_A,146.0,00100,kill,1.0,12700.0,0.697923869662
146,1_45_1,45,1.0,519.440185367,1_I,training,05,1_A,147.0,11101,ignore,1.0,12800.0,0.499844447382
147,1_45_1,45,1.0,521.92475134,1_I,training,05,1_A,148.0,01111,ignore,1.0,12900.0,0.493829853018
148,1_45_1,45,1.0,524.237300812,1_I,training,05,1_A,149.0,01101,ignore,1.0,13000.0,0.337827574571
149,1_45_1,45,1.0,526.956183233,1_I,training,05,1_A,150.0,01110,kill,1.0,13100.0,0.738980780752
150,1_45_1,45,1.0,529.737583373,1_I,training,05,1_A,151.0,01100,kill,1.0,13200.0,0.762718751885
151,1_45_1,45,1.0,532.550231308,1_I,training,05,1_A,152.0,10000,kill,1.0,13300.0,0.817890218983
152,1_45_1,45,1.0,535.472267053,1_I,training,05,1_A,153.0,11110,ignore,1.0,13400.0,0.935775370472
153,1_45_1,45,1.0,537.972403682,1_I,training,05,1_A,154.0,10100,ignore,1.0,13500.0,0.528561385232
154,1_45_1,45,1.0,542.253876949,1_I,training,05,1_A,155.0,11000,kill,1.0,13600.0,2.27377036457
155,1_45_1,45,1.0,544.816521356,1_I,training,05,1_A,156.0,10111,ignore,1.0,13700.0,0.546779323111
156,1_45_1,45,1.0,547.191622866,1_I,training,05,1_A,157.0,11001,ignore,1.0,13800.0,0.379472699071
157,1_45_1,45,1.0,550.473062456,1_I,training,05,1_A,158.0,10110,ignore,1.0,13900.0,1.26529098282
158,1_45_1,45,1.0,552.988792835,1_I,training,05,1_A,159.0,10101,ignore,1.0,14000.0,0.540789745457
159,1_45_1,45,1.0,555.301423772,1_I,training,05,1_A,160.0,00001,ignore,1.0,14100.0,0.300536961226
160,1_45_1,45,1.0,557.864071386,1_I,training,05,1_A,161.0,00011,ignore,1.0,14200.0,0.550777506513
161,1_45_1,45,1.0,560.957995982,1_I,training,05,1_A,162.0,11010,kill,1.0,14300.0,1.1190946132
162,1_45_1,45,1.0,563.536245685,1_I,training,05,1_A,163.0,01111,ignore,1.0,14400.0,0.568133330082
163,1_45_1,45,1.0,566.411391455,1_I,training,05,1_A,164.0,11100,ignore,1.0,14500.0,0.920545646513
164,1_45_1,45,1.0,568.974012129,1_I,training,05,1_A,165.0,11011,ignore,1.0,14600.0,0.57838633241
165,1_45_1,45,1.0,571.958544746,1_I,training,05,1_A,166.0,10010,kill,1.0,14700.0,0.976699179835
166,1_45_1,45,1.0,574.708699016,1_I,training,05,1_A,167.0,10100,ignore,1.0,14800.0,0.792988650112
167,1_45_1,45,1.0,578.146406125,1_I,training,05,1_A,168.0,01010,kill,1.0,14900.0,1.44790366385
168,1_45_1,45,1.0,580.662161521,1_I,training,05,1_A,169.0,01001,ignore,1.0,15000.0,0.515161729822
169,1_45_1,45,1.0,583.349773054,1_I,training,05,1_A,170.0,11111,ignore,1.0,15100.0,0.701101312541
170,1_45_1,45,1.0,585.662417782,1_I,training,05,1_A,171.0,01011,ignore,1.0,15200.0,0.318922960083
171,1_45_1,45,1.0,587.990650486,1_I,training,05,1_A,172.0,10101,ignore,1.0,15300.0,0.344991975409
172,1_45_1,45,1.0,590.838791039,1_I,training,05,1_A,173.0,10000,kill,1.0,15400.0,0.840138733693
173,1_45_1,45,1.0,593.792080672,1_I,training,05,1_A,174.0,00100,kill,1.0,15500.0,0.94058499331
174,1_45_1,45,1.0,596.508997035,1_I,training,05,1_A,175.0,00010,kill,1.0,15600.0,0.733366453744
175,1_45_1,45,1.0,599.290423475,1_I,training,05,1_A,176.0,10110,ignore,1.0,15700.0,0.789892671903
176,1_45_1,45,1.0,601.728021217,1_I,training,05,1_A,177.0,00101,ignore,1.0,15800.0,0.460876752291
177,1_45_1,45,1.0,604.52504333,1_I,training,05,1_A,178.0,11110,ignore,1.0,15900.0,0.808953480468
178,1_45_1,45,1.0,607.322080518,1_I,training,05,1_A,179.0,00000,kill,1.0,16000.0,0.782743986689
179,1_45_1,45,1.0,610.009725727,1_I,training,05,1_A,180.0,00110,kill,1.0,16100.0,0.701747898278
180,1_45_1,45,1.0,612.704105242,1_I,training,05,1_A,181.0,11101,ignore,1.0,16200.0,0.711466569337
181,1_45_1,45,1.0,615.438633369,1_I,training,05,1_A,182.0,01110,kill,1.0,16300.0,0.770628843111
182,1_45_1,45,1.0,618.266940803,1_I,training,05,1_A,183.0,01100,kill,1.0,16400.0,0.834209131997
183,1_45_1,45,1.0,621.079548647,1_I,training,05,1_A,184.0,10111,ignore,1.0,16500.0,0.805705477633
184,1_45_1,45,1.0,623.595308854,1_I,training,05,1_A,185.0,10011,ignore,1.0,16600.0,0.540405835178
185,1_45_1,45,1.0,626.001719418,1_I,training,05,1_A,186.0,11001,ignore,1.0,16700.0,0.404893525032
186,1_45_1,45,1.0,628.3621807,1_I,training,05,1_A,187.0,10001,ignore,1.0,16800.0,0.379420099835
187,1_45_1,45,1.0,630.690358881,1_I,training,05,1_A,188.0,00001,ignore,1.0,16900.0,0.322082762974
188,1_45_1,45,1.0,633.129206816,1_I,training,05,1_A,189.0,00111,ignore,1.0,17000.0,0.419030531932
189,1_45_1,45,1.0,635.473087793,1_I,training,05,1_A,190.0,01101,ignore,1.0,17100.0,0.377028438226
190,1_45_1,45,1.0,638.238836774,1_I,training,05,1_A,191.0,11000,kill,1.0,17200.0,0.809669022514
191,1_45_1,45,1.0,640.973345979,1_I,training,05,1_A,192.0,01000,kill,1.0,17300.0,0.743201869453
192,1_45_1,45,1.0,643.739129919,1_I,training,05,1_A,193.0,10111,ignore,1.0,17400.0,0.768539947836
193,1_45_1,45,1.0,646.245515915,1_I,training,05,1_A,194.0,10011,ignore,1.0,17500.0,0.510991315994
194,1_45_1,45,1.0,648.761307874,1_I,training,05,1_A,195.0,11101,ignore,1.0,17600.0,0.5539870221
195,1_45_1,45,1.0,651.65211667,1_I,training,05,1_A,196.0,11110,ignore,1.0,17700.0,0.88980460025
196,1_45_1,45,1.0,654.011580492,1_I,training,05,1_A,197.0,01101,ignore,1.0,17800.0,0.348198925181
197,1_45_1,45,1.0,656.355455695,1_I,training,05,1_A,198.0,00011,ignore,1.0,17900.0,0.356195291981
198,1_45_1,45,1.0,658.668073162,1_I,training,05,1_A,199.0,00111,ignore,1.0,18000.0,0.30838034123
199,1_45_1,45,1.0,661.652653567,1_I,training,05,1_A,200.0,01010,kill,1.0,18100.0,0.999086248637
200,1_45_1,45,1.0,664.699641042,1_I,training,05,1_A,201.0,11100,ignore,1.0,18200.0,1.01048200144
201,1_45_1,45,1.0,667.137317041,1_I,training,05,1_A,202.0,11001,ignore,1.0,18300.0,0.440168689602
202,1_45_1,45,1.0,669.871820472,1_I,training,05,1_A,203.0,01110,kill,1.0,18400.0,0.757368062514
203,1_45_1,45,1.0,672.356345713,1_I,training,05,1_A,204.0,01111,ignore,1.0,18500.0,0.493081276083
204,1_45_1,45,1.0,675.325247377,1_I,training,05,1_A,205.0,00000,kill,1.0,18600.0,0.992273043918
205,1_45_1,45,1.0,678.137872861,1_I,training,05,1_A,206.0,10100,ignore,1.0,18700.0,0.814636443061
206,1_45_1,45,1.0,681.403667706,1_I,training,05,1_A,207.0,10010,kill,1.0,18800.0,1.25967152419
207,1_45_1,45,1.0,684.200687254,1_I,training,05,1_A,208.0,11000,kill,1.0,18900.0,0.832291825693
208,1_45_1,45,1.0,686.935196137,1_I,training,05,1_A,209.0,00110,kill,1.0,19000.0,0.757152533937
209,1_45_1,45,1.0,689.904099084,1_I,training,05,1_A,210.0,00101,ignore,1.0,19100.0,0.956348727803
210,1_45_1,45,1.0,692.607384227,1_I,training,05,1_A,211.0,01100,kill,1.0,19200.0,0.716433989885
211,1_45_1,45,1.0,695.25899896,1_I,training,05,1_A,212.0,01011,ignore,1.0,19300.0,0.64573067395
212,1_45_1,45,1.0,698.040383064,1_I,training,05,1_A,213.0,11010,kill,1.0,19400.0,0.818803649618
213,1_45_1,45,1.0,700.743641907,1_I,training,05,1_A,214.0,10101,ignore,1.0,19500.0,0.662496359746
214,1_45_1,45,1.0,703.353193608,1_I,training,05,1_A,215.0,01000,kill,1.0,19600.0,0.609450992266
215,1_45_1,45,1.0,705.931458384,1_I,training,05,1_A,216.0,01001,ignore,1.0,19700.0,0.600088648956
216,1_45_1,45,1.0,708.556670225,1_I,training,05,1_A,217.0,00001,ignore,1.0,19800.0,0.613808710688
217,1_45_1,45,1.0,711.166147196,1_I,training,05,1_A,218.0,10000,kill,1.0,19900.0,0.652513730325
218,1_45_1,45,1.0,714.353847891,1_I,training,05,1_A,219.0,10001,ignore,1.0,20000.0,1.17555219576
219,1_45_1,45,1.0,717.119579232,1_I,training,05,1_A,220.0,11111,ignore,1.0,20100.0,0.766300952302
220,1_45_1,45,1.0,719.963484905,1_I,training,05,1_A,221.0,10110,ignore,1.0,20200.0,0.862803552114
221,1_45_1,45,1.0,722.729290334,1_I,training,05,1_A,222.0,00100,kill,1.0,20300.0,0.752980837198
222,1_45_1,45,1.0,725.260627932,1_I,training,05,1_A,223.0,11011,ignore,1.0,20400.0,0.594718395234
223,1_45_1,45,1.0,727.729549802,1_I,training,05,1_A,224.0,00010,kill,1.0,20500.0,0.489892287031
224,1_45_1,45,1.0,730.276552992,1_I,training,05,1_A,225.0,11011,ignore,1.0,20600.0,0.549039807356
225,1_45_1,45,1.0,732.69857687,1_I,training,05,1_A,226.0,01001,ignore,1.0,20700.0,0.478309229627
226,1_45_1,45,1.0,735.308068595,1_I,training,05,1_A,227.0,10000,kill,1.0,20800.0,0.643254340401
227,1_45_1,45,1.0,737.980071945,1_I,training,05,1_A,228.0,11110,ignore,1.0,20900.0,0.680244753225
228,1_45_1,45,1.0,740.917728701,1_I,training,05,1_A,229.0,00000,kill,1.0,21000.0,0.938600334324
229,1_45_1,45,1.0,743.621023786,1_I,training,05,1_A,230.0,00010,kill,1.0,21100.0,0.698799454509
230,1_45_1,45,1.0,746.261773569,1_I,training,05,1_A,231.0,11010,kill,1.0,21200.0,0.693939477522
231,1_45_1,45,1.0,748.93379456,1_I,training,05,1_A,232.0,01111,ignore,1.0,21300.0,0.697947603465
232,1_45_1,45,1.0,751.777699592,1_I,training,05,1_A,233.0,11000,kill,1.0,21400.0,0.860165251404
233,1_45_1,45,1.0,754.293440555,1_I,training,05,1_A,234.0,00001,ignore,1.0,21500.0,0.519909452338
234,1_45_1,45,1.0,756.621693785,1_I,training,05,1_A,235.0,10001,ignore,1.0,21600.0,0.345213277073
235,1_45_1,45,1.0,759.231214375,1_I,training,05,1_A,236.0,01101,ignore,1.0,21700.0,0.652043544469
236,1_45_1,45,1.0,762.300131883,1_I,training,05,1_A,237.0,01010,kill,1.0,21800.0,1.08774418554
237,1_45_1,45,1.0,765.081509252,1_I,training,05,1_A,238.0,00110,kill,1.0,21900.0,0.78640091651
238,1_45_1,45,1.0,767.73789544,1_I,training,05,1_A,239.0,11100,ignore,1.0,22000.0,0.690211987749
239,1_45_1,45,1.0,770.206783313,1_I,training,05,1_A,240.0,00111,ignore,1.0,22100.0,0.468803200602
240,1_45_1,45,1.0,772.706908717,1_I,training,05,1_A,241.0,01011,ignore,1.0,22200.0,0.529476098782
241,1_45_1,45,1.0,775.488297953,1_I,training,05,1_A,242.0,10100,ignore,1.0,22300.0,0.769329577834
242,1_45_1,45,1.0,778.285445791,1_I,training,05,1_A,243.0,10010,kill,1.0,22400.0,0.824815998894
243,1_45_1,45,1.0,780.910456215,1_I,training,05,1_A,244.0,01100,kill,1.0,22500.0,0.671999502232
244,1_45_1,45,1.0,783.488733821,1_I,training,05,1_A,245.0,01110,kill,1.0,22600.0,0.620336147604
245,1_45_1,45,1.0,786.160744549,1_I,training,05,1_A,246.0,11101,ignore,1.0,22700.0,0.740264009677
246,1_45_1,45,1.0,788.895257922,1_I,training,05,1_A,247.0,00100,kill,1.0,22800.0,0.757297823289
247,1_45_1,45,1.0,791.489152049,1_I,training,05,1_A,248.0,10111,ignore,1.0,22900.0,0.598039844564
248,1_45_1,45,1.0,794.07145959,1_I,training,05,1_A,249.0,10011,ignore,1.0,23000.0,0.645797385179
249,1_45_1,45,1.0,796.352840487,1_I,training,05,1_A,250.0,11001,ignore,1.0,23100.0,0.332187589403
250,1_45_1,45,1.0,799.071759791,1_I,training,05,1_A,251.0,01000,kill,1.0,23200.0,0.741672642878
251,1_45_1,45,1.0,801.656349305,1_I,training,05,1_A,252.0,00101,ignore,1.0,23300.0,0.606823596274
252,1_45_1,45,1.0,804.093943839,1_I,training,05,1_A,253.0,10101,ignore,1.0,23400.0,0.461199403704
253,1_45_1,45,1.0,806.484705168,1_I,training,05,1_A,254.0,11111,ignore,1.0,23500.0,0.443274289621
254,1_45_1,45,1.0,808.891102903,1_I,training,05,1_A,255.0,00011,ignore,1.0,23600.0,0.383425339231
255,1_45_1,45,1.0,811.766248032,1_I,training,05,1_A,256.0,10110,ignore,1.0,23700.0,0.885767608877
256,1_45_1,45,1.0,814.422605035,1_I,training,05,1_A,257.0,00010,kill,1.0,23800.0,0.706269508224
257,1_45_1,45,1.0,816.766501727,1_I,training,05,1_A,258.0,00001,ignore,1.0,23900.0,0.372633515464
258,1_45_1,45,1.0,819.047856004,1_I,training,05,1_A,259.0,01111,ignore,1.0,24000.0,0.34273501916
259,1_45_1,45,1.0,821.547995841,1_I,training,05,1_A,260.0,10110,ignore,1.0,24100.0,0.495034183092
260,1_45_1,45,1.0,824.220003682,1_I,training,05,1_A,261.0,10010,kill,1.0,24200.0,0.690315903314
261,1_45_1,45,1.0,826.798293155,1_I,training,05,1_A,262.0,11110,ignore,1.0,24300.0,0.638675641039
262,1_45_1,45,1.0,829.501523774,1_I,training,05,1_A,263.0,01110,kill,1.0,24400.0,0.740322382004
263,1_45_1,45,1.0,832.282941234,1_I,training,05,1_A,264.0,10111,ignore,1.0,24500.0,0.830900511752
264,1_45_1,45,1.0,835.159010377,1_I,training,05,1_A,265.0,01100,kill,1.0,24600.0,0.900575256037
265,1_45_1,45,1.0,838.096654945,1_I,training,05,1_A,266.0,01011,ignore,1.0,24700.0,0.958832758803
266,1_45_1,45,1.0,841.206203118,1_I,training,05,1_A,267.0,10100,ignore,1.0,24800.0,1.17637486064
267,1_45_1,45,1.0,911.444245451,1_I,test,05,2,0.0,01000,ignore,1.0,100.0,1.9174650632
268,1_45_1,45,1.0,914.725679268,1_I,test,05,2,1.0,00011,kill,0.0,0.0,1.28620078283
269,1_45_1,45,1.0,918.444633531,1_I,test,05,2,2.0,10000,ignore,1.0,100.0,1.75336314384
270,1_45_1,45,1.0,921.460411377,1_I,test,05,2,3.0,00000,ignore,1.0,200.0,1.0164183384
271,1_45_1,45,1.0,925.632534359,1_I,test,05,2,4.0,00110,kill,1.0,300.0,2.1654505766
272,1_45_1,45,1.0,929.617120859,1_I,test,05,2,5.0,11010,ignore,1.0,400.0,2.0539395545
273,1_45_1,45,1.0,932.429737684,1_I,test,05,2,6.0,11101,kill,0.0,300.0,0.824334587589
274,1_45_1,45,1.0,935.914328673,1_I,test,05,2,7.0,11100,kill,0.0,200.0,1.53557312
275,1_45_1,45,1.0,939.055087757,1_I,test,05,2,8.0,11111,kill,1.0,300.0,1.176652931
276,1_45_1,45,1.0,942.195902648,1_I,test,05,2,9.0,10001,ignore,1.0,400.0,1.185408138
277,1_45_1,45,1.0,944.964771662,1_I,test,05,2,10.0,11001,ignore,1.0,500.0,0.783508599972
278,1_45_1,45,1.0,947.730541169,1_I,test,05,2,11.0,01001,ignore,1.0,600.0,0.783088126813
279,1_45_1,45,1.0,950.980687421,1_I,test,05,2,12.0,01101,ignore,1.0,700.0,1.31163379642
280,1_45_1,45,1.0,953.605818438,1_I,test,05,2,13.0,11000,ignore,1.0,800.0,0.657983730162
281,1_45_1,45,1.0,956.215320105,1_I,test,05,2,14.0,01010,ignore,1.0,900.0,0.697324110079
282,1_45_1,45,1.0,959.106103243,1_I,test,05,2,15.0,00100,ignore,0.0,800.0,0.874380515703
283,1_45_1,45,1.0,962.543797844,1_I,test,05,2,16.0,00111,kill,1.0,900.0,1.4618158411
284,1_45_1,45,1.0,965.575227171,1_I,test,05,2,17.0,00101,ignore,0.0,800.0,1.09105344724
285,1_45_1,45,1.0,968.903512474,1_I,test,05,2,18.0,10011,ignore,1.0,900.0,1.35067173073
286,1_45_1,45,1.0,971.622403875,1_I,test,05,2,19.0,11011,ignore,1.0,1000.0,0.792598646018
287,1_45_1,45,1.0,975.153814279,1_I,test,05,2,20.0,10101,ignore,0.0,900.0,1.56835559393
288,1_45_1,45,1.0,978.138369026,1_I,test,05,2,21.0,11000,ignore,1.0,1000.0,1.0239201441
289,1_45_1,45,1.0,980.888523616,1_I,test,05,2,22.0,00000,ignore,1.0,1100.0,0.823464134377
290,1_45_1,45,1.0,984.482479964,1_I,test,05,2,23.0,11110,kill,1.0,1200.0,1.67994519416
291,1_45_1,45,1.0,987.607664863,1_I,test,05,2,24.0,10111,kill,1.0,1300.0,1.14688048042
292,1_45_1,45,1.0,990.279622671,1_I,test,05,2,25.0,01000,ignore,1.0,1400.0,0.741225228645
293,1_45_1,45,1.0,992.74853107,1_I,test,05,2,26.0,00001,ignore,1.0,1500.0,0.502866658371
294,1_45_1,45,1.0,995.186116303,1_I,test,05,2,27.0,10000,ignore,1.0,1600.0,0.516382096244
295,1_45_1,45,1.0,998.342559581,1_I,test,05,2,28.0,11100,kill,0.0,1500.0,1.1659544388
296,1_45_1,45,1.0,1001.6708792,1_I,test,05,2,29.0,10110,kill,1.0,1600.0,1.34928426552
297,1_45_1,45,1.0,1006.6242394,1_I,test,05,2,30.0,01101,ignore,1.0,1700.0,3.01540035075
298,1_45_1,45,1.0,1009.4525061,1_I,test,05,2,31.0,11010,ignore,1.0,1800.0,0.876788213667
299,1_45_1,45,1.0,1012.01516109,1_I,test,05,2,32.0,10001,ignore,1.0,1900.0,0.634476041047
300,1_45_1,45,1.0,1015.46846515,1_I,test,05,2,33.0,11111,kill,1.0,2000.0,1.47942311467
301,1_45_1,45,1.0,1018.56238109,1_I,test,05,2,34.0,10101,ignore,0.0,1900.0,1.12312743512
302,1_45_1,45,1.0,1022.28132766,1_I,test,05,2,35.0,01111,ignore,0.0,1800.0,1.7995157663
303,1_45_1,45,1.0,1027.1565751,1_I,test,05,2,36.0,01001,ignore,1.0,1900.0,2.92551980233
304,1_45_1,45,1.0,1030.82862944,1_I,test,05,2,37.0,00110,ignore,0.0,1800.0,1.77701227358
305,1_45_1,45,1.0,1036.70395258,1_I,test,05,2,38.0,10011,ignore,1.0,1900.0,3.93797363367
306,1_45_1,45,1.0,1039.42284526,1_I,test,05,2,39.0,00010,ignore,1.0,2000.0,0.760874892072
307,1_45_1,45,1.0,1042.53239407,1_I,test,05,2,40.0,10100,kill,1.0,2100.0,1.19591675979
308,1_45_1,45,1.0,1045.68889444,1_I,test,05,2,41.0,11011,ignore,1.0,2200.0,1.25350682956
309,1_45_1,45,1.0,1048.45605077,1_I,test,05,2,42.0,10010,ignore,1.0,2300.0,0.8107110647
310,1_45_1,45,1.0,1051.33118179,1_I,test,05,2,43.0,01011,ignore,1.0,2400.0,0.947296527553
311,1_45_1,45,1.0,1054.89387206,1_I,test,05,2,44.0,01100,kill,0.0,2300.0,1.58806908204
312,1_45_1,45,1.0,1058.08151021,1_I,test,05,2,45.0,01110,ignore,0.0,2200.0,1.30175540329
313,1_45_1,45,1.0,1061.61297514,1_I,test,05,2,46.0,11101,kill,0.0,2100.0,1.61084519275
314,1_45_1,45,1.0,1065.2694646,1_I,test,05,2,47.0,00100,ignore,0.0,2000.0,1.67245012374
315,1_45_1,45,1.0,1068.20707101,1_I,test,05,2,48.0,00101,ignore,0.0,1900.0,1.02126708994
316,1_45_1,45,1.0,1070.91032664,1_I,test,05,2,49.0,00011,ignore,1.0,2000.0,0.756106643024
317,1_45_1,45,1.0,1073.31674009,1_I,test,05,2,50.0,01010,ignore,1.0,2100.0,0.537385869276
318,1_45_1,45,1.0,1075.72307336,1_I,test,05,2,51.0,11001,ignore,1.0,2200.0,0.418649508199
319,1_45_1,45,1.0,1082.30157323,1_I,test,05,2,52.0,00111,kill,1.0,2300.0,4.62536129902
320,1_45_1,45,1.0,1084.97359037,1_I,test,05,2,53.0,00001,ignore,1.0,2400.0,0.750650755184
321,1_45_1,45,1.0,1087.64561617,1_I,test,05,2,54.0,11000,ignore,1.0,2500.0,0.728325586708
322,1_45_1,45,1.0,1091.11448544,1_I,test,05,2,55.0,00111,kill,1.0,2600.0,1.56553993116
323,1_45_1,45,1.0,1094.05213867,1_I,test,05,2,56.0,01101,kill,0.0,2500.0,0.956482470985
324,1_45_1,45,1.0,1096.84919222,1_I,test,05,2,57.0,10000,ignore,1.0,2600.0,0.854143921773
325,1_45_1,45,1.0,1100.00561465,1_I,test,05,2,58.0,00010,ignore,1.0,2700.0,1.2539625827
326,1_45_1,45,1.0,1102.69328648,1_I,test,05,2,59.0,01001,ignore,1.0,2800.0,0.731100837867
327,1_45_1,45,1.0,1105.44343401,1_I,test,05,2,60.0,01011,ignore,1.0,2900.0,0.864244578748
328,1_45_1,45,1.0,1107.78729574,1_I,test,05,2,61.0,11001,ignore,1.0,3000.0,0.405952245026
329,1_45_1,45,1.0,1110.1311145,1_I,test,05,2,62.0,10010,ignore,1.0,3100.0,0.406074442031
330,1_45_1,45,1.0,1112.52193837,1_I,test,05,2,63.0,00011,ignore,1.0,3200.0,0.496878363625
331,1_45_1,45,1.0,1115.70958198,1_I,test,05,2,64.0,10100,kill,1.0,3300.0,1.26995820285
332,1_45_1,45,1.0,1118.75663039,1_I,test,05,2,65.0,01100,kill,0.0,3200.0,1.106691136
333,1_45_1,45,1.0,1121.56928121,1_I,test,05,2,66.0,00110,kill,1.0,3300.0,0.886865457571
334,1_45_1,45,1.0,1124.7256844,1_I,test,05,2,67.0,10011,ignore,1.0,3400.0,1.2032623714
335,1_45_1,45,1.0,1127.06959681,1_I,test,05,2,68.0,01000,ignore,1.0,3500.0,0.461258417483
336,1_45_1,45,1.0,1130.36660898,1_I,test,05,2,69.0,11101,kill,0.0,3400.0,1.31406073801
337,1_45_1,45,1.0,1133.25740847,1_I,test,05,2,70.0,00000,ignore,1.0,3500.0,0.932682278806
338,1_45_1,45,1.0,1136.07122642,1_I,test,05,2,71.0,11010,ignore,1.0,3600.0,0.920935650611
339,1_45_1,45,1.0,1138.61821326,1_I,test,05,2,72.0,10001,ignore,1.0,3700.0,0.595303401376
340,1_45_1,45,1.0,1141.55589246,1_I,test,05,2,73.0,11111,kill,1.0,3800.0,1.05453738972
341,1_45_1,45,1.0,1144.68106325,1_I,test,05,2,74.0,10111,kill,1.0,3900.0,1.13068344369
342,1_45_1,45,1.0,1148.61874245,1_I,test,05,2,75.0,01110,ignore,0.0,3800.0,1.98074451011
343,1_45_1,45,1.0,1152.74397418,1_I,test,05,2,76.0,10110,kill,1.0,3900.0,2.22172662766
344,1_45_1,45,1.0,1155.72851899,1_I,test,05,2,77.0,01010,ignore,1.0,4000.0,1.05192314354
345,1_45_1,45,1.0,1158.72866267,1_I,test,05,2,78.0,11110,kill,1.0,4100.0,1.11696145759
346,1_45_1,45,1.0,1163.11953048,1_I,test,05,2,79.0,00100,ignore,0.0,4000.0,2.46377997355
347,1_45_1,45,1.0,1165.91656831,1_I,test,05,2,80.0,11011,ignore,1.0,4100.0,0.852801999798
348,1_45_1,45,1.0,1170.55743131,1_I,test,05,2,81.0,10101,kill,1.0,4200.0,2.74850926067
349,1_45_1,45,1.0,1173.93260627,1_I,test,05,2,82.0,00101,ignore,0.0,4100.0,1.47845644334
350,1_45_1,45,1.0,1177.02651643,1_I,test,05,2,83.0,01111,ignore,0.0,4000.0,1.14788660118
351,1_45_1,45,1.0,1180.88609539,1_I,test,05,2,84.0,11100,kill,0.0,3900.0,1.95057275437
352,1_45_1,45,1.0,1183.93307709,1_I,test,05,2,85.0,11111,kill,1.0,4000.0,1.11211206459
353,1_45_1,45,1.0,1188.62084867,1_I,test,05,2,86.0,00111,kill,1.0,4100.0,2.7816544769
354,1_45_1,45,1.0,1191.35736081,1_I,test,05,2,87.0,01111,kill,1.0,4200.0,0.771533934847
355,1_45_1,45,1.0,1194.12311878,1_I,test,05,2,88.0,11000,ignore,1.0,4300.0,0.820564761849
356,1_45_1,45,1.0,1197.46709148,1_I,test,05,2,89.0,00110,kill,1.0,4400.0,1.45382845465
357,1_45_1,45,1.0,1200.37349242,1_I,test,05,2,90.0,00011,ignore,1.0,4500.0,0.971622712092
358,1_45_1,45,1.0,1203.2017386,1_I,test,05,2,91.0,10011,ignore,1.0,4600.0,0.975931680005
359,1_45_1,45,1.0,1205.6862478,1_I,test,05,2,92.0,11011,ignore,1.0,4700.0,0.536882007083
360,1_45_1,45,1.0,1208.28015091,1_I,test,05,2,93.0,00000,ignore,1.0,4800.0,0.635382736418
361,1_45_1,45,1.0,1212.96787149,1_I,test,05,2,94.0,10101,kill,1.0,4900.0,2.79617667699
362,1_45_1,45,1.0,1216.29617379,1_I,test,05,3,0.0,01011,ignore,1.0,5000.0,1.38673203512
363,1_45_1,45,1.0,1221.24958979,1_I,test,05,3,1.0,10100,ignore,0.0,4900.0,3.06928281583
364,1_45_1,45,1.0,1223.7809569,1_I,test,05,3,2.0,11001,ignore,0.0,4800.0,0.551876317386
365,1_45_1,45,1.0,1227.85931917,1_I,test,05,3,3.0,00100,kill,0.0,4700.0,2.12910450442
366,1_45_1,45,1.0,1230.4844194,1_I,test,05,3,4.0,00001,ignore,1.0,4800.0,0.717127401764
367,1_45_1,45,1.0,1233.59399933,1_I,test,05,3,5.0,11110,kill,1.0,4900.0,1.18487348601
368,1_45_1,45,1.0,1238.75048462,1_I,test,05,3,6.0,11101,kill,0.0,4800.0,3.28431170051
369,1_45_1,45,1.0,1241.61002221,1_I,test,05,3,7.0,00101,kill,0.0,4700.0,0.927561871456
370,1_45_1,45,1.0,1244.21954344,1_I,test,05,3,8.0,01100,kill,0.0,4600.0,0.674413935463
371,1_45_1,45,1.0,1246.813418,1_I,test,05,3,9.0,11100,kill,1.0,4700.0,0.72295469153
372,1_45_1,45,1.0,1250.20420659,1_I,test,05,3,10.0,10010,ignore,0.0,4600.0,1.48793713493
373,1_45_1,45,1.0,1254.97008996,1_I,test,05,3,11.0,01000,ignore,1.0,4700.0,2.83646031516
374,1_45_1,45,1.0,1257.72133245,1_I,test,05,3,12.0,01001,ignore,1.0,4800.0,0.834512860511
375,1_45_1,45,1.0,1260.53400958,1_I,test,05,3,13.0,11010,ignore,0.0,4700.0,0.889557961149
376,1_45_1,45,1.0,1264.56546232,1_I,test,05,3,14.0,10110,kill,1.0,4800.0,2.15351279508
377,1_45_1,45,1.0,1269.06570863,1_I,test,05,3,15.0,00010,kill,0.0,4700.0,2.54535978519
378,1_45_1,45,1.0,1272.23771359,1_I,test,05,3,16.0,10000,kill,1.0,4800.0,1.22633900336
379,1_45_1,45,1.0,1274.70657933,1_I,test,05,3,17.0,10001,kill,1.0,4900.0,0.579017202515
380,1_45_1,45,1.0,1277.69113857,1_I,test,05,3,18.0,01110,ignore,1.0,5000.0,1.0608640515
381,1_45_1,45,1.0,1280.44128578,1_I,test,05,3,19.0,10111,kill,0.0,4900.0,0.868949965297
382,1_45_1,45,1.0,1283.92583027,1_I,test,05,3,20.0,01010,ignore,1.0,5000.0,1.5460961745
383,1_45_1,45,1.0,1286.92635818,1_I,test,05,3,21.0,01101,ignore,1.0,5100.0,1.05996826085
384,1_45_1,45,1.0,1289.4733556,1_I,test,05,3,22.0,01011,ignore,1.0,5200.0,0.668242184845
385,1_45_1,45,1.0,1291.98907732,1_I,test,05,3,23.0,00001,ignore,1.0,5300.0,0.577861943682
386,1_45_1,45,1.0,1294.40496056,1_I,test,05,3,24.0,00100,ignore,1.0,5400.0,0.533339576821
387,1_45_1,45,1.0,1296.96759695,1_I,test,05,3,25.0,01111,ignore,1.0,5500.0,0.657944601458
388,1_45_1,45,1.0,1299.71773871,1_I,test,05,3,26.0,10011,kill,1.0,5600.0,0.816384084752
389,1_45_1,45,1.0,1302.63976772,1_I,test,05,3,27.0,00000,ignore,1.0,5700.0,1.05080508904
390,1_45_1,45,1.0,1307.65566102,1_I,test,05,3,28.0,11100,kill,1.0,5800.0,3.13903774188
391,1_45_1,45,1.0,1310.84331265,1_I,test,05,3,29.0,00111,ignore,1.0,5900.0,1.2434003995
392,1_45_1,45,1.0,1314.24975689,1_I,test,05,4,0.0,10010,kill,1.0,6000.0,1.48289658862
393,1_45_1,45,1.0,1317.71869223,1_I,test,05,4,1.0,10110,kill,1.0,6100.0,1.53528189983
394,1_45_1,45,1.0,1321.87513615,1_I,test,05,4,2.0,11011,kill,0.0,6000.0,2.29260698492
395,1_45_1,45,1.0,1325.34721461,1_I,test,05,4,3.0,10111,ignore,0.0,5900.0,1.51901398242
396,1_45_1,45,1.0,1328.86302389,1_I,test,05,4,4.0,10000,kill,0.0,5800.0,1.57003043058
397,1_45_1,45,1.0,1331.8319015,1_I,test,05,4,5.0,11000,kill,0.0,5700.0,1.0933982827
398,1_45_1,45,1.0,1335.26958584,1_I,test,05,4,6.0,10101,kill,0.0,5600.0,1.48937431284
399,1_45_1,45,1.0,1339.01977956,1_I,test,05,4,7.0,00110,ignore,0.0,5500.0,1.87197345919
400,1_45_1,45,1.0,1347.35026537,1_I,test,05,4,8.0,11111,ignore,1.0,5600.0,6.35565614981
401,1_45_1,45,1.0,1350.15353717,1_I,test,05,4,9.0,01100,ignore,1.0,5700.0,0.831206806084
402,1_45_1,45,1.0,1352.84118719,1_I,test,05,4,10.0,01000,ignore,1.0,5800.0,0.791685856835
403,1_45_1,45,1.0,1355.35696087,1_I,test,05,4,11.0,01010,ignore,0.0,5700.0,0.593532346604
404,1_45_1,45,1.0,1357.9977129,1_I,test,05,4,12.0,00101,ignore,1.0,5800.0,0.764934655068
405,1_45_1,45,1.0,1361.06040188,1_I,test,05,4,13.0,11010,kill,0.0,5700.0,1.18492833033
406,1_45_1,45,1.0,1363.90430243,1_I,test,05,4,14.0,01001,ignore,1.0,5800.0,0.897202169654
407,1_45_1,45,1.0,1366.68568172,1_I,test,05,4,15.0,11101,ignore,1.0,5900.0,0.9203865659
408,1_45_1,45,1.0,1369.45146085,1_I,test,05,4,16.0,01101,ignore,1.0,6000.0,0.827956558162
409,1_45_1,45,1.0,1372.01410205,1_I,test,05,4,17.0,10100,ignore,1.0,6100.0,0.685853627871
410,1_45_1,45,1.0,1375.49861735,1_I,test,05,4,18.0,01110,kill,1.0,6200.0,1.58013974719
411,1_45_1,45,1.0,1378.24879952,1_I,test,05,4,19.0,10001,ignore,1.0,6300.0,0.820687279578
412,1_45_1,45,1.0,1380.81141795,1_I,test,05,4,20.0,11001,ignore,1.0,6400.0,0.711768052763
413,1_45_1,45,1.0,1383.59283156,1_I,test,05,4,21.0,00011,ignore,0.0,6300.0,0.885459710909
414,1_45_1,45,1.0,1386.57732729,1_I,test,05,4,22.0,11110,ignore,1.0,6400.0,1.05051803833
415,1_45_1,45,1.0,1389.59314491,1_I,test,05,4,23.0,00010,kill,1.0,6500.0,1.10534696894
416,1_45_1,45,1.0,1392.48389341,1_I,test,05,4,24.0,11101,ignore,1.0,6600.0,0.949378687561
417,1_45_1,45,1.0,1395.10903725,1_I,test,05,4,25.0,01110,kill,1.0,6700.0,0.78731402642
418,1_45_1,45,1.0,1397.68732448,1_I,test,05,4,26.0,00110,kill,1.0,6800.0,0.619668393887
419,1_45_1,45,1.0,1400.67182471,1_I,test,05,4,27.0,01001,ignore,1.0,6900.0,1.05150812273
420,1_45_1,45,1.0,1402.98446045,1_I,test,05,4,28.0,00000,ignore,1.0,7000.0,0.443779434725
421,1_45_1,45,1.0,1405.7345849,1_I,test,05,4,29.0,01011,kill,1.0,7100.0,0.843753327543
422,1_45_1,45,1.0,1408.50034895,1_I,test,05,4,30.0,11111,ignore,1.0,7200.0,0.909817005973
423,1_45_1,45,1.0,1411.54739865,1_I,test,05,4,31.0,01100,ignore,1.0,7300.0,1.10586269803
424,1_45_1,45,1.0,1414.29758371,1_I,test,05,5,0.0,10000,ignore,1.0,7400.0,0.813829493803
425,1_45_1,45,1.0,1416.76648665,1_I,test,05,5,1.0,00001,ignore,1.0,7500.0,0.59163620829
426,1_45_1,45,1.0,1419.62601237,1_I,test,05,5,2.0,10110,ignore,0.0,7400.0,0.929036895155
427,1_45_1,45,1.0,1422.46991324,1_I,test,05,5,3.0,00011,kill,0.0,7300.0,0.983306798516
428,1_45_1,45,1.0,1425.36068323,1_I,test,05,5,4.0,11001,ignore,1.0,7400.0,0.985550604957
429,1_45_1,45,1.0,1428.76709219,1_I,test,05,5,5.0,01111,kill,1.0,7500.0,1.47451791517
430,1_45_1,45,1.0,1431.53287613,1_I,test,05,5,6.0,01000,ignore,1.0,7600.0,0.898530621093
431,1_45_1,45,1.0,1435.25185829,1_I,test,05,5,7.0,11100,ignore,1.0,7700.0,1.83280274388
432,1_45_1,45,1.0,1437.9238764,1_I,test,05,5,8.0,10010,ignore,1.0,7800.0,0.743015847765
433,1_45_1,45,1.0,1440.8927864,1_I,test,05,5,9.0,00111,kill,1.0,7900.0,1.05076916761
434,1_45_1,45,1.0,1443.67417499,1_I,test,05,5,10.0,00100,ignore,0.0,7800.0,0.840335660101
435,1_45_1,45,1.0,1446.40869061,1_I,test,05,5,11.0,11011,ignore,1.0,7900.0,0.882659763767
436,1_45_1,45,1.0,1449.29948658,1_I,test,05,5,12.0,10100,ignore,0.0,7800.0,0.93510248512
437,1_45_1,45,1.0,1452.31527469,1_I,test,05,5,13.0,10111,ignore,0.0,7700.0,1.0818745598
438,1_45_1,45,1.0,1455.81546713,1_I,test,05,5,14.0,00010,kill,0.0,7600.0,1.61686620166
439,1_45_1,45,1.0,1458.69058628,1_I,test,05,5,15.0,11010,ignore,1.0,7700.0,0.952417576358
440,1_45_1,45,1.0,1461.89391151,1_I,test,05,5,16.0,01101,ignore,1.0,7800.0,1.341661225
441,1_45_1,45,1.0,1464.98779024,1_I,test,05,5,17.0,10011,ignore,1.0,7900.0,1.15957357414
442,1_45_1,45,1.0,1467.98796568,1_I,test,05,5,18.0,10101,ignore,0.0,7800.0,1.05702847672
443,1_45_1,45,1.0,1471.69128418,1_I,test,05,5,19.0,00101,ignore,0.0,7700.0,1.82507642926
444,1_45_1,45,1.0,1475.73839417,1_I,test,05,5,20.0,10001,ignore,1.0,7800.0,2.10417695666
445,1_45_1,45,1.0,1478.44164692,1_I,test,05,5,21.0,11000,ignore,1.0,7900.0,0.846867907923
446,1_45_1,45,1.0,1481.19178804,1_I,test,05,5,22.0,01010,ignore,1.0,8000.0,0.796350190321
447,1_45_1,45,1.0,1484.02005731,1_I,test,05,5,23.0,11110,kill,1.0,8100.0,0.917521831892
448,1_45_1,45,1.0,1486.59830669,1_I,test,05,5,24.0,10101,kill,1.0,8200.0,0.691248577576
449,1_45_1,45,1.0,1489.30160049,1_I,test,05,5,25.0,11000,ignore,1.0,8300.0,0.768482858424
450,1_45_1,45,1.0,1491.62984474,1_I,test,05,5,26.0,10001,ignore,1.0,8400.0,0.468829500216
451,1_45_1,45,1.0,1493.94246926,1_I,test,05,5,27.0,11001,ignore,1.0,8500.0,0.42026116162
452,1_45_1,45,1.0,1496.25503509,1_I,test,05,5,28.0,10011,ignore,1.0,8600.0,0.364162472626
453,1_45_1,45,1.0,1498.86460572,1_I,test,05,5,29.0,11101,kill,0.0,8500.0,0.753015796447
454,1_45_1,45,1.0,1501.21161603,1_I,test,05,5,30.0,01111,kill,1.0,8600.0,0.486309445154
455,1_45_1,45,1.0,1503.63364087,1_I,test,05,5,31.0,01100,kill,0.0,8500.0,0.500299238338
456,1_45_1,45,1.0,1505.96186555,1_I,test,05,5,32.0,10111,kill,1.0,8600.0,0.40972399513
457,1_45_1,45,1.0,1508.72763474,1_I,test,05,5,33.0,11100,kill,0.0,8500.0,0.834183153107
458,1_45_1,45,1.0,1511.38405749,1_I,test,05,5,34.0,00111,kill,1.0,8600.0,0.780242957157
459,1_45_1,45,1.0,1514.16707281,1_I,test,05,5,35.0,01001,ignore,1.0,8700.0,0.836274614197
460,1_45_1,45,1.0,1517.01097945,1_I,test,05,5,36.0,10100,ignore,0.0,8600.0,0.923482864837
461,1_45_1,45,1.0,1519.38610886,1_I,test,05,5,37.0,01000,ignore,1.0,8700.0,0.497732139032
462,1_45_1,45,1.0,1521.96438037,1_I,test,05,5,38.0,10000,ignore,1.0,8800.0,0.654439054804
463,1_45_1,45,1.0,1524.26133898,1_I,test,05,5,39.0,00000,ignore,1.0,8900.0,0.440461513397
464,1_45_1,45,1.0,1526.57396864,1_I,test,05,5,40.0,01011,ignore,1.0,9000.0,0.37500721636
465,1_45_1,45,1.0,1531.449235,1_I,test,05,5,41.0,00100,kill,1.0,9100.0,2.90365583935
466,1_45_1,45,1.0,1534.29314196,1_I,test,05,5,42.0,11011,ignore,1.0,9200.0,0.989060962514
467,1_45_1,45,1.0,1536.77764892,1_I,test,05,5,43.0,00011,ignore,1.0,9300.0,0.550321753377
468,1_45_1,45,1.0,1539.43401586,1_I,test,05,5,44.0,11111,kill,1.0,9400.0,0.812102699369
469,1_45_1,45,1.0,1541.93414511,1_I,test,05,5,45.0,11010,ignore,1.0,9500.0,0.605902147461
470,1_45_1,45,1.0,1544.41867805,1_I,test,05,5,46.0,10010,ignore,1.0,9600.0,0.550387823147
471,1_45_1,45,1.0,1547.34068044,1_I,test,05,6,0.0,10110,kill,1.0,9700.0,1.07633400002
472,1_45_1,45,1.0,1549.95020809,1_I,test,05,6,1.0,01010,ignore,1.0,9800.0,0.740670691575
473,1_45_1,45,1.0,1552.87226308,1_I,test,05,6,2.0,00110,kill,0.0,9700.0,0.932538272358
474,1_45_1,45,1.0,1555.36122076,1_I,test,05,6,3.0,00010,ignore,1.0,9800.0,0.593521121158
475,1_45_1,45,1.0,1558.15825025,1_I,test,05,6,4.0,11110,kill,1.0,9900.0,0.875247120191
476,1_45_1,45,1.0,1560.76775641,1_I,test,05,6,5.0,01101,kill,0.0,9800.0,0.747721555035
477,1_45_1,45,1.0,1563.29912801,1_I,test,05,6,6.0,00101,kill,0.0,9700.0,0.648233948574
478,1_45_1,45,1.0,1565.90865694,1_I,test,05,6,7.0,01110,kill,0.0,9600.0,0.695448177565
479,1_45_1,45,1.0,1568.65879549,1_I,test,05,6,8.0,00001,ignore,1.0,9700.0,0.861955549797
480,1_45_1,45,1.0,1571.58079146,1_I,test,05,6,9.0,00101,ignore,1.0,9800.0,0.963542956255
481,1_45_1,45,1.0,1574.42849455,1_I,test,05,6,10.0,11111,kill,0.0,9700.0,1.01655657176
482,1_45_1,45,1.0,1577.3036323,1_I,test,05,6,11.0,00010,ignore,1.0,9800.0,0.92797208135
483,1_45_1,45,1.0,1579.75690397,1_I,test,05,6,12.0,00011,ignore,1.0,9900.0,0.523912125922
484,1_45_1,45,1.0,1582.25703162,1_I,test,05,6,13.0,01010,ignore,1.0,10000.0,0.617927487459
485,1_45_1,45,1.0,1584.66339953,1_I,test,05,6,14.0,11010,ignore,0.0,9900.0,0.482542505957
486,1_45_1,45,1.0,1587.38228997,1_I,test,05,6,15.0,11011,ignore,0.0,9800.0,0.875125564638
487,1_45_1,45,1.0,1590.14804472,1_I,test,05,6,16.0,00100,ignore,1.0,9900.0,0.782564058813
488,1_45_1,45,1.0,1592.85135712,1_I,test,05,6,17.0,11001,kill,1.0,10000.0,0.775643410536
489,1_45_1,45,1.0,1595.45772176,1_I,test,05,6,18.0,01000,ignore,1.0,10100.0,0.731599889157
490,1_45_1,45,1.0,1597.97346465,1_I,test,05,6,19.0,01100,ignore,1.0,10200.0,0.566706736165
491,1_45_1,45,1.0,1600.56740849,1_I,test,05,6,20.0,10111,kill,0.0,10100.0,0.731370569316
492,1_45_1,45,1.0,1603.30187439,1_I,test,05,6,21.0,11110,kill,1.0,10200.0,0.831824847111
493,1_45_1,45,1.0,1605.84888785,1_I,test,05,6,22.0,11100,kill,1.0,10300.0,0.61490784229
494,1_45_1,45,1.0,1608.17715615,1_I,test,05,6,23.0,10100,kill,1.0,10400.0,0.449669266265
495,1_45_1,45,1.0,1610.91335174,1_I,test,05,6,24.0,00110,ignore,1.0,10500.0,0.850213732505
496,1_45_1,45,1.0,1613.36661187,1_I,test,05,6,25.0,10110,kill,1.0,10600.0,0.528618795375
497,1_45_1,45,1.0,1615.64798603,1_I,test,05,6,26.0,10010,kill,1.0,10700.0,0.373268234292
498,1_45_1,45,1.0,1618.88250485,1_I,test,05,6,27.0,01011,ignore,1.0,10800.0,1.30317173394
499,1_45_1,45,1.0,1622.17958117,1_I,test,05,6,28.0,11101,kill,0.0,10700.0,1.46256281439
500,1_45_1,45,1.0,1625.22662958,1_I,test,05,6,29.0,10101,ignore,1.0,10800.0,1.09169393916
501,1_45_1,45,1.0,1628.19553413,1_I,test,05,6,30.0,10011,kill,1.0,10900.0,1.0406871128
502,1_45_1,45,1.0,1630.99252834,1_I,test,05,6,31.0,00111,ignore,1.0,11000.0,0.921572293802
503,1_45_1,45,1.0,1633.64894885,1_I,test,05,6,32.0,01110,ignore,1.0,11100.0,0.741941732878
504,1_45_1,45,1.0,1636.71161475,1_I,test,05,6,33.0,10001,kill,1.0,11200.0,1.19562810544
505,1_45_1,45,1.0,1639.86799516,1_I,test,05,6,34.0,01101,ignore,1.0,11300.0,1.21117502845
506,1_45_1,45,1.0,1642.41507757,1_I,test,05,6,35.0,01001,ignore,1.0,11400.0,0.627086810549
507,1_45_1,45,1.0,1644.85268429,1_I,test,05,6,36.0,00001,ignore,1.0,11500.0,0.557169275889
508,1_45_1,45,1.0,1647.47780537,1_I,test,05,6,37.0,11000,kill,1.0,11600.0,0.679871106211
509,1_45_1,45,1.0,1650.02483101,1_I,test,05,6,38.0,10000,kill,1.0,11700.0,0.671028982179
510,1_45_1,45,1.0,1652.5562552,1_I,test,05,7,0.0,01111,ignore,0.0,11600.0,0.638004038592
511,1_45_1,45,1.0,1655.50949512,1_I,test,05,7,1.0,00000,ignore,1.0,11700.0,0.996571427837
512,1_45_1,45,1.0,1658.30651082,1_I,test,05,7,2.0,10011,kill,1.0,11800.0,0.944307672176
513,1_45_1,45,1.0,1661.00975299,1_I,test,05,7,3.0,11011,kill,0.0,11700.0,0.82144932705
514,1_45_1,45,1.0,1664.10369587,1_I,test,05,7,4.0,11000,kill,0.0,11600.0,1.14847417313
515,1_45_1,45,1.0,1668.72894459,1_I,test,05,7,5.0,01111,ignore,0.0,11500.0,2.70302791993
516,1_45_1,45,1.0,1671.68223005,1_I,test,05,7,6.0,01110,ignore,0.0,11400.0,1.02599909683
517,1_45_1,45,1.0,1674.5104804,1_I,test,05,7,7.0,10010,ignore,0.0,11300.0,0.988911182983
518,1_45_1,45,1.0,1677.01063082,1_I,test,05,7,8.0,11001,ignore,1.0,11400.0,0.640568572086
519,1_45_1,45,1.0,1679.74516023,1_I,test,05,7,9.0,11111,kill,0.0,11300.0,0.824354472668
520,1_45_1,45,1.0,1682.47966911,1_I,test,05,7,10.0,00011,kill,1.0,11400.0,0.833511871391
521,1_45_1,45,1.0,1685.18296356,1_I,test,05,7,11.0,11101,ignore,1.0,11500.0,0.793110847117
522,1_45_1,45,1.0,1687.94868977,1_I,test,05,7,12.0,00101,ignore,1.0,11600.0,0.884856744055
523,1_45_1,45,1.0,1690.62070081,1_I,test,05,7,13.0,10000,ignore,1.0,11700.0,0.737116073684
524,1_45_1,45,1.0,1693.23018933,1_I,test,05,7,14.0,00110,kill,1.0,11800.0,0.676371974103
525,1_45_1,45,1.0,1696.04285972,1_I,test,05,7,15.0,01100,ignore,1.0,11900.0,0.956674907211
526,1_45_1,45,1.0,1698.71488712,1_I,test,05,7,16.0,10111,kill,1.0,12000.0,0.735086192188
527,1_45_1,45,1.0,1701.35564749,1_I,test,05,7,17.0,10001,ignore,1.0,12100.0,0.789732629102
528,1_45_1,45,1.0,1704.26206992,1_I,test,05,7,18.0,11100,ignore,1.0,12200.0,0.958046015352
529,1_45_1,45,1.0,1707.18411368,1_I,test,05,7,19.0,01011,kill,1.0,12300.0,1.0082500619
530,1_45_1,45,1.0,1709.73110372,1_I,test,05,8,0.0,11110,kill,0.0,12200.0,0.675181756018
531,1_45_1,45,1.0,1712.38750499,1_I,test,05,8,1.0,00010,kill,1.0,12300.0,0.729151779586
532,1_45_1,45,1.0,1714.79388829,1_I,test,05,8,2.0,01010,kill,1.0,12400.0,0.576488911185
533,1_45_1,45,1.0,1717.79401209,1_I,test,05,8,3.0,10100,ignore,1.0,12500.0,1.09100213091
534,1_45_1,45,1.0,1720.29415802,1_I,test,05,8,4.0,01000,ignore,0.0,12400.0,0.584556800117
535,1_45_1,45,1.0,1723.34116698,1_I,test,05,8,5.0,11010,kill,0.0,12300.0,1.20581888672
536,1_45_1,45,1.0,1726.62260369,1_I,test,05,8,6.0,00001,ignore,0.0,12200.0,1.40004926367
537,1_45_1,45,1.0,1729.68525194,1_I,test,05,8,7.0,01101,kill,1.0,12300.0,1.13586735499
538,1_45_1,45,1.0,1732.68539787,1_I,test,05,8,8.0,10110,ignore,1.0,12400.0,1.09212210977
539,1_45_1,45,1.0,1735.52931317,1_I,test,05,8,9.0,10101,kill,0.0,12300.0,0.904278049828
540,1_45_1,45,1.0,1738.20133801,1_I,test,05,8,10.0,00100,kill,0.0,12200.0,0.798991698302
541,1_45_1,45,1.0,1741.1077088,1_I,test,05,8,11.0,00111,kill,0.0,12100.0,0.951016961328
542,1_45_1,45,1.0,1743.68600565,1_I,test,05,8,12.0,01001,ignore,0.0,12000.0,0.640418151099
543,1_45_1,45,1.0,1746.38927444,1_I,test,05,8,13.0,00000,ignore,0.0,11900.0,0.817637165339
544,1_45_1,45,1.0,1749.8738077,1_I,test,05,8,14.0,01111,ignore,0.0,11800.0,1.56142083366
545,1_45_1,45,1.0,1752.78023847,1_I,test,05,8,15.0,10101,ignore,1.0,11900.0,1.03806773499
546,1_45_1,45,1.0,1755.28033982,1_I,test,05,8,16.0,10010,ignore,1.0,12000.0,0.548184749045
547,1_45_1,45,1.0,1757.98362913,1_I,test,05,8,17.0,01110,kill,1.0,12100.0,0.791247422956
548,1_45_1,45,1.0,1760.26498501,1_I,test,05,8,18.0,00011,kill,1.0,12200.0,0.402708090915
549,1_45_1,45,1.0,1762.95264144,1_I,test,05,8,19.0,11110,ignore,1.0,12300.0,0.771931315663
550,1_45_1,45,1.0,1765.48400951,1_I,test,05,8,20.0,10111,ignore,1.0,12400.0,0.688967246071
551,1_45_1,45,1.0,1768.39039762,1_I,test,05,8,21.0,01011,kill,1.0,12500.0,1.03288799313
552,1_45_1,45,1.0,1771.1718308,1_I,test,05,8,22.0,11000,ignore,1.0,12600.0,0.864410394635
553,1_45_1,45,1.0,1773.7657137,1_I,test,05,8,23.0,11010,ignore,1.0,12700.0,0.746434156663
554,1_45_1,45,1.0,1776.21892411,1_I,test,05,8,24.0,10001,ignore,1.0,12800.0,0.591516577097
555,1_45_1,45,1.0,1778.6566107,1_I,test,05,9,0.0,11011,ignore,1.0,12900.0,0.580193308608
556,1_45_1,45,1.0,1781.43797877,1_I,test,05,9,1.0,00101,kill,1.0,13000.0,0.861353224398
557,1_45_1,45,1.0,1784.11000874,1_I,test,05,9,2.0,01010,kill,0.0,12900.0,0.739911209923
558,1_45_1,45,1.0,1786.71949725,1_I,test,05,9,3.0,00100,kill,1.0,13000.0,0.744857462483
559,1_45_1,45,1.0,1789.17273974,1_I,test,05,9,4.0,11101,ignore,1.0,13100.0,0.590721815468
560,1_45_1,45,1.0,1791.64168021,1_I,test,05,9,5.0,11001,ignore,1.0,13200.0,0.552518092216
561,1_45_1,45,1.0,1794.37615414,1_I,test,05,9,6.0,10011,ignore,1.0,13300.0,0.819967247353
562,1_45_1,45,1.0,1797.09505869,1_I,test,05,9,7.0,11100,ignore,0.0,13200.0,0.812373392997
563,1_45_1,45,1.0,1799.82955827,1_I,test,05,9,8.0,00000,kill,1.0,13300.0,0.888116293063
564,1_45_1,45,1.0,1802.48595985,1_I,test,05,9,9.0,01000,kill,1.0,13400.0,0.716987564774
565,1_45_1,45,1.0,1805.3142118,1_I,test,05,9,10.0,01101,kill,0.0,13300.0,0.896969963269
566,1_45_1,45,1.0,1808.37689886,1_I,test,05,9,11.0,00001,kill,1.0,13400.0,1.18385068744
567,1_45_1,45,1.0,1811.23643613,1_I,test,05,9,12.0,10000,ignore,0.0,13300.0,0.944601137424
568,1_45_1,45,1.0,1813.9396953,1_I,test,05,9,13.0,11111,ignore,1.0,13400.0,0.863817049594
569,1_45_1,45,1.0,1817.03360321,1_I,test,05,9,14.0,00010,kill,0.0,13300.0,1.15763766567
570,1_45_1,45,1.0,1819.64311931,1_I,test,05,9,15.0,01100,kill,1.0,13400.0,0.679392260728
571,1_45_1,45,1.0,1823.20583909,1_I,test,05,9,16.0,00110,ignore,1.0,13500.0,1.69554760295
572,1_45_1,45,1.0,1826.28409361,1_I,test,05,9,17.0,00111,kill,0.0,13400.0,1.13112123611
573,1_45_1,45,1.0,1829.08112759,1_I,test,05,9,18.0,10100,ignore,0.0,13300.0,0.94513258215
574,1_45_1,45,1.0,1831.8312501,1_I,test,05,9,19.0,01001,ignore,1.0,13400.0,0.83683299999
575,1_45_1,45,1.0,1834.55017935,1_I,test,05,9,20.0,10110,kill,0.0,13300.0,0.779993110784
576,1_45_1,45,1.0,1837.51905696,1_I,test,05,9,21.0,11110,kill,0.0,13200.0,1.14508023949
577,1_45_1,45,1.0,1840.50360112,1_I,test,05,9,22.0,11111,kill,0.0,13100.0,1.12649667278
578,1_45_1,45,1.0,1843.37873278,1_I,test,05,9,23.0,10000,ignore,0.0,13000.0,0.912764487563
579,1_45_1,45,1.0,1846.28518536,1_I,test,05,9,24.0,01110,ignore,1.0,13100.0,0.997910463269
580,1_45_1,45,1.0,1849.05089393,1_I,test,05,9,25.0,00100,ignore,0.0,13000.0,0.837806406584
581,1_45_1,45,1.0,1851.72294892,1_I,test,05,9,26.0,10110,ignore,1.0,13100.0,0.833214878141
582,1_45_1,45,1.0,1854.33243519,1_I,test,05,9,27.0,11010,ignore,1.0,13200.0,0.680772028496
583,1_45_1,45,1.0,1856.80133108,1_I,test,05,9,28.0,01011,ignore,1.0,13300.0,0.541844937452
584,1_45_1,45,1.0,1859.55144205,1_I,test,05,9,29.0,00101,kill,1.0,13400.0,0.8671275942
585,1_45_1,45,1.0,1862.33289608,1_I,test,05,9,30.0,10001,kill,1.0,13500.0,0.856783505395
586,1_45_1,45,1.0,1864.84862934,1_I,test,05,9,31.0,10010,ignore,1.0,13600.0,0.666694997555
587,1_45_1,45,1.0,1867.75503092,1_I,test,05,9,32.0,01101,kill,0.0,13500.0,0.951827117857
588,1_45_1,45,1.0,1870.3333467,1_I,test,05,9,33.0,00000,kill,1.0,13600.0,0.650119823626
589,1_45_1,45,1.0,1873.05225125,1_I,test,05,9,34.0,11011,ignore,1.0,13700.0,0.851202533999
590,1_45_1,45,1.0,1875.61490271,1_I,test,05,9,35.0,11100,kill,1.0,13800.0,0.642429430427
591,1_45_1,45,1.0,1879.08382618,1_I,test,05,9,36.0,10100,kill,1.0,13900.0,1.6121819831
592,1_45_1,45,1.0,1881.6620916,1_I,test,05,9,37.0,00110,ignore,1.0,14000.0,0.635384340054
593,1_45_1,45,1.0,1884.52161732,1_I,test,05,9,38.0,10111,ignore,1.0,14100.0,0.91486845701
594,1_45_1,45,1.0,1887.11552685,1_I,test,05,9,39.0,01000,kill,1.0,14200.0,0.736863661496
595,1_45_1,45,1.0,1889.67816837,1_I,test,05,9,40.0,11000,kill,1.0,14300.0,0.628810397717
596,1_45_1,45,1.0,1892.41267276,1_I,test,05,9,41.0,00001,kill,1.0,14400.0,0.879408553661
597,1_45_1,45,1.0,1895.03779704,1_I,test,05,9,42.0,01001,kill,0.0,14300.0,0.725147181642
598,1_45_1,45,1.0,1897.67858339,1_I,test,05,9,43.0,10011,ignore,1.0,14400.0,0.704672928969
599,1_45_1,45,1.0,1900.0536586,1_I,test,05,9,44.0,00011,ignore,1.0,14500.0,0.512834534351
600,1_45_1,45,1.0,1902.50897394,1_I,test,05,9,45.0,00010,ignore,1.0,14600.0,0.59152812327
601,1_45_1,45,1.0,1904.96220681,1_I,test,05,9,46.0,01010,ignore,1.0,14700.0,0.544477465075
602,1_45_1,45,1.0,1907.96239347,1_I,test,05,9,47.0,10101,kill,1.0,14800.0,1.07664670889
603,1_45_1,45,1.0,1910.60313844,1_I,test,05,9,48.0,11001,kill,0.0,14700.0,0.721963003492
604,1_45_1,45,1.0,1913.55644058,1_I,test,05,9,49.0,01111,ignore,1.0,14800.0,1.12202573771
605,1_45_1,45,1.0,1916.38468195,1_I,test,05,9,50.0,01100,kill,1.0,14900.0,0.885479916717
606,1_45_1,45,1.0,1918.97858762,1_I,test,05,9,51.0,11101,kill,0.0,14800.0,0.666314615275
607,1_45_1,45,1.0,1921.80687549,1_I,test,05,9,52.0,00111,ignore,1.0,14900.0,0.946936030348
608,1_45_1,45,1.0,1924.38513193,1_I,test,05,9,53.0,11110,ignore,1.0,15000.0,0.677995815153
609,1_45_1,45,1.0,1926.93213865,1_I,test,05,9,54.0,00010,ignore,1.0,15100.0,0.711220892419
610,1_45_1,45,1.0,1929.58853382,1_I,test,05,9,55.0,11000,kill,1.0,15200.0,0.723680817573
611,1_45_1,45,1.0,1932.10429242,1_I,test,05,9,56.0,01011,ignore,1.0,15300.0,0.600324704064
612,1_45_1,45,1.0,1934.57315399,1_I,test,05,9,57.0,10111,ignore,1.0,15400.0,0.603322219071
613,1_45_1,45,1.0,1937.72957386,1_I,test,05,9,58.0,11001,ignore,1.0,15500.0,1.24469004296
614,1_45_1,45,1.0,1940.26096149,1_I,test,05,9,59.0,01010,ignore,1.0,15600.0,0.703548459933
615,1_45_1,45,1.0,1942.90172089,1_I,test,05,9,60.0,11010,ignore,1.0,15700.0,0.757849473815
616,1_45_1,45,1.0,1945.47997092,1_I,test,05,9,61.0,10010,ignore,1.0,15800.0,0.656436222143
617,1_45_1,45,1.0,1948.07384901,1_I,test,05,10,0.0,11100,kill,0.0,15700.0,0.755039263408
618,1_45_1,45,1.0,1950.54276382,1_I,test,05,10,1.0,10011,ignore,0.0,15600.0,0.616898915814
619,1_45_1,45,1.0,1953.33976316,1_I,test,05,10,2.0,01100,ignore,1.0,15700.0,0.864648374107
620,1_45_1,45,1.0,1956.32429899,1_I,test,05,10,3.0,00111,kill,1.0,15800.0,1.06299015112
621,1_45_1,45,1.0,1958.93380258,1_I,test,05,10,4.0,10001,ignore,0.0,15700.0,0.6685013323
622,1_45_1,45,1.0,1961.43393632,1_I,test,05,10,5.0,00101,ignore,0.0,15600.0,0.637592545787
623,1_45_1,45,1.0,1965.51228449,1_I,test,05,10,6.0,10100,ignore,1.0,15700.0,2.1984970089
624,1_45_1,45,1.0,1968.54371093,1_I,test,05,10,7.0,00000,ignore,1.0,15800.0,1.09362503672
625,1_45_1,45,1.0,1971.23134651,1_I,test,05,10,8.0,01111,kill,1.0,15900.0,0.77965763029
626,1_45_1,45,1.0,1973.99710897,1_I,test,05,10,9.0,00001,kill,1.0,16000.0,0.82826253177
627,1_45_1,45,1.0,1976.59099604,1_I,test,05,10,10.0,01110,ignore,1.0,16100.0,0.775882031459
628,1_45_1,45,1.0,1979.32549017,1_I,test,05,10,11.0,10000,ignore,1.0,16200.0,0.793391483287
629,1_45_1,45,1.0,1981.85686593,1_I,test,05,10,12.0,11101,kill,1.0,16300.0,0.594069564417
630,1_45_1,45,1.0,1984.46639133,1_I,test,05,10,13.0,01001,kill,0.0,16200.0,0.750195002045
631,1_45_1,45,1.0,1987.59156372,1_I,test,05,10,14.0,10101,kill,1.0,16300.0,1.18445461648
632,1_45_1,45,1.0,1990.34173563,1_I,test,05,10,15.0,00011,kill,1.0,16400.0,0.900619837095
633,1_45_1,45,1.0,1993.06060907,1_I,test,05,10,16.0,11011,kill,0.0,16300.0,0.793043494439
634,1_45_1,45,1.0,1995.92012614,1_I,test,05,10,17.0,00110,ignore,1.0,16400.0,0.938103528126
635,1_45_1,45,1.0,1998.24838514,1_I,test,05,10,18.0,01000,ignore,1.0,16500.0,0.448158641862
636,1_45_1,45,1.0,2000.74853011,1_I,test,05,10,19.0,10110,ignore,1.0,16600.0,0.574325927959
637,1_45_1,45,1.0,2003.26741323,1_I,test,05,10,20.0,00100,ignore,1.0,16700.0,0.683830802373
638,1_45_1,45,1.0,2006.70511746,1_I,test,05,10,21.0,01101,kill,1.0,16800.0,1.52222734673
639,1_45_1,45,1.0,2011.45537404,1_I,test,05,10,22.0,11111,ignore,0.0,16700.0,2.83002685127
