,unique_id,pair_id,sbj_id,wall_time,condition,block,rule_id,rule_num,trial,stimulus,choice,correct,points,reaction_time
0,3_6_1,6,1.0,61.7567968389,3_D,training,01,1_A,1.0,00001,ignore,1.0,100.0,2.44413904141
1,3_6_1,6,1.0,65.9288833581,3_D,training,01,1_A,2.0,11010,kill,0.0,0.0,2.36567455227
2,3_6_1,6,1.0,69.5384605763,3_D,training,01,1_A,3.0,01001,ignore,1.0,100.0,1.82809597424
3,3_6_1,6,1.0,73.0698866552,3_D,training,01,1_A,4.0,01011,ignore,0.0,0.0,1.72857578129
4,3_6_1,6,1.0,77.8826281624,3_D,training,01,1_A,5.0,11101,kill,0.0,0.0,3.00039192795
5,3_6_1,6,1.0,82.8203841022,3_D,training,01,1_A,6.0,11111,kill,1.0,100.0,3.1322288577
6,3_6_1,6,1.0,86.5417348745,3_D,training,01,1_A,7.0,10001,ignore,1.0,200.0,1.91468126187
7,3_6_1,6,1.0,90.698245946,3_D,training,01,1_A,8.0,00111,kill,1.0,300.0,2.33831977729
8,3_6_1,6,1.0,95.1671514984,3_D,training,01,1_A,9.0,01010,kill,1.0,400.0,2.67368854878
9,3_6_1,6,1.0,98.4641992097,3_D,training,01,1_A,10.0,11110,kill,1.0,500.0,1.507351696
10,3_6_1,6,1.0,102.198807218,3_D,training,01,1_A,11.0,10010,kill,0.0,400.0,1.94034452456
11,3_6_1,6,1.0,107.199058988,3_D,training,01,1_A,12.0,01100,ignore,1.0,500.0,3.18804940473
12,3_6_1,6,1.0,110.839871773,3_D,training,01,1_A,13.0,11001,ignore,1.0,600.0,1.8565835557
13,3_6_1,6,1.0,113.840001668,3_D,training,01,1_A,14.0,11011,kill,0.0,500.0,1.22033663468
14,3_6_1,6,1.0,119.840331695,3_D,training,01,1_A,15.0,01110,kill,1.0,600.0,4.22642659209
15,3_6_1,6,1.0,126.809459511,3_D,training,01,1_A,16.0,00101,kill,0.0,500.0,5.17278858983
16,3_6_1,6,1.0,131.715931134,3_D,training,01,1_A,17.0,11100,kill,0.0,400.0,3.12894525838
17,3_6_1,6,1.0,136.403679055,3_D,training,01,1_A,18.0,00110,kill,1.0,500.0,2.90496677272
18,3_6_1,6,1.0,140.825818494,3_D,training,01,1_A,19.0,00100,ignore,1.0,600.0,2.61690646328
19,3_6_1,6,1.0,144.452402243,3_D,training,01,1_A,20.0,00000,ignore,1.0,700.0,1.84457009802
20,3_6_1,6,1.0,152.077796095,3_D,training,01,1_A,21.0,00011,kill,1.0,800.0,5.8576634423
21,3_6_1,6,1.0,156.546796262,3_D,training,01,1_A,22.0,10111,kill,1.0,900.0,2.68985894442
22,3_6_1,6,1.0,162.656480602,3_D,training,01,1_A,23.0,10110,kill,1.0,1000.0,4.33148797917
23,3_6_1,6,1.0,169.563121247,3_D,training,01,1_A,24.0,10011,kill,0.0,900.0,5.13060726382
24,3_6_1,6,1.0,174.297690447,3_D,training,01,1_A,25.0,10101,kill,0.0,800.0,2.93629984092
25,3_6_1,6,1.0,179.501093999,3_D,training,01,1_A,26.0,01111,kill,1.0,900.0,3.44038269102
26,3_6_1,6,1.0,184.235683725,3_D,training,01,1_A,27.0,10100,ignore,1.0,1000.0,2.96336884846
27,3_6_1,6,1.0,190.504765356,3_D,training,01,1_A,28.0,01000,ignore,1.0,1100.0,4.49000776158
28,3_6_1,6,1.0,195.161237941,3_D,training,01,1_A,29.0,00010,kill,1.0,1200.0,2.86627976343
29,3_6_1,6,1.0,198.755174604,3_D,training,01,1_A,30.0,10000,ignore,1.0,1300.0,1.81217478319
30,3_6_1,6,1.0,203.224185996,3_D,training,01,1_A,31.0,01101,kill,0.0,1200.0,2.68194148663
31,3_6_1,6,1.0,209.161976253,3_D,training,01,1_A,32.0,11000,ignore,1.0,1300.0,4.16351189254
32,3_6_1,6,1.0,212.365253117,3_D,training,01,1_A,33.0,11001,ignore,1.0,1400.0,1.41713610356
33,3_6_1,6,1.0,215.818555319,3_D,training,01,1_A,34.0,00011,kill,1.0,1500.0,1.67060508287
34,3_6_1,6,1.0,219.17809854,3_D,training,01,1_A,35.0,01111,kill,1.0,1600.0,1.59370509827
35,3_6_1,6,1.0,224.131462642,3_D,training,01,1_A,36.0,10000,ignore,1.0,1700.0,3.18497363627
36,3_6_1,6,1.0,229.975579232,3_D,training,01,1_A,37.0,01001,ignore,1.0,1800.0,4.05419157644
37,3_6_1,6,1.0,235.132086134,3_D,training,01,1_A,38.0,01110,kill,1.0,1900.0,3.39264541746
38,3_6_1,6,1.0,239.741708896,3_D,training,01,1_A,39.0,00101,ignore,1.0,2000.0,2.82180235542
39,3_6_1,6,1.0,243.320044453,3_D,training,01,1_A,40.0,01010,kill,1.0,2100.0,1.80203950069
40,3_6_1,6,1.0,247.007729191,3_D,training,01,1_A,41.0,00100,ignore,1.0,2200.0,1.90342407759
41,3_6_1,6,1.0,251.211109009,3_D,training,01,1_A,42.0,10001,ignore,1.0,2300.0,2.42530597321
42,3_6_1,6,1.0,255.101925643,3_D,training,01,1_A,43.0,11101,kill,0.0,2200.0,2.10169311592
43,3_6_1,6,1.0,258.867724637,3_D,training,01,1_A,44.0,11000,ignore,1.0,2300.0,1.9997953764
44,3_6_1,6,1.0,262.086670601,3_D,training,01,1_A,45.0,11110,kill,1.0,2400.0,1.4621821599
45,3_6_1,6,1.0,266.305636129,3_D,training,01,1_A,46.0,10010,kill,0.0,2300.0,2.44201422744
46,3_6_1,6,1.0,270.790234195,3_D,training,01,1_A,47.0,01100,kill,0.0,2200.0,2.70180216298
47,3_6_1,6,1.0,274.024765228,3_D,training,01,1_A,48.0,00110,kill,1.0,2300.0,1.42993822805
48,3_6_1,6,1.0,279.337528545,3_D,training,01,1_A,49.0,10101,kill,0.0,2200.0,3.53078687074
49,3_6_1,6,1.0,282.697046108,3_D,training,01,1_A,50.0,11100,ignore,1.0,2300.0,1.61117155027
50,3_6_1,6,1.0,286.304276569,3_D,training,01,1_A,51.0,00000,ignore,1.0,2400.0,1.82475785139
51,3_6_1,6,1.0,289.913831016,3_D,training,01,1_A,52.0,01011,kill,1.0,2500.0,1.83041739365
52,3_6_1,6,1.0,293.398395084,3_D,training,01,1_A,53.0,11111,kill,1.0,2600.0,1.70706207985
53,3_6_1,6,1.0,296.586039411,3_D,training,01,1_A,54.0,00001,ignore,1.0,2700.0,1.39670645815
54,3_6_1,6,1.0,300.133088405,3_D,training,01,1_A,55.0,00111,kill,1.0,2800.0,1.73719691333
55,3_6_1,6,1.0,303.898942885,3_D,training,01,1_A,56.0,01101,ignore,1.0,2900.0,1.99367719505
56,3_6_1,6,1.0,307.727235465,3_D,training,01,1_A,57.0,00010,ignore,0.0,2800.0,2.0564510956
57,3_6_1,6,1.0,311.414946182,3_D,training,01,1_A,58.0,10111,kill,1.0,2900.0,1.89999069893
58,3_6_1,6,1.0,314.665093075,3_D,training,01,1_A,59.0,10110,kill,1.0,3000.0,1.47811585929
59,3_6_1,6,1.0,319.149709742,3_D,training,01,1_A,60.0,11011,ignore,1.0,3100.0,2.69892973521
60,3_6_1,6,1.0,322.274848296,3_D,training,01,1_A,61.0,11010,kill,0.0,3000.0,1.36263470519
61,3_6_1,6,1.0,326.634817442,3_D,training,01,1_A,62.0,10100,ignore,1.0,3100.0,2.58666579002
62,3_6_1,6,1.0,331.619467465,3_D,training,01,1_A,63.0,10011,ignore,1.0,3200.0,3.20840784882
63,3_6_1,6,1.0,336.197816172,3_D,training,01,1_A,64.0,01000,ignore,1.0,3300.0,2.81417996613
64,3_6_1,6,1.0,339.604257325,3_D,training,01,1_A,65.0,10010,ignore,1.0,3400.0,1.64323555447
65,3_6_1,6,1.0,342.448134333,3_D,training,01,1_A,66.0,11111,kill,1.0,3500.0,1.06346667009
66,3_6_1,6,1.0,346.026427554,3_D,training,01,1_A,67.0,10000,ignore,1.0,3600.0,1.8038083081
67,3_6_1,6,1.0,348.979721417,3_D,training,01,1_A,68.0,00000,ignore,1.0,3700.0,1.17763220352
68,3_6_1,6,1.0,351.96423449,3_D,training,01,1_A,69.0,11001,ignore,1.0,3800.0,1.20918881819
69,3_6_1,6,1.0,355.308167625,3_D,training,01,1_A,70.0,11011,ignore,1.0,3900.0,1.59218389183
70,3_6_1,6,1.0,358.605188716,3_D,training,01,1_A,71.0,10100,ignore,1.0,4000.0,1.50272168625
71,3_6_1,6,1.0,361.949135642,3_D,training,01,1_A,72.0,11100,ignore,1.0,4100.0,1.59317974804
72,3_6_1,6,1.0,365.371245895,3_D,training,01,1_A,73.0,01010,ignore,0.0,4000.0,1.64854871196
73,3_6_1,6,1.0,368.543196426,3_D,training,01,1_A,74.0,01001,ignore,1.0,4100.0,1.38033657054
74,3_6_1,6,1.0,371.965282624,3_D,training,01,1_A,75.0,01110,kill,1.0,4200.0,1.65160908554
75,3_6_1,6,1.0,375.434199723,3_D,training,01,1_A,76.0,00011,ignore,0.0,4100.0,1.69579751886
76,3_6_1,6,1.0,378.653858021,3_D,training,01,1_A,77.0,10111,kill,1.0,4200.0,1.45856372197
77,3_6_1,6,1.0,381.71652095,3_D,training,01,1_A,78.0,11101,ignore,1.0,4300.0,1.29438664238
78,3_6_1,6,1.0,385.138579245,3_D,training,01,1_A,79.0,00001,ignore,1.0,4400.0,1.6331644173
79,3_6_1,6,1.0,388.779469646,3_D,training,01,1_A,80.0,00100,ignore,1.0,4500.0,1.85366911274
80,3_6_1,6,1.0,391.935898612,3_D,training,01,1_A,81.0,11110,kill,1.0,4600.0,1.40198369426
81,3_6_1,6,1.0,396.422992251,3_D,training,01,1_A,82.0,00010,ignore,0.0,4500.0,2.70467651511
82,3_6_1,6,1.0,399.923161916,3_D,training,01,1_A,83.0,11010,kill,0.0,4400.0,1.7464662339
83,3_6_1,6,1.0,404.173386745,3_D,training,01,1_A,84.0,11000,ignore,1.0,4500.0,2.46691961307
84,3_6_1,6,1.0,407.954845859,3_D,training,01,1_A,85.0,10110,kill,1.0,4600.0,2.03009281829
85,3_6_1,6,1.0,411.720662814,3_D,training,01,1_A,86.0,00111,kill,1.0,4700.0,2.01166739365
86,3_6_1,6,1.0,416.127145982,3_D,training,01,1_A,87.0,10011,kill,0.0,4600.0,2.6417380818
87,3_6_1,6,1.0,421.611818777,3_D,training,01,1_A,88.0,01101,ignore,1.0,4700.0,3.72622549648
88,3_6_1,6,1.0,425.768305152,3_D,training,01,1_A,89.0,10001,ignore,1.0,4800.0,2.37342843947
89,3_6_1,6,1.0,429.737271001,3_D,training,01,1_A,90.0,00110,kill,1.0,4900.0,2.20466144096
90,3_6_1,6,1.0,433.674965682,3_D,training,01,1_A,91.0,00101,ignore,1.0,5000.0,2.14537832914
91,3_6_1,6,1.0,438.89395751,3_D,training,01,1_A,92.0,01011,kill,1.0,5100.0,3.45018730436
92,3_6_1,6,1.0,442.112998409,3_D,training,01,1_A,93.0,01100,ignore,1.0,5200.0,1.45316845846
93,3_6_1,6,1.0,445.927380754,3_D,training,01,1_A,94.0,01000,ignore,1.0,5300.0,2.03390689947
94,3_6_1,6,1.0,449.427590188,3_D,training,01,1_A,95.0,01111,kill,1.0,5400.0,1.7347199415
95,3_6_1,6,1.0,453.412134372,3_D,training,01,1_A,96.0,10101,ignore,1.0,5500.0,2.18232764151
96,3_6_1,6,1.0,457.31859541,3_D,training,01,1_A,97.0,01111,kill,1.0,5600.0,2.11645039
97,3_6_1,6,1.0,460.928176156,3_D,training,01,1_A,98.0,10001,ignore,1.0,5700.0,1.83718921589
98,3_6_1,6,1.0,464.568949171,3_D,training,01,1_A,99.0,11011,kill,0.0,5600.0,1.87423955714
99,3_6_1,6,1.0,468.350409568,3_D,training,01,1_A,100.0,00110,kill,1.0,5700.0,2.01386469185
100,3_6_1,6,1.0,471.991206317,3_D,training,01,1_A,101.0,11010,ignore,1.0,5800.0,1.89202352851
101,3_6_1,6,1.0,475.694546685,3_D,training,01,1_A,102.0,11110,kill,1.0,5900.0,1.93489826551
102,3_6_1,6,1.0,479.100978537,3_D,training,01,1_A,103.0,11100,ignore,1.0,6000.0,1.64006869965
103,3_6_1,6,1.0,482.116731988,3_D,training,01,1_A,104.0,01101,ignore,1.0,6100.0,1.26122222507
104,3_6_1,6,1.0,484.679364448,3_D,training,01,1_A,105.0,00000,ignore,1.0,6200.0,0.802029558166
105,3_6_1,6,1.0,487.554514227,3_D,training,01,1_A,106.0,01110,kill,1.0,6300.0,1.12168208293
106,3_6_1,6,1.0,490.507805203,3_D,training,01,1_A,107.0,00111,kill,1.0,6400.0,1.16339995895
107,3_6_1,6,1.0,493.101687022,3_D,training,01,1_A,108.0,01100,ignore,1.0,6500.0,0.83572926823
108,3_6_1,6,1.0,495.804959075,3_D,training,01,1_A,109.0,10000,ignore,1.0,6600.0,0.945310976545
109,3_6_1,6,1.0,498.664452263,3_D,training,01,1_A,110.0,10011,kill,0.0,6500.0,1.08306306769
110,3_6_1,6,1.0,501.367718543,3_D,training,01,1_A,111.0,01000,ignore,1.0,6600.0,0.942832401088
111,3_6_1,6,1.0,504.58665713,3_D,training,01,1_A,112.0,01010,ignore,0.0,6500.0,1.45647226356
112,3_6_1,6,1.0,507.508694258,3_D,training,01,1_A,113.0,00011,ignore,0.0,6400.0,1.15722693334
113,3_6_1,6,1.0,510.258824152,3_D,training,01,1_A,114.0,01011,kill,1.0,6500.0,0.965305075177
114,3_6_1,6,1.0,513.008962706,3_D,training,01,1_A,115.0,10100,ignore,1.0,6600.0,0.973324524039
115,3_6_1,6,1.0,515.540343242,3_D,training,01,1_A,116.0,00101,ignore,1.0,6700.0,0.748877456768
116,3_6_1,6,1.0,518.009218966,3_D,training,01,1_A,117.0,11000,ignore,1.0,6800.0,0.710025593988
117,3_6_1,6,1.0,520.571825768,3_D,training,01,1_A,118.0,11111,kill,1.0,6900.0,0.80998903115
118,3_6_1,6,1.0,523.118852953,3_D,training,01,1_A,119.0,00001,ignore,1.0,7000.0,0.759929375992
119,3_6_1,6,1.0,526.369046031,3_D,training,01,1_A,120.0,00100,ignore,1.0,7100.0,1.45569193565
120,3_6_1,6,1.0,529.494184264,3_D,training,01,1_A,121.0,00010,ignore,0.0,7000.0,1.35647675373
121,3_6_1,6,1.0,532.634967222,3_D,training,01,1_A,122.0,10110,kill,1.0,7100.0,1.36454495304
122,3_6_1,6,1.0,535.385114435,3_D,training,01,1_A,123.0,10101,ignore,1.0,7200.0,0.97272861395
123,3_6_1,6,1.0,538.432145148,3_D,training,01,1_A,124.0,10010,kill,0.0,7100.0,1.26823010212
124,3_6_1,6,1.0,541.182298776,3_D,training,01,1_A,125.0,10111,kill,1.0,7200.0,0.975631190024
125,3_6_1,6,1.0,544.557444707,3_D,training,01,1_A,126.0,11101,ignore,1.0,7300.0,1.60822984554
126,3_6_1,6,1.0,546.995056961,3_D,training,01,1_A,127.0,01001,ignore,1.0,7400.0,0.67077827526
127,3_6_1,6,1.0,549.495182365,3_D,training,01,1_A,128.0,11001,ignore,1.0,7500.0,0.714632511415
128,3_6_1,6,1.0,552.27658022,3_D,training,01,1_A,129.0,00010,kill,1.0,7600.0,0.996622107043
129,3_6_1,6,1.0,555.370503733,3_D,training,01,1_A,130.0,11011,ignore,1.0,7700.0,1.33960108021
130,3_6_1,6,1.0,557.823754618,3_D,training,01,1_A,131.0,01101,ignore,1.0,7800.0,0.692993405857
131,3_6_1,6,1.0,560.448892531,3_D,training,01,1_A,132.0,00111,ignore,0.0,7700.0,0.840434969468
132,3_6_1,6,1.0,563.105298404,3_D,training,01,1_A,133.0,11110,kill,1.0,7800.0,0.88605256068
133,3_6_1,6,1.0,566.464817891,3_D,training,01,1_A,134.0,10100,ignore,1.0,7900.0,1.58515228101
134,3_6_1,6,1.0,569.996249743,3_D,training,01,1_A,135.0,10111,kill,1.0,8000.0,1.73569206394
135,3_6_1,6,1.0,572.855761854,3_D,training,01,1_A,136.0,00011,ignore,0.0,7900.0,1.08824729307
136,3_6_1,6,1.0,575.621539039,3_D,training,01,1_A,137.0,01000,ignore,1.0,8000.0,0.987210063122
137,3_6_1,6,1.0,578.074780302,3_D,training,01,1_A,138.0,00000,ignore,1.0,8100.0,0.666213693745
138,3_6_1,6,1.0,581.012422063,3_D,training,01,1_A,139.0,00001,ignore,1.0,8200.0,1.16700909581
139,3_6_1,6,1.0,583.637599105,3_D,training,01,1_A,140.0,10010,kill,0.0,8100.0,0.838406694209
140,3_6_1,6,1.0,587.40343851,3_D,training,01,1_A,141.0,01010,ignore,0.0,8000.0,2.02092677169
141,3_6_1,6,1.0,590.466085724,3_D,training,01,1_A,142.0,10001,ignore,1.0,8100.0,1.28966682917
142,3_6_1,6,1.0,593.01308693,3_D,training,01,1_A,143.0,01001,ignore,1.0,8200.0,0.773279622314
143,3_6_1,6,1.0,596.997680184,3_D,training,01,1_A,144.0,01111,kill,1.0,8300.0,2.22966368604
144,3_6_1,6,1.0,600.685369092,3_D,training,01,1_A,145.0,01100,ignore,1.0,8400.0,1.91503983425
145,3_6_1,6,1.0,603.388994586,3_D,training,01,1_A,146.0,10110,kill,1.0,8500.0,0.924112549394
146,3_6_1,6,1.0,605.951619028,3_D,training,01,1_A,147.0,10101,kill,0.0,8400.0,0.789695373842
147,3_6_1,6,1.0,608.483013997,3_D,training,01,1_A,148.0,00100,ignore,1.0,8500.0,0.740364088881
148,3_6_1,6,1.0,612.01443334,3_D,training,01,1_A,149.0,01110,kill,1.0,8600.0,1.77490859291
149,3_6_1,6,1.0,615.405254465,3_D,training,01,1_A,150.0,11001,ignore,1.0,8700.0,1.63065986299
150,3_6_1,6,1.0,618.780411621,3_D,training,01,1_A,151.0,00101,ignore,1.0,8800.0,1.58720172423
151,3_6_1,6,1.0,621.90555723,3_D,training,01,1_A,152.0,11000,ignore,1.0,8900.0,1.35428073844
152,3_6_1,6,1.0,626.046414597,3_D,training,01,1_A,153.0,01011,kill,1.0,9000.0,2.37848052548
153,3_6_1,6,1.0,629.46848059,3_D,training,01,1_A,154.0,10011,kill,0.0,8900.0,1.6497447016
154,3_6_1,6,1.0,632.702995266,3_D,training,01,1_A,155.0,11111,kill,1.0,9000.0,1.47001943603
155,3_6_1,6,1.0,636.109407874,3_D,training,01,1_A,156.0,11101,ignore,1.0,9100.0,1.61731506902
156,3_6_1,6,1.0,639.750230282,3_D,training,01,1_A,157.0,00110,kill,1.0,9200.0,1.87934488377
157,3_6_1,6,1.0,643.062882627,3_D,training,01,1_A,158.0,11100,ignore,1.0,9300.0,1.53028140555
158,3_6_1,6,1.0,646.359958241,3_D,training,01,1_A,159.0,11010,kill,0.0,9200.0,1.54034452455
159,3_6_1,6,1.0,648.87569758,3_D,training,01,1_A,160.0,10000,ignore,1.0,9300.0,0.757313850259
160,3_6_1,6,1.0,651.953959691,3_D,training,01,1_A,161.0,00101,ignore,1.0,9400.0,1.28534888644
161,3_6_1,6,1.0,656.282311926,3_D,training,01,1_A,162.0,10010,kill,0.0,9300.0,2.55296158978
162,3_6_1,6,1.0,659.14187407,3_D,training,01,1_A,163.0,11110,kill,1.0,9400.0,1.11254137374
163,3_6_1,6,1.0,662.017018718,3_D,training,01,1_A,164.0,10100,ignore,1.0,9500.0,1.10738152358
164,3_6_1,6,1.0,665.845327013,3_D,training,01,1_A,165.0,01110,ignore,0.0,9400.0,2.07047615077
165,3_6_1,6,1.0,668.814214284,3_D,training,01,1_A,166.0,10000,ignore,1.0,9500.0,1.20206932827
166,3_6_1,6,1.0,672.470646777,3_D,training,01,1_A,167.0,00110,kill,1.0,9600.0,1.8720044132
167,3_6_1,6,1.0,676.580232014,3_D,training,01,1_A,168.0,10011,ignore,1.0,9700.0,2.3315979884
168,3_6_1,6,1.0,679.36161736,3_D,training,01,1_A,169.0,11001,ignore,1.0,9800.0,1.00355846205
169,3_6_1,6,1.0,682.877451314,3_D,training,01,1_A,170.0,00100,ignore,1.0,9900.0,1.74605506235
170,3_6_1,6,1.0,685.84632768,3_D,training,01,1_A,171.0,01001,ignore,1.0,10000.0,1.18652274593
171,3_6_1,6,1.0,688.940285511,3_D,training,01,1_A,172.0,10111,ignore,0.0,9900.0,1.33004053985
172,3_6_1,6,1.0,693.753026377,3_D,training,01,1_A,173.0,11111,kill,1.0,10000.0,3.02672967876
173,3_6_1,6,1.0,697.518810938,3_D,training,01,1_A,174.0,01100,ignore,1.0,10100.0,1.96680767948
174,3_6_1,6,1.0,700.331438587,3_D,training,01,1_A,175.0,11101,ignore,1.0,10200.0,1.05440967055
175,3_6_1,6,1.0,703.066000411,3_D,training,01,1_A,176.0,01000,ignore,1.0,10300.0,0.946819353925
176,3_6_1,6,1.0,706.378668792,3_D,training,01,1_A,177.0,00011,kill,1.0,10400.0,1.55566691897
177,3_6_1,6,1.0,709.425671602,3_D,training,01,1_A,178.0,11100,ignore,1.0,10500.0,1.25957978396
178,3_6_1,6,1.0,712.191466747,3_D,training,01,1_A,179.0,10001,ignore,1.0,10600.0,0.99159279263
179,3_6_1,6,1.0,714.847839265,3_D,training,01,1_A,180.0,00001,ignore,1.0,10700.0,0.879654064247
180,3_6_1,6,1.0,717.629217555,3_D,training,01,1_A,181.0,01011,ignore,0.0,10600.0,1.01054869913
181,3_6_1,6,1.0,720.644973251,3_D,training,01,1_A,182.0,00000,ignore,1.0,10700.0,1.25760859804
182,3_6_1,6,1.0,723.723348579,3_D,training,01,1_A,183.0,00010,kill,1.0,10800.0,1.31039859907
183,3_6_1,6,1.0,726.723513111,3_D,training,01,1_A,184.0,01101,ignore,1.0,10900.0,1.21648374557
184,3_6_1,6,1.0,729.270485131,3_D,training,01,1_A,185.0,11000,ignore,1.0,11000.0,0.790637989427
185,3_6_1,6,1.0,732.598784125,3_D,training,01,1_A,186.0,01010,kill,1.0,11100.0,1.58313170319
186,3_6_1,6,1.0,735.614547519,3_D,training,01,1_A,187.0,10110,kill,1.0,11200.0,1.23849874275
187,3_6_1,6,1.0,738.195937997,3_D,training,01,1_A,188.0,11010,kill,0.0,11100.0,0.852669728534
188,3_6_1,6,1.0,744.727568379,3_D,training,01,1_A,189.0,00111,kill,1.0,11200.0,4.76206541541
189,3_6_1,6,1.0,747.915198915,3_D,training,01,1_A,190.0,11011,ignore,1.0,11300.0,1.43227279725
190,3_6_1,6,1.0,753.306267961,3_D,training,01,1_A,191.0,10101,ignore,1.0,11400.0,3.61311002207
191,3_6_1,6,1.0,758.24399728,3_D,training,01,1_A,192.0,01111,kill,1.0,11500.0,3.17797089085
192,3_6_1,6,1.0,763.822412057,3_D,training,01,1_A,193.0,10000,ignore,1.0,11600.0,3.80877860882
193,3_6_1,6,1.0,768.025736068,3_D,training,01,1_A,194.0,01100,ignore,1.0,11700.0,2.42846224406
194,3_6_1,6,1.0,772.094718274,3_D,training,01,1_A,195.0,11011,ignore,1.0,11800.0,2.33837237645
195,3_6_1,6,1.0,776.032452083,3_D,training,01,1_A,196.0,00000,ignore,1.0,11900.0,2.14642421871
196,3_6_1,6,1.0,780.126371106,3_D,training,01,1_A,197.0,00001,ignore,1.0,12000.0,2.3143108226
197,3_6_1,6,1.0,783.845328937,3_D,training,01,1_A,198.0,00100,ignore,1.0,12100.0,1.95560181147
198,3_6_1,6,1.0,787.595535806,3_D,training,01,1_A,199.0,01101,ignore,1.0,12200.0,1.97128630626
199,3_6_1,6,1.0,792.258429017,3_D,training,01,1_A,200.0,01010,ignore,0.0,12100.0,2.91549815262
200,3_6_1,6,1.0,796.274244368,3_D,training,01,1_A,201.0,11000,ignore,1.0,12200.0,2.26956304203
201,3_6_1,6,1.0,800.961983309,3_D,training,01,1_A,202.0,10001,ignore,1.0,12300.0,2.90431120747
202,3_6_1,6,1.0,803.712100054,3_D,training,01,1_A,203.0,01001,ignore,1.0,12400.0,1.01063786114
203,3_6_1,6,1.0,807.306018435,3_D,training,01,1_A,204.0,10100,ignore,1.0,12500.0,1.82535696875
204,3_6_1,6,1.0,810.749154244,3_D,training,01,1_A,205.0,00010,kill,1.0,12600.0,1.69519198696
205,3_6_1,6,1.0,815.1087042,3_D,training,01,1_A,206.0,01011,kill,1.0,12700.0,2.60275247601
206,3_6_1,6,1.0,818.140096924,3_D,training,01,1_A,207.0,11001,ignore,1.0,12800.0,1.24775555498
207,3_6_1,6,1.0,822.530997267,3_D,training,01,1_A,208.0,11101,ignore,1.0,12900.0,2.64551175142
208,3_6_1,6,1.0,828.531305486,3_D,training,01,1_A,209.0,10110,kill,1.0,13000.0,4.24176887155
209,3_6_1,6,1.0,832.531513317,3_D,training,01,1_A,210.0,11010,kill,0.0,12900.0,2.23667797762
210,3_6_1,6,1.0,835.812903795,3_D,training,01,1_A,211.0,11110,kill,1.0,13000.0,1.51397758762
211,3_6_1,6,1.0,839.438071535,3_D,training,01,1_A,212.0,10111,kill,1.0,13100.0,1.85161325499
212,3_6_1,6,1.0,842.48515645,3_D,training,01,1_A,213.0,11100,ignore,1.0,13200.0,1.28024388053
213,3_6_1,6,1.0,949.709381896,3_D,test,01,2,0.0,10010,kill,1.0,100.0,12.9163522477
214,3_6_1,6,1.0,959.069212809,3_D,test,01,2,1.0,10101,ignore,0.0,0.0,7.57997190435
215,3_6_1,6,1.0,972.866805114,3_D,test,01,2,2.0,00011,kill,0.0,0.0,12.0143576487
216,3_6_1,6,1.0,984.414268487,3_D,test,01,2,3.0,00101,kill,0.0,0.0,9.75540905476
217,3_6_1,6,1.0,1005.2594701,3_D,test,01,2,4.0,01110,kill,0.0,0.0,19.1018538
218,3_6_1,6,1.0,1013.58805229,3_D,test,01,2,5.0,01000,ignore,1.0,100.0,6.55464540463
219,3_6_1,6,1.0,1038.01121998,3_D,test,01,2,6.0,00110,kill,0.0,0.0,22.6383156078
220,3_6_1,6,1.0,1048.83988781,3_D,test,01,2,7.0,11111,kill,1.0,100.0,9.08345724072
221,3_6_1,6,1.0,1057.95429485,3_D,test,01,2,8.0,00111,ignore,1.0,200.0,7.31966086365
222,3_6_1,6,1.0,1072.20507839,3_D,test,01,2,9.0,10011,kill,1.0,300.0,12.4933702597
223,3_6_1,6,1.0,1079.83046903,3_D,test,01,2,10.0,01111,ignore,1.0,400.0,5.85586673167
224,3_6_1,6,1.0,1084.61194643,3_D,test,01,2,11.0,10111,kill,1.0,500.0,2.96657739775
225,3_6_1,6,1.0,1091.36232873,3_D,test,01,2,12.0,00100,ignore,1.0,600.0,4.99748422025
226,3_6_1,6,1.0,1095.75314954,3_D,test,01,2,13.0,00101,ignore,1.0,700.0,2.61768550829
227,3_6_1,6,1.0,1099.17833973,3_D,test,01,2,14.0,01000,ignore,1.0,800.0,1.67886668035
228,3_6_1,6,1.0,1102.70977511,3_D,test,01,2,15.0,01111,ignore,1.0,900.0,1.77135269667
229,3_6_1,6,1.0,1106.19434816,3_D,test,01,2,16.0,01110,ignore,1.0,1000.0,1.72309488377
230,3_6_1,6,1.0,1109.56950627,3_D,test,01,3,0.0,11011,kill,1.0,1100.0,1.62932179145
231,3_6_1,6,1.0,1113.24157002,3_D,test,01,3,1.0,11101,kill,0.0,1000.0,1.88284561503
232,3_6_1,6,1.0,1119.30437471,3_D,test,01,3,2.0,11100,ignore,1.0,1100.0,4.28480525479
233,3_6_1,6,1.0,1127.07042195,3_D,test,01,3,3.0,10100,ignore,1.0,1200.0,5.99011680864
234,3_6_1,6,1.0,1136.57089277,3_D,test,01,3,4.0,10010,kill,1.0,1300.0,7.72862998409
235,3_6_1,6,1.0,1141.05839149,3_D,test,01,3,5.0,00000,ignore,0.0,1200.0,2.72572227639
236,3_6_1,6,1.0,1151.97153519,3_D,test,01,3,6.0,01010,kill,1.0,1300.0,9.15854062965
237,3_6_1,6,1.0,1156.01862428,3_D,test,01,3,7.0,01011,kill,1.0,1400.0,2.28193699646
238,3_6_1,6,1.0,1159.15941942,3_D,test,01,3,8.0,11111,kill,0.0,1300.0,1.38892242264
239,3_6_1,6,1.0,1165.76910504,3_D,test,01,3,9.0,11110,ignore,1.0,1400.0,4.84403993688
240,3_6_1,6,1.0,1177.91670954,3_D,test,01,3,10.0,01100,ignore,1.0,1500.0,10.3986163853
241,3_6_1,6,1.0,1185.38583767,3_D,test,01,3,11.0,11000,ignore,1.0,1600.0,5.70325665829
242,3_6_1,6,1.0,1192.69871004,3_D,test,01,3,12.0,01001,kill,1.0,1700.0,5.53350534972
243,3_6_1,6,1.0,1199.98031957,3_D,test,01,3,13.0,00111,ignore,1.0,1800.0,5.50761854056
244,3_6_1,6,1.0,1208.54328719,3_D,test,01,3,14.0,10110,kill,0.0,1700.0,6.80285061836
245,3_6_1,6,1.0,1213.21537948,3_D,test,01,3,15.0,10101,ignore,1.0,1800.0,2.89232501154
246,3_6_1,6,1.0,1216.79369291,3_D,test,01,3,16.0,11010,kill,1.0,1900.0,1.82306216965
247,3_6_1,6,1.0,1220.93455733,3_D,test,01,3,17.0,00001,ignore,0.0,1800.0,2.3641446862
248,3_6_1,6,1.0,1227.48174905,3_D,test,01,3,18.0,00010,ignore,0.0,1700.0,4.78797210961
249,3_6_1,6,1.0,1247.57660876,3_D,test,01,3,19.0,11001,ignore,1.0,1800.0,18.3452612639
250,3_6_1,6,1.0,1255.7332523,3_D,test,01,3,20.0,00110,kill,0.0,1700.0,6.37203680659
251,3_6_1,6,1.0,1263.43681781,3_D,test,01,3,21.0,10000,ignore,1.0,1800.0,5.96067121671
252,3_6_1,6,1.0,1271.95296031,3_D,test,01,3,22.0,10011,kill,1.0,1900.0,6.74959428081
253,3_6_1,6,1.0,1279.10959422,3_D,test,01,3,23.0,10001,ignore,1.0,2000.0,5.38633287577
254,3_6_1,6,1.0,1289.9226417,3_D,test,01,3,24.0,01101,ignore,1.0,2100.0,9.0049882614
255,3_6_1,6,1.0,1294.95411749,3_D,test,01,3,25.0,00011,kill,1.0,2200.0,3.24475868528
256,3_6_1,6,1.0,1300.15447446,3_D,test,01,3,26.0,00000,kill,1.0,2300.0,3.4479111074
257,3_6_1,6,1.0,1304.71720538,3_D,test,01,3,27.0,00010,ignore,0.0,2200.0,2.77917682301
258,3_6_1,6,1.0,1313.18639349,3_D,test,01,3,28.0,11000,kill,0.0,2100.0,6.72246369374
259,3_6_1,6,1.0,1323.39003855,3_D,test,01,3,29.0,01101,kill,0.0,2000.0,8.43146713194
260,3_6_1,6,1.0,1334.53126347,3_D,test,01,3,30.0,00100,ignore,1.0,2100.0,9.36715983733
261,3_6_1,6,1.0,1343.14106776,3_D,test,01,3,31.0,00011,kill,1.0,2200.0,6.86595230153
262,3_6_1,6,1.0,1348.00383204,3_D,test,01,3,32.0,10110,ignore,1.0,2300.0,3.08114929184
263,3_6_1,6,1.0,1352.00405206,3_D,test,01,3,33.0,01010,kill,1.0,2400.0,2.26049385488
264,3_6_1,6,1.0,1356.441774,3_D,test,01,3,34.0,11011,kill,1.0,2500.0,2.6973572125
265,3_6_1,6,1.0,1361.80140414,3_D,test,01,3,35.0,01000,kill,1.0,2600.0,3.58688516703
266,3_6_1,6,1.0,1365.04223617,3_D,test,01,3,36.0,01110,ignore,1.0,2700.0,1.49780494689
267,3_6_1,6,1.0,1369.87059225,3_D,test,01,3,37.0,10010,kill,1.0,2800.0,3.01910312003
268,3_6_1,6,1.0,1373.07392364,3_D,test,01,3,38.0,11110,ignore,1.0,2900.0,1.43988075384
269,3_6_1,6,1.0,1376.0428045,3_D,test,01,3,39.0,11100,ignore,1.0,3000.0,1.19710383846
270,3_6_1,6,1.0,1379.88677003,3_D,test,01,4,0.0,10001,kill,1.0,3100.0,2.06730448504
271,3_6_1,6,1.0,1383.23066628,3_D,test,01,4,1.0,10101,ignore,0.0,3000.0,1.57480884692
272,3_6_1,6,1.0,1391.53408362,3_D,test,01,4,2.0,00110,kill,1.0,3100.0,6.5331884718
273,3_6_1,6,1.0,1397.45623011,3_D,test,01,4,3.0,00101,kill,1.0,3200.0,4.13035613486
274,3_6_1,6,1.0,1401.75334999,3_D,test,01,4,4.0,10000,kill,0.0,3100.0,2.53808243958
275,3_6_1,6,1.0,1414.48837462,3_D,test,01,4,5.0,01111,ignore,1.0,3200.0,10.9546640068
276,3_6_1,6,1.0,1424.97325525,3_D,test,01,4,6.0,10011,ignore,0.0,3100.0,8.74018833068
277,3_6_1,6,1.0,1437.78644417,3_D,test,01,4,7.0,11111,ignore,1.0,3200.0,11.0226064171
278,3_6_1,6,1.0,1449.70890016,3_D,test,01,4,8.0,11010,ignore,1.0,3300.0,10.1646540001
279,3_6_1,6,1.0,1456.47490859,3_D,test,01,4,9.0,11001,ignore,1.0,3400.0,5.00671505362
280,3_6_1,6,1.0,1459.95944091,3_D,test,01,4,10.0,01001,ignore,1.0,3500.0,1.70579296454
281,3_6_1,6,1.0,1464.67843434,3_D,test,01,4,11.0,00001,kill,1.0,3600.0,2.94837135013
282,3_6_1,6,1.0,1468.17859438,3_D,test,01,4,12.0,01100,ignore,1.0,3700.0,1.7318423821
283,3_6_1,6,1.0,1471.21003842,3_D,test,01,4,13.0,10111,kill,1.0,3800.0,1.26012213271
284,3_6_1,6,1.0,1474.58520103,3_D,test,01,4,14.0,11101,ignore,1.0,3900.0,1.61756299071
285,3_6_1,6,1.0,1477.99160626,3_D,test,01,4,15.0,00111,kill,1.0,4000.0,1.63933391492
286,3_6_1,6,1.0,1481.25739371,3_D,test,01,4,16.0,01011,ignore,1.0,4100.0,1.49228876944
287,3_6_1,6,1.0,1484.52322478,3_D,test,01,5,0.0,10100,kill,1.0,4200.0,1.50341381433
288,3_6_1,6,1.0,1487.42959152,3_D,test,01,5,1.0,01011,ignore,1.0,4300.0,1.13799103248
289,3_6_1,6,1.0,1490.21099547,3_D,test,01,5,2.0,10100,kill,1.0,4400.0,1.0361539103
290,3_6_1,6,1.0,1492.92990616,3_D,test,01,5,3.0,11001,ignore,0.0,4300.0,0.97035940627
291,3_6_1,6,1.0,1504.28984163,3_D,test,01,5,4.0,10111,kill,1.0,4400.0,9.59484848874
292,3_6_1,6,1.0,1517.18111594,3_D,test,01,5,5.0,01110,kill,0.0,4300.0,11.1646661877
293,3_6_1,6,1.0,1522.78079232,3_D,test,01,5,6.0,01000,ignore,1.0,4400.0,3.84553869246
294,3_6_1,6,1.0,1526.04658907,3_D,test,01,5,7.0,00011,ignore,1.0,4500.0,1.49740371786
295,3_6_1,6,1.0,1528.781089,3_D,test,01,5,8.0,00000,ignore,1.0,4600.0,0.930809000871
296,3_6_1,6,1.0,1532.06250064,3_D,test,01,5,9.0,10101,kill,1.0,4700.0,1.50778211115
297,3_6_1,6,1.0,1534.5157759,3_D,test,01,5,10.0,00001,ignore,1.0,4800.0,0.710924590756
298,3_6_1,6,1.0,1537.25028609,3_D,test,01,5,11.0,10000,kill,1.0,4900.0,0.961825832605
299,3_6_1,6,1.0,1540.59418266,3_D,test,01,5,12.0,01100,ignore,1.0,5000.0,1.59543381485
300,3_6_1,6,1.0,1543.12557538,3_D,test,01,5,13.0,01001,ignore,1.0,5100.0,0.737321355264
301,3_6_1,6,1.0,1545.45383942,3_D,test,01,5,14.0,01111,ignore,1.0,5200.0,0.546750397702
302,3_6_1,6,1.0,1547.57894847,3_D,test,01,5,15.0,01010,ignore,1.0,5300.0,0.381398496436
303,3_6_1,6,1.0,1549.78216118,3_D,test,01,6,0.0,00110,ignore,1.0,5400.0,0.420940242213
304,3_6_1,6,1.0,1552.56356064,3_D,test,01,6,1.0,11110,kill,0.0,5300.0,1.05289359573
305,3_6_1,6,1.0,1585.83955907,3_D,test,01,6,2.0,11010,,,5200.0,
306,3_6_1,6,1.0,1594.18375199,3_D,test,01,6,3.0,00111,kill,0.0,5100.0,6.56376751167
307,3_6_1,6,1.0,1601.38959114,3_D,test,01,6,4.0,11101,kill,0.0,5000.0,5.46472039052
308,3_6_1,6,1.0,1609.59319707,3_D,test,01,6,5.0,00101,ignore,1.0,5100.0,6.45022579156
309,3_6_1,6,1.0,1616.78106077,3_D,test,01,6,6.0,00010,kill,1.0,5200.0,5.40265850311
310,3_6_1,6,1.0,1621.18752662,3_D,test,01,6,7.0,10001,ignore,1.0,5300.0,2.63805934726
311,3_6_1,6,1.0,1627.09407746,3_D,test,01,6,8.0,11100,ignore,1.0,5400.0,4.13842850362
312,3_6_1,6,1.0,1629.93796922,3_D,test,01,6,9.0,11011,kill,1.0,5500.0,1.11479800636
313,3_6_1,6,1.0,1632.73499769,3_D,test,01,6,10.0,00100,ignore,1.0,5600.0,0.979560091342
314,3_6_1,6,1.0,1635.29762951,3_D,test,01,6,11.0,10010,kill,1.0,5700.0,0.786609662853
315,3_6_1,6,1.0,1638.15714836,3_D,test,01,6,12.0,10110,kill,0.0,5600.0,1.09938388413
316,3_6_1,6,1.0,1648.23578251,3_D,test,01,6,13.0,10011,ignore,0.0,5500.0,8.31761174116
317,3_6_1,6,1.0,1653.25249686,3_D,test,01,6,14.0,01101,ignore,1.0,5600.0,3.27584832196
318,3_6_1,6,1.0,1660.78417759,3_D,test,01,6,15.0,11111,ignore,1.0,5700.0,5.75773720942
319,3_6_1,6,1.0,1665.19062292,3_D,test,01,6,16.0,11000,kill,0.0,5600.0,2.63482866783
320,3_6_1,6,1.0,1672.48789674,3_D,test,01,6,17.0,01111,ignore,1.0,5700.0,5.54367238415
321,3_6_1,6,1.0,1676.40996241,3_D,test,01,6,18.0,11100,ignore,1.0,5800.0,2.14919401396
322,3_6_1,6,1.0,1678.81632467,3_D,test,01,6,19.0,11001,ignore,1.0,5900.0,0.670435097756
323,3_6_1,6,1.0,1681.50396835,3_D,test,01,6,20.0,10000,kill,0.0,5800.0,0.939864717504
324,3_6_1,6,1.0,1687.08236837,3_D,test,01,6,21.0,11101,ignore,1.0,5900.0,3.79707978396
325,3_6_1,6,1.0,1691.95761918,3_D,test,01,6,22.0,10110,kill,0.0,5800.0,3.13893813825
326,3_6_1,6,1.0,1698.59859009,3_D,test,01,6,23.0,10111,ignore,1.0,5900.0,4.89166623903
327,3_6_1,6,1.0,1705.19269417,3_D,test,01,6,24.0,11010,kill,1.0,6000.0,4.82801899984
328,3_6_1,6,1.0,1709.34914526,3_D,test,01,6,25.0,01101,ignore,1.0,6100.0,2.38334306204
329,3_6_1,6,1.0,1712.48994233,3_D,test,01,6,26.0,00111,ignore,1.0,6200.0,1.36525985272
330,3_6_1,6,1.0,1714.75569546,3_D,test,01,6,27.0,01110,ignore,1.0,6300.0,0.52664757274
331,3_6_1,6,1.0,1717.42771014,3_D,test,01,6,28.0,01011,kill,1.0,6400.0,0.904673307847
332,3_6_1,6,1.0,1720.02155892,3_D,test,01,6,29.0,00110,ignore,1.0,6500.0,0.810916893315
333,3_6_1,6,1.0,1723.16238293,3_D,test,01,6,30.0,01100,ignore,1.0,6600.0,1.39498608046
334,3_6_1,6,1.0,1725.81875898,3_D,test,01,6,31.0,00001,kill,1.0,6700.0,0.872816493047
335,3_6_1,6,1.0,1728.36577783,3_D,test,01,6,32.0,01000,kill,1.0,6800.0,0.806788500024
336,3_6_1,6,1.0,1731.74096289,3_D,test,01,7,0.0,00100,ignore,0.0,6700.0,1.58062426233
337,3_6_1,6,1.0,1739.72572163,3_D,test,01,7,1.0,01001,ignore,1.0,6800.0,6.18720878021
338,3_6_1,6,1.0,1745.27290084,3_D,test,01,7,2.0,00000,ignore,1.0,6900.0,3.79058314518
339,3_6_1,6,1.0,1751.99198985,3_D,test,01,7,3.0,00101,ignore,0.0,6800.0,4.94743931852
340,3_6_1,6,1.0,1757.44540046,3_D,test,01,7,4.0,11011,kill,0.0,6700.0,3.72310322266
341,3_6_1,6,1.0,1761.57059386,3_D,test,01,7,5.0,10010,ignore,1.0,6800.0,2.34677124493
342,3_6_1,6,1.0,1766.8677535,3_D,test,01,7,6.0,10101,kill,1.0,6900.0,3.53046582337
343,3_6_1,6,1.0,1771.77424501,3_D,test,01,7,7.0,00010,ignore,1.0,7000.0,3.18010596808
344,3_6_1,6,1.0,1777.94643416,3_D,test,01,7,8.0,10100,kill,1.0,7100.0,4.39405372813
345,3_6_1,6,1.0,1783.22894879,3_D,test,01,7,9.0,11110,ignore,1.0,7200.0,3.54423686304
346,3_6_1,6,1.0,1786.3228537,3_D,test,01,7,10.0,01010,ignore,1.0,7300.0,1.36041142813
347,3_6_1,6,1.0,1790.85436252,3_D,test,01,7,11.0,00011,kill,1.0,7400.0,2.75257190691
348,3_6_1,6,1.0,1793.49507941,3_D,test,01,7,12.0,10011,kill,1.0,7500.0,0.888858918766
349,3_6_1,6,1.0,1795.96400677,3_D,test,01,7,13.0,11111,kill,0.0,7400.0,0.708513367885
350,3_6_1,6,1.0,1804.58944521,3_D,test,01,7,14.0,11000,kill,0.0,7300.0,6.86403371478
351,3_6_1,6,1.0,1810.20223322,3_D,test,01,7,15.0,10001,ignore,0.0,7200.0,3.86405744856
352,3_6_1,6,1.0,1816.59318199,3_D,test,01,7,16.0,00101,kill,1.0,7300.0,4.60184642326
353,3_6_1,6,1.0,1821.96845108,3_D,test,01,7,17.0,01000,ignore,1.0,7400.0,3.64729627444
354,3_6_1,6,1.0,1825.98428087,3_D,test,01,7,18.0,10110,kill,1.0,7500.0,2.24231699338
355,3_6_1,6,1.0,1829.14069636,3_D,test,01,7,19.0,11000,ignore,1.0,7600.0,1.38294215374
356,3_6_1,6,1.0,1834.51600586,3_D,test,01,7,20.0,01010,ignore,1.0,7700.0,3.64771706779
357,3_6_1,6,1.0,1837.20362389,3_D,test,01,7,21.0,11010,ignore,1.0,7800.0,0.923131446605
358,3_6_1,6,1.0,1839.81312061,3_D,test,01,7,22.0,00011,kill,1.0,7900.0,0.870428683225
359,3_6_1,6,1.0,1842.53204219,3_D,test,01,7,23.0,11110,ignore,1.0,8000.0,0.946632370298
360,3_6_1,6,1.0,1845.28219133,3_D,test,01,7,24.0,10011,kill,1.0,8100.0,0.978988556475
361,3_6_1,6,1.0,1847.82913,3_D,test,01,7,25.0,10000,kill,0.0,8000.0,0.796089380099
362,3_6_1,6,1.0,1856.22022342,3_D,test,01,7,26.0,01100,kill,0.0,7900.0,6.61145090316
363,3_6_1,6,1.0,1860.78297808,3_D,test,01,7,27.0,11001,ignore,1.0,8000.0,2.82290148561
364,3_6_1,6,1.0,1868.34585749,3_D,test,01,7,28.0,11011,ignore,1.0,8100.0,5.80391126136
365,3_6_1,6,1.0,1874.6118098,3_D,test,01,7,29.0,10101,ignore,0.0,8000.0,4.46117411608
366,3_6_1,6,1.0,1883.14346712,3_D,test,01,7,30.0,10111,kill,1.0,8100.0,6.77597244317
367,3_6_1,6,1.0,1885.79986273,3_D,test,01,7,31.0,11100,kill,0.0,8000.0,0.916265010004
368,3_6_1,6,1.0,1889.76881671,3_D,test,01,7,32.0,10010,ignore,1.0,8100.0,2.18989518654
369,3_6_1,6,1.0,1895.37844589,3_D,test,01,7,33.0,01001,ignore,1.0,8200.0,3.86132357469
370,3_6_1,6,1.0,1901.06628073,3_D,test,01,7,34.0,00001,ignore,0.0,8100.0,3.90333170832
371,3_6_1,6,1.0,1908.06662198,3_D,test,01,7,35.0,00000,kill,0.0,8000.0,5.26451127675
372,3_6_1,6,1.0,1914.45757364,3_D,test,01,7,36.0,10100,ignore,0.0,7900.0,4.60936457639
373,3_6_1,6,1.0,1923.67802285,3_D,test,01,7,37.0,01101,kill,0.0,7800.0,7.42864986914
374,3_6_1,6,1.0,1929.81896585,3_D,test,01,7,38.0,01110,kill,0.0,7700.0,4.40657040591
375,3_6_1,6,1.0,1935.52241623,3_D,test,01,7,39.0,00010,kill,0.0,7600.0,3.92217760558
376,3_6_1,6,1.0,1944.97601927,3_D,test,01,7,40.0,01111,ignore,1.0,7700.0,7.70740814389
377,3_6_1,6,1.0,1950.58568437,3_D,test,01,7,41.0,11101,kill,0.0,7600.0,3.83997953764
378,3_6_1,6,1.0,1958.67983335,3_D,test,01,7,42.0,00100,kill,1.0,7700.0,6.30669099913
379,3_6_1,6,1.0,1964.97703469,3_D,test,01,7,43.0,00110,ignore,0.0,7600.0,4.53844774721
380,3_6_1,6,1.0,1970.58669722,3_D,test,01,7,44.0,10001,ignore,0.0,7500.0,3.8234528147
381,3_6_1,6,1.0,1975.13382736,3_D,test,01,7,45.0,01011,ignore,1.0,7600.0,2.81272964027
382,3_6_1,6,1.0,1979.50905187,3_D,test,01,7,46.0,11111,ignore,1.0,7700.0,2.64311367835
383,3_6_1,6,1.0,1984.54053888,3_D,test,01,7,47.0,00111,kill,1.0,7800.0,3.24658875148
384,3_6_1,6,1.0,1988.4157217,3_D,test,01,7,48.0,00110,kill,1.0,7900.0,2.13113068969
385,3_6_1,6,1.0,1991.7909446,3_D,test,01,7,49.0,00100,kill,1.0,8000.0,1.58745317391
386,3_6_1,6,1.0,1994.57228665,3_D,test,01,7,50.0,11000,ignore,1.0,8100.0,1.05195033869
387,3_6_1,6,1.0,1999.43194822,3_D,test,01,7,51.0,01110,ignore,1.0,8200.0,3.11364114538
388,3_6_1,6,1.0,2002.26020745,3_D,test,01,7,52.0,10101,kill,1.0,8300.0,1.05807429312
389,3_6_1,6,1.0,2004.71346988,3_D,test,01,7,53.0,10000,kill,0.0,8200.0,0.728588931081
390,3_6_1,6,1.0,2012.68899587,3_D,test,01,7,54.0,10010,ignore,1.0,8300.0,6.24454315698
391,3_6_1,6,1.0,2018.34556467,3_D,test,01,7,55.0,01000,kill,0.0,8200.0,3.8693965849
392,3_6_1,6,1.0,2026.08034715,3_D,test,01,7,56.0,01111,ignore,1.0,8300.0,5.97523124391
393,3_6_1,6,1.0,2028.92420524,3_D,test,01,7,57.0,10100,ignore,0.0,8200.0,1.05862882948
394,3_6_1,6,1.0,2040.38469236,3_D,test,01,7,58.0,11001,kill,0.0,8100.0,9.74504156617
395,3_6_1,6,1.0,2045.90057314,3_D,test,01,7,59.0,00000,ignore,1.0,8200.0,3.72291784266
396,3_6_1,6,1.0,2053.40095256,3_D,test,01,7,60.0,10111,ignore,0.0,8100.0,5.71427490122
397,3_6_1,6,1.0,2058.59187215,3_D,test,01,7,61.0,00010,ignore,1.0,8200.0,3.45016838149
398,3_6_1,6,1.0,2063.71712648,3_D,test,01,7,62.0,11100,kill,0.0,8100.0,3.34895443116
399,3_6_1,6,1.0,2068.24860997,3_D,test,01,7,63.0,11111,kill,0.0,8000.0,2.8054167522
400,3_6_1,6,1.0,2082.87439383,3_D,test,01,7,64.0,10001,ignore,0.0,7900.0,12.834221853
401,3_6_1,6,1.0,2090.60916893,3_D,test,01,7,65.0,11101,ignore,1.0,8000.0,5.95027614564
402,3_6_1,6,1.0,2095.84377245,3_D,test,01,7,66.0,10011,kill,1.0,8100.0,3.49200620927
403,3_6_1,6,1.0,2099.68771425,3_D,test,01,7,67.0,00001,ignore,0.0,8000.0,2.06078731975
404,3_6_1,6,1.0,2103.53166245,3_D,test,01,7,68.0,00111,ignore,0.0,7900.0,2.10554985375
405,3_6_1,6,1.0,2109.84549219,3_D,test,01,7,69.0,11011,ignore,1.0,8000.0,4.53960172166
406,3_6_1,6,1.0,2118.22092677,3_D,test,01,7,70.0,00011,kill,1.0,8100.0,6.59393281418
407,3_6_1,6,1.0,2128.62774734,3_D,test,01,7,71.0,10110,kill,1.0,8200.0,8.65373261662
408,3_6_1,6,1.0,2133.86234381,3_D,test,01,7,72.0,00101,ignore,0.0,8100.0,3.47641697029
409,3_6_1,6,1.0,2139.84704707,3_D,test,01,7,73.0,01100,ignore,1.0,8200.0,4.21371106379
410,3_6_1,6,1.0,2143.98789866,3_D,test,01,7,74.0,01010,ignore,1.0,8300.0,2.39478049469
411,3_6_1,6,1.0,2148.25369573,3_D,test,01,7,75.0,11010,ignore,1.0,8400.0,2.51357218915
412,3_6_1,6,1.0,2150.8820082,3_D,test,01,7,76.0,01001,ignore,1.0,8500.0,0.908586814287
413,3_6_1,6,1.0,2153.13210923,3_D,test,01,8,0.0,11110,ignore,0.0,8400.0,0.46370144199
414,3_6_1,6,1.0,2160.58565743,3_D,test,01,8,1.0,01101,ignore,0.0,8300.0,5.67605679427
415,3_6_1,6,1.0,2166.87926951,3_D,test,01,8,2.0,01011,kill,0.0,8200.0,4.5572878714
