,unique_id,pair_id,sbj_id,wall_time,condition,block,rule_id,rule_num,trial,stimulus,choice,correct,points,reaction_time
0,2_27_1,27,1.0,24.1904302657,2_ND,training,02,1_A,1.0,11111,kill,0.0,0.0,4.2903323162
1,2_27_1,27,1.0,32.315726696,2_ND,training,02,1_A,2.0,01000,kill,1.0,100.0,6.01159517809
2,2_27_1,27,1.0,40.0973686422,2_ND,training,02,1_A,3.0,10001,kill,1.0,200.0,5.63944682601
3,2_27_1,27,1.0,43.3943823057,2_ND,training,02,1_A,4.0,10000,kill,1.0,300.0,1.17842552152
4,2_27_1,27,1.0,49.504067437,2_ND,training,02,1_A,5.0,10101,kill,0.0,200.0,3.97176656082
5,2_27_1,27,1.0,52.9729288689,2_ND,training,02,1_A,6.0,01110,ignore,1.0,300.0,1.33052271151
6,2_27_1,27,1.0,57.0043910487,2_ND,training,02,1_A,7.0,00110,ignore,1.0,400.0,1.90094787125
7,2_27_1,27,1.0,64.1453587536,2_ND,training,02,1_A,8.0,11010,ignore,1.0,500.0,5.02497358827
8,2_27_1,27,1.0,69.7706122067,2_ND,training,02,1_A,9.0,00011,kill,1.0,600.0,3.50177040309
9,2_27_1,27,1.0,76.2552616573,2_ND,training,02,1_A,10.0,00001,kill,1.0,700.0,4.35978375425
10,2_27_1,27,1.0,80.2242577938,2_ND,training,02,1_A,11.0,00101,ignore,1.0,800.0,1.83116480336
11,2_27_1,27,1.0,85.9744863105,2_ND,training,02,1_A,12.0,01010,ignore,1.0,900.0,3.64564612336
12,2_27_1,27,1.0,91.4591447414,2_ND,training,02,1_A,13.0,00000,kill,1.0,1000.0,3.35516691502
13,2_27_1,27,1.0,94.5374032933,2_ND,training,02,1_A,14.0,01011,kill,1.0,1100.0,0.997236952418
14,2_27_1,27,1.0,101.444015172,2_ND,training,02,1_A,15.0,11110,ignore,1.0,1200.0,4.79785268065
15,2_27_1,27,1.0,105.084748106,2_ND,training,02,1_A,16.0,10110,ignore,1.0,1300.0,1.52444888186
16,2_27_1,27,1.0,108.538044744,2_ND,training,02,1_A,17.0,01001,kill,1.0,1400.0,1.36069621742
17,2_27_1,27,1.0,115.366507437,2_ND,training,02,1_A,18.0,11000,ignore,0.0,1300.0,4.78111018386
18,2_27_1,27,1.0,121.569957863,2_ND,training,02,1_A,19.0,11101,ignore,1.0,1400.0,4.10863924638
19,2_27_1,27,1.0,127.007683293,2_ND,training,02,1_A,20.0,11100,kill,0.0,1300.0,3.37673504314
20,2_27_1,27,1.0,131.104162885,2_ND,training,02,1_A,21.0,10100,ignore,1.0,1400.0,2.01923068288
21,2_27_1,27,1.0,138.713925632,2_ND,training,02,1_A,22.0,01111,kill,0.0,1300.0,5.50687025448
22,2_27_1,27,1.0,142.94845914,2_ND,training,02,1_A,23.0,10111,ignore,1.0,1400.0,2.14946852627
23,2_27_1,27,1.0,146.386097974,2_ND,training,02,1_A,24.0,10011,kill,1.0,1500.0,1.33614694858
24,2_27_1,27,1.0,151.839518733,2_ND,training,02,1_A,25.0,00010,ignore,1.0,1600.0,3.38034223944
25,2_27_1,27,1.0,155.730313406,2_ND,training,02,1_A,26.0,00100,kill,0.0,1500.0,1.83853570987
26,2_27_1,27,1.0,160.464918116,2_ND,training,02,1_A,27.0,11001,kill,1.0,1600.0,2.664113801
27,2_27_1,27,1.0,165.918306481,2_ND,training,02,1_A,28.0,01100,ignore,1.0,1700.0,3.40752177563
28,2_27_1,27,1.0,169.012168955,2_ND,training,02,1_A,29.0,11011,kill,1.0,1800.0,1.05705861637
29,2_27_1,27,1.0,172.356114017,2_ND,training,02,1_A,30.0,00111,ignore,1.0,1900.0,1.29019697018
30,2_27_1,27,1.0,176.606343816,2_ND,training,02,1_A,31.0,10010,ignore,1.0,2000.0,2.22680371039
31,2_27_1,27,1.0,179.793996922,2_ND,training,02,1_A,32.0,01101,ignore,1.0,2100.0,1.14073838637
32,2_27_1,27,1.0,184.247339424,2_ND,training,02,1_A,33.0,01110,kill,0.0,2000.0,2.41941330381
33,2_27_1,27,1.0,188.997508607,2_ND,training,02,1_A,34.0,10110,ignore,1.0,2100.0,2.70110592463
34,2_27_1,27,1.0,192.263305766,2_ND,training,02,1_A,35.0,10010,ignore,1.0,2200.0,1.22705002736
35,2_27_1,27,1.0,196.451023338,2_ND,training,02,1_A,36.0,00110,ignore,1.0,2300.0,2.17501236395
36,2_27_1,27,1.0,199.894929784,2_ND,training,02,1_A,37.0,00000,kill,1.0,2400.0,1.4109362161
37,2_27_1,27,1.0,203.835019279,2_ND,training,02,1_A,38.0,11100,ignore,1.0,2500.0,1.90321924711
38,2_27_1,27,1.0,210.600930616,2_ND,training,02,1_A,39.0,11010,ignore,1.0,2600.0,4.75131962383
39,2_27_1,27,1.0,213.647952458,2_ND,training,02,1_A,40.0,00001,kill,1.0,2700.0,1.02653391636
40,2_27_1,27,1.0,216.554333094,2_ND,training,02,1_A,41.0,11011,kill,1.0,2800.0,0.903384420584
41,2_27_1,27,1.0,222.085864871,2_ND,training,02,1_A,42.0,00100,ignore,1.0,2900.0,3.48688105649
42,2_27_1,27,1.0,225.773496488,2_ND,training,02,1_A,43.0,11110,ignore,1.0,3000.0,1.69521740999
43,2_27_1,27,1.0,228.992431206,2_ND,training,02,1_A,44.0,00010,ignore,1.0,3100.0,1.22468211323
44,2_27_1,27,1.0,232.023831486,2_ND,training,02,1_A,45.0,01010,ignore,1.0,3200.0,1.02964174353
45,2_27_1,27,1.0,234.820807945,2_ND,training,02,1_A,46.0,11001,kill,1.0,3300.0,0.785666406024
46,2_27_1,27,1.0,237.80531339,2_ND,training,02,1_A,47.0,10101,ignore,1.0,3400.0,0.950518195707
47,2_27_1,27,1.0,241.152365958,2_ND,training,02,1_A,48.0,00101,ignore,1.0,3500.0,1.32473073516
48,2_27_1,27,1.0,244.32440103,2_ND,training,02,1_A,49.0,01001,kill,1.0,3600.0,1.1653139547
49,2_27_1,27,1.0,247.887037378,2_ND,training,02,1_A,50.0,11111,ignore,1.0,3700.0,1.55580971246
50,2_27_1,27,1.0,252.934212847,2_ND,training,02,1_A,51.0,10100,ignore,1.0,3800.0,3.02565801586
51,2_27_1,27,1.0,256.731223304,2_ND,training,02,1_A,52.0,01111,ignore,1.0,3900.0,1.78030708796
52,2_27_1,27,1.0,259.793865104,2_ND,training,02,1_A,53.0,10011,kill,1.0,4000.0,1.04105410827
53,2_27_1,27,1.0,263.637805354,2_ND,training,02,1_A,54.0,11000,kill,1.0,4100.0,1.86103554469
54,2_27_1,27,1.0,266.731683224,2_ND,training,02,1_A,55.0,10001,kill,1.0,4200.0,1.07131805869
55,2_27_1,27,1.0,271.794414507,2_ND,training,02,1_A,56.0,10000,kill,1.0,4300.0,3.04943946857
56,2_27_1,27,1.0,275.122687652,2_ND,training,02,1_A,57.0,11101,ignore,1.0,4400.0,1.31507658598
57,2_27_1,27,1.0,278.341586127,2_ND,training,02,1_A,58.0,01101,ignore,1.0,4500.0,1.18645808411
58,2_27_1,27,1.0,281.544911791,2_ND,training,02,1_A,59.0,00111,ignore,1.0,4600.0,1.18385251259
59,2_27_1,27,1.0,287.607661035,2_ND,training,02,1_A,60.0,01100,ignore,1.0,4700.0,4.04444192853
60,2_27_1,27,1.0,290.982842485,2_ND,training,02,1_A,61.0,01000,kill,1.0,4800.0,1.37452941595
61,2_27_1,27,1.0,295.967448637,2_ND,training,02,1_A,62.0,10111,ignore,1.0,4900.0,2.97230473769
62,2_27_1,27,1.0,299.483690162,2_ND,training,02,1_A,63.0,01011,kill,1.0,5000.0,1.50458540815
63,2_27_1,27,1.0,302.608815325,2_ND,training,02,1_A,64.0,00011,kill,1.0,5100.0,1.12159494076
64,2_27_1,27,1.0,305.999626355,2_ND,training,02,1_A,65.0,11011,kill,1.0,5200.0,1.38637989129
65,2_27_1,27,1.0,308.51534638,2_ND,training,02,1_A,66.0,01001,kill,1.0,5300.0,0.495789198874
66,2_27_1,27,1.0,311.06233647,2_ND,training,02,1_A,67.0,00001,kill,1.0,5400.0,0.545435535198
67,2_27_1,27,1.0,313.703093779,2_ND,training,02,1_A,68.0,10011,kill,1.0,5500.0,0.624792250266
68,2_27_1,27,1.0,316.859448596,2_ND,training,02,1_A,69.0,11101,ignore,1.0,5600.0,1.15797800724
69,2_27_1,27,1.0,322.078468948,2_ND,training,02,1_A,70.0,00110,ignore,1.0,5700.0,3.2047496836
70,2_27_1,27,1.0,326.76620448,2_ND,training,02,1_A,71.0,11010,ignore,1.0,5800.0,2.69610966748
71,2_27_1,27,1.0,330.016343515,2_ND,training,02,1_A,72.0,11111,ignore,1.0,5900.0,1.26588696233
72,2_27_1,27,1.0,332.860242391,2_ND,training,02,1_A,73.0,10111,ignore,1.0,6000.0,0.84364357937
73,2_27_1,27,1.0,338.563638935,2_ND,training,02,1_A,74.0,01100,ignore,1.0,6100.0,3.69513113491
74,2_27_1,27,1.0,341.752035482,2_ND,training,02,1_A,75.0,11110,ignore,1.0,6200.0,1.20800023348
75,2_27_1,27,1.0,345.2053318,2_ND,training,02,1_A,76.0,00101,ignore,1.0,6300.0,1.44471146599
76,2_27_1,27,1.0,348.252318362,2_ND,training,02,1_A,77.0,10000,kill,1.0,6400.0,1.06578811482
77,2_27_1,27,1.0,352.361948649,2_ND,training,02,1_A,78.0,11001,kill,1.0,6500.0,2.09127101472
78,2_27_1,27,1.0,355.440254989,2_ND,training,02,1_A,79.0,01110,ignore,1.0,6600.0,1.07654716232
79,2_27_1,27,1.0,358.940429785,2_ND,training,02,1_A,80.0,00011,kill,1.0,6700.0,1.48659368671
80,2_27_1,27,1.0,365.23759483,2_ND,training,02,1_A,81.0,01000,kill,1.0,6800.0,4.29549438828
81,2_27_1,27,1.0,368.815881927,2_ND,training,02,1_A,82.0,01011,kill,1.0,6900.0,1.58374070779
82,2_27_1,27,1.0,372.550472524,2_ND,training,02,1_A,83.0,10010,ignore,1.0,7000.0,1.71669509361
83,2_27_1,27,1.0,379.863295374,2_ND,training,02,1_A,84.0,00111,ignore,1.0,7100.0,5.29162451804
84,2_27_1,27,1.0,382.613473217,2_ND,training,02,1_A,85.0,10001,kill,1.0,7200.0,0.738399209222
85,2_27_1,27,1.0,385.660611482,2_ND,training,02,1_A,86.0,01101,ignore,1.0,7300.0,1.02534819531
86,2_27_1,27,1.0,391.207764821,2_ND,training,02,1_A,87.0,10100,ignore,1.0,7400.0,3.53338941747
87,2_27_1,27,1.0,394.426672919,2_ND,training,02,1_A,88.0,11100,ignore,1.0,7500.0,1.22773188913
88,2_27_1,27,1.0,397.520558485,2_ND,training,02,1_A,89.0,11000,kill,1.0,7600.0,1.08836524442
89,2_27_1,27,1.0,400.801923325,2_ND,training,02,1_A,90.0,00000,kill,1.0,7700.0,1.27377134986
90,2_27_1,27,1.0,404.567751274,2_ND,training,02,1_A,91.0,01111,ignore,1.0,7800.0,1.77244322683
91,2_27_1,27,1.0,407.57416257,2_ND,training,02,1_A,92.0,01010,ignore,1.0,7900.0,1.01053165333
92,2_27_1,27,1.0,411.940080515,2_ND,training,02,1_A,93.0,10101,ignore,1.0,8000.0,2.35945020003
93,2_27_1,27,1.0,415.518377233,2_ND,training,02,1_A,94.0,10110,ignore,1.0,8100.0,1.57388867115
94,2_27_1,27,1.0,419.002914751,2_ND,training,02,1_A,95.0,00010,ignore,1.0,8200.0,1.5009634585
95,2_27_1,27,1.0,421.831200083,2_ND,training,02,1_A,96.0,00100,ignore,1.0,8300.0,0.796573949279
96,2_27_1,27,1.0,424.471930772,2_ND,training,02,1_A,97.0,00100,ignore,1.0,8400.0,0.625577385537
97,2_27_1,27,1.0,427.456470535,2_ND,training,02,1_A,98.0,11100,ignore,1.0,8500.0,0.999411789991
98,2_27_1,27,1.0,431.191034191,2_ND,training,02,1_A,99.0,00101,ignore,1.0,8600.0,1.72443066466
99,2_27_1,27,1.0,433.769269972,2_ND,training,02,1_A,100.0,10101,ignore,1.0,8700.0,0.589201054288
100,2_27_1,27,1.0,437.269387036,2_ND,training,02,1_A,101.0,10000,kill,1.0,8800.0,1.48290791275
101,2_27_1,27,1.0,440.739551575,2_ND,training,02,1_A,102.0,10001,kill,1.0,8900.0,1.45218564601
102,2_27_1,27,1.0,444.755354988,2_ND,training,02,1_A,103.0,11000,kill,1.0,9000.0,2.03202056234
103,2_27_1,27,1.0,452.70886555,2_ND,training,02,1_A,104.0,10110,ignore,1.0,9100.0,5.93862185665
104,2_27_1,27,1.0,455.583988949,2_ND,training,02,1_A,105.0,01111,ignore,1.0,9200.0,0.896330390577
105,2_27_1,27,1.0,458.193494154,2_ND,training,02,1_A,106.0,11111,ignore,1.0,9300.0,0.625774631539
106,2_27_1,27,1.0,462.318655558,2_ND,training,02,1_A,107.0,01101,ignore,1.0,9400.0,2.12694688213
107,2_27_1,27,1.0,466.334452878,2_ND,training,02,1_A,108.0,01000,kill,1.0,9500.0,2.0227679611
108,2_27_1,27,1.0,469.506520343,2_ND,training,02,1_A,109.0,01110,ignore,1.0,9600.0,1.19532389076
109,2_27_1,27,1.0,472.54100183,2_ND,training,02,1_A,110.0,00001,kill,1.0,9700.0,1.01662382847
110,2_27_1,27,1.0,475.525509199,2_ND,training,02,1_A,111.0,10011,kill,1.0,9800.0,0.981556376748
111,2_27_1,27,1.0,478.744497799,2_ND,training,02,1_A,112.0,11101,ignore,1.0,9900.0,1.2198616135
112,2_27_1,27,1.0,481.66642623,2_ND,training,02,1_A,113.0,01011,kill,1.0,10000.0,0.937024645158
113,2_27_1,27,1.0,485.416675594,2_ND,training,02,1_A,114.0,00111,ignore,1.0,10100.0,1.76140546914
114,2_27_1,27,1.0,489.344934178,2_ND,training,02,1_A,115.0,10010,ignore,1.0,10200.0,1.93636202691
115,2_27_1,27,1.0,492.845065033,2_ND,training,02,1_A,116.0,01010,ignore,1.0,10300.0,1.5292873422
116,2_27_1,27,1.0,496.188993738,2_ND,training,02,1_A,117.0,11001,kill,1.0,10400.0,1.34549865391
117,2_27_1,27,1.0,499.751711229,2_ND,training,02,1_A,118.0,00000,kill,1.0,10500.0,1.5693670873
118,2_27_1,27,1.0,506.892685669,2_ND,training,02,1_A,119.0,11011,kill,1.0,10600.0,5.11891271592
119,2_27_1,27,1.0,510.174062055,2_ND,training,02,1_A,120.0,11110,ignore,1.0,10700.0,1.28433796225
120,2_27_1,27,1.0,513.236682688,2_ND,training,02,1_A,121.0,00110,ignore,1.0,10800.0,1.07108489146
121,2_27_1,27,1.0,516.64309732,2_ND,training,02,1_A,122.0,01100,ignore,1.0,10900.0,1.40921424251
122,2_27_1,27,1.0,519.299497359,2_ND,training,02,1_A,123.0,10100,ignore,1.0,11000.0,0.584971009652
123,2_27_1,27,1.0,522.096612693,2_ND,training,02,1_A,124.0,00011,kill,1.0,11100.0,0.77690483506
124,2_27_1,27,1.0,524.956037235,2_ND,training,02,1_A,125.0,01001,kill,1.0,11200.0,0.847920770611
125,2_27_1,27,1.0,527.893666768,2_ND,training,02,1_A,126.0,10111,ignore,1.0,11300.0,0.931527735986
126,2_27_1,27,1.0,530.878143668,2_ND,training,02,1_A,127.0,11010,ignore,1.0,11400.0,0.970967955058
127,2_27_1,27,1.0,534.081425393,2_ND,training,02,1_A,128.0,00010,ignore,1.0,11500.0,1.22682423682
128,2_27_1,27,1.0,538.628495985,2_ND,training,02,1_A,129.0,01001,kill,1.0,11600.0,2.55141064564
129,2_27_1,27,1.0,543.081858051,2_ND,training,02,1_A,130.0,01111,ignore,1.0,11700.0,2.45357470683
130,2_27_1,27,1.0,546.191376405,2_ND,training,02,1_A,131.0,10001,kill,1.0,11800.0,1.12043423626
131,2_27_1,27,1.0,552.254169267,2_ND,training,02,1_A,132.0,10110,ignore,1.0,11900.0,4.07353843923
132,2_27_1,27,1.0,555.51991928,2_ND,training,02,1_A,133.0,00100,ignore,1.0,12000.0,1.24086526528
133,2_27_1,27,1.0,558.551329502,2_ND,training,02,1_A,134.0,11000,kill,1.0,12100.0,1.03692829932
134,2_27_1,27,1.0,564.145364847,2_ND,training,02,1_A,135.0,00101,ignore,1.0,12200.0,3.59305841626
135,2_27_1,27,1.0,568.52054277,2_ND,training,02,1_A,136.0,11010,ignore,1.0,12300.0,2.42251824445
136,2_27_1,27,1.0,571.270672182,2_ND,training,02,1_A,137.0,11110,ignore,1.0,12400.0,0.754282162481
137,2_27_1,27,1.0,574.824013273,2_ND,training,02,1_A,138.0,11101,ignore,1.0,12500.0,1.54536208913
138,2_27_1,27,1.0,578.214776195,2_ND,training,02,1_A,139.0,00110,ignore,1.0,12600.0,1.38480865855
139,2_27_1,27,1.0,583.183771048,2_ND,training,02,1_A,140.0,11001,kill,1.0,12700.0,2.96664393794
140,2_27_1,27,1.0,585.996380937,2_ND,training,02,1_A,141.0,10011,kill,1.0,12800.0,0.820804096555
141,2_27_1,27,1.0,592.277917365,2_ND,training,02,1_A,142.0,00011,kill,1.0,12900.0,4.24820923085
142,2_27_1,27,1.0,595.746820491,2_ND,training,02,1_A,143.0,11100,ignore,1.0,13000.0,1.44844150005
143,2_27_1,27,1.0,598.9032603,2_ND,training,02,1_A,144.0,01110,ignore,1.0,13100.0,1.17248793592
144,2_27_1,27,1.0,602.122138891,2_ND,training,02,1_A,145.0,00000,kill,1.0,13200.0,1.202313455
145,2_27_1,27,1.0,607.012989371,2_ND,training,02,1_A,146.0,10100,ignore,1.0,13300.0,2.89559047754
146,2_27_1,27,1.0,613.325782072,2_ND,training,02,1_A,147.0,00010,ignore,1.0,13400.0,4.32836872108
147,2_27_1,27,1.0,616.075925597,2_ND,training,02,1_A,148.0,01100,ignore,1.0,13500.0,0.750381823353
148,2_27_1,27,1.0,620.935529745,2_ND,training,02,1_A,149.0,10101,ignore,1.0,13600.0,2.87896087601
149,2_27_1,27,1.0,623.763753498,2_ND,training,02,1_A,150.0,11111,ignore,1.0,13700.0,0.856771823906
150,2_27_1,27,1.0,634.045500001,2_ND,training,02,1_A,151.0,01000,kill,1.0,13800.0,8.28429466437
151,2_27_1,27,1.0,637.748826306,2_ND,training,02,1_A,152.0,01010,ignore,1.0,13900.0,1.71380119014
152,2_27_1,27,1.0,643.952219001,2_ND,training,02,1_A,153.0,01011,kill,1.0,14000.0,4.21021419954
153,2_27_1,27,1.0,646.874252951,2_ND,training,02,1_A,154.0,00111,ignore,1.0,14100.0,0.933678198446
154,2_27_1,27,1.0,651.12689268,2_ND,training,02,1_A,155.0,11011,kill,1.0,14200.0,2.23737096424
155,2_27_1,27,1.0,657.924109683,2_ND,training,02,1_A,156.0,01101,ignore,1.0,14300.0,4.75011177272
156,2_27_1,27,1.0,661.252402392,2_ND,training,02,1_A,157.0,10000,kill,1.0,14400.0,1.33927081202
157,2_27_1,27,1.0,664.799430969,2_ND,training,02,1_A,158.0,00001,kill,1.0,14500.0,1.54717450721
158,2_27_1,27,1.0,668.424627975,2_ND,training,02,1_A,159.0,10010,ignore,1.0,14600.0,1.65157921881
159,2_27_1,27,1.0,672.487304414,2_ND,training,02,1_A,160.0,10111,ignore,1.0,14700.0,2.06217097603
160,2_27_1,27,1.0,675.56558702,2_ND,training,02,1_A,161.0,00111,ignore,1.0,14800.0,1.07269236617
161,2_27_1,27,1.0,678.784447971,2_ND,training,02,1_A,162.0,00101,ignore,1.0,14900.0,1.22748396856
162,2_27_1,27,1.0,682.315868456,2_ND,training,02,1_A,163.0,00100,ignore,1.0,15000.0,1.52745760494
163,2_27_1,27,1.0,688.113046011,2_ND,training,02,1_A,164.0,11011,kill,1.0,15100.0,3.82512875512
164,2_27_1,27,1.0,694.34770364,2_ND,training,02,1_A,165.0,11100,ignore,1.0,15200.0,4.26029223196
165,2_27_1,27,1.0,697.504093736,2_ND,training,02,1_A,166.0,00010,ignore,1.0,15300.0,1.15713000981
166,2_27_1,27,1.0,700.316737942,2_ND,training,02,1_A,167.0,01111,ignore,1.0,15400.0,0.82941620957
167,2_27_1,27,1.0,703.457529249,2_ND,training,02,1_A,168.0,00001,kill,1.0,15500.0,1.12090890955
168,2_27_1,27,1.0,707.051433738,2_ND,training,02,1_A,169.0,01010,ignore,1.0,15600.0,1.61816574693
169,2_27_1,27,1.0,710.848486851,2_ND,training,02,1_A,170.0,01000,kill,1.0,15700.0,1.78267436066
170,2_27_1,27,1.0,714.536179727,2_ND,training,02,1_A,171.0,11110,ignore,1.0,15800.0,1.69998787659
171,2_27_1,27,1.0,718.380068661,2_ND,training,02,1_A,172.0,10100,ignore,1.0,15900.0,1.85375315834
172,2_27_1,27,1.0,722.161505984,2_ND,training,02,1_A,173.0,11111,ignore,1.0,16000.0,1.80930545676
173,2_27_1,27,1.0,725.333562224,2_ND,training,02,1_A,174.0,00110,ignore,1.0,16100.0,1.17392991642
174,2_27_1,27,1.0,730.974432108,2_ND,training,02,1_A,175.0,11001,kill,1.0,16200.0,3.63678897629
175,2_27_1,27,1.0,733.787060278,2_ND,training,02,1_A,176.0,10010,ignore,1.0,16300.0,0.814664774822
176,2_27_1,27,1.0,738.506043425,2_ND,training,02,1_A,177.0,11000,kill,1.0,16400.0,2.75710518568
177,2_27_1,27,1.0,742.514511853,2_ND,training,02,1_A,178.0,10001,kill,1.0,16500.0,1.99463683323
178,2_27_1,27,1.0,745.203296157,2_ND,training,02,1_A,179.0,10011,kill,1.0,16600.0,0.687858691046
179,2_27_1,27,1.0,748.372195819,2_ND,training,02,1_A,180.0,01100,ignore,1.0,16700.0,1.18690196778
180,2_27_1,27,1.0,751.528604518,2_ND,training,02,1_A,181.0,11101,ignore,1.0,16800.0,1.1607994268
181,2_27_1,27,1.0,754.169450027,2_ND,training,02,1_A,182.0,10110,ignore,1.0,16900.0,0.656449751652
182,2_27_1,27,1.0,757.044474963,2_ND,training,02,1_A,183.0,01001,kill,1.0,17000.0,0.868400036692
183,2_27_1,27,1.0,759.919611191,2_ND,training,02,1_A,184.0,10000,kill,1.0,17100.0,0.871556614089
184,2_27_1,27,1.0,764.185456139,2_ND,training,02,1_A,185.0,01110,ignore,1.0,17200.0,2.29080891385
185,2_27_1,27,1.0,767.71686155,2_ND,training,02,1_A,186.0,00000,kill,1.0,17300.0,1.50663612508
186,2_27_1,27,1.0,771.811358739,2_ND,training,02,1_A,187.0,01101,ignore,1.0,17400.0,2.12504177444
187,2_27_1,27,1.0,774.936557028,2_ND,training,02,1_A,188.0,11010,ignore,1.0,17500.0,1.14955255628
188,2_27_1,27,1.0,777.483558985,2_ND,training,02,1_A,189.0,10111,ignore,1.0,17600.0,0.533111990182
189,2_27_1,27,1.0,780.483672522,2_ND,training,02,1_A,190.0,00011,kill,1.0,17700.0,1.01410453203
190,2_27_1,27,1.0,783.452577251,2_ND,training,02,1_A,191.0,01011,kill,1.0,17800.0,0.987648551891
191,2_27_1,27,1.0,786.624593721,2_ND,training,02,1_A,192.0,10101,ignore,1.0,17900.0,1.16116024264
192,2_27_1,27,1.0,789.812257411,2_ND,training,02,1_A,193.0,10100,ignore,1.0,18000.0,1.1678864915
193,2_27_1,27,1.0,793.140507785,2_ND,training,02,1_A,194.0,10001,kill,1.0,18100.0,1.31813341784
194,2_27_1,27,1.0,796.171936289,2_ND,training,02,1_A,195.0,11000,kill,1.0,18200.0,1.06396960295
195,2_27_1,27,1.0,799.234560449,2_ND,training,02,1_A,196.0,11001,kill,1.0,18300.0,1.0507865144
196,2_27_1,27,1.0,804.062903192,2_ND,training,02,1_A,197.0,00110,ignore,1.0,18400.0,2.83818996811
197,2_27_1,27,1.0,807.438085283,2_ND,training,02,1_A,198.0,11110,ignore,1.0,18500.0,1.40210889647
198,2_27_1,27,1.0,810.953867208,2_ND,training,02,1_A,199.0,00111,ignore,1.0,18600.0,1.5106929781
199,2_27_1,27,1.0,813.797766406,2_ND,training,02,1_A,200.0,01111,ignore,1.0,18700.0,0.865256609017
200,2_27_1,27,1.0,817.001025358,2_ND,training,02,1_A,201.0,01010,ignore,1.0,18800.0,1.187584471
201,2_27_1,27,1.0,820.282412007,2_ND,training,02,1_A,202.0,11111,ignore,1.0,18900.0,1.28160410066
202,2_27_1,27,1.0,823.220096384,2_ND,training,02,1_A,203.0,10000,kill,1.0,19000.0,0.956140829163
203,2_27_1,27,1.0,826.427318218,2_ND,training,02,1_A,204.0,01110,ignore,1.0,19100.0,1.22757601668
204,2_27_1,27,1.0,829.114923536,2_ND,training,02,1_A,205.0,10110,ignore,1.0,19200.0,0.713691181401
205,2_27_1,27,1.0,832.168675155,2_ND,training,02,1_A,206.0,11101,ignore,1.0,19300.0,1.0675825723
206,2_27_1,27,1.0,834.731308296,2_ND,training,02,1_A,207.0,00101,ignore,1.0,19400.0,0.550232301262
207,2_27_1,27,1.0,837.356420951,2_ND,training,02,1_A,208.0,01100,ignore,1.0,19500.0,0.646925816909
208,2_27_1,27,1.0,840.419053771,2_ND,training,02,1_A,209.0,11100,ignore,1.0,19600.0,1.06720924817
209,2_27_1,27,1.0,945.127069078,2_ND,test,02,2,0.0,00011,ignore,0.0,0.0,6.10466289536
210,2_27_1,27,1.0,950.90862507,2_ND,test,02,2,1.0,10010,kill,1.0,100.0,3.78259866951
211,2_27_1,27,1.0,957.205792682,2_ND,test,02,2,2.0,10011,kill,1.0,200.0,4.31436104806
212,2_27_1,27,1.0,965.331191103,2_ND,test,02,2,3.0,01000,ignore,1.0,300.0,6.16230426943
213,2_27_1,27,1.0,968.800052214,2_ND,test,02,2,4.0,11010,kill,1.0,400.0,1.51110735507
214,2_27_1,27,1.0,973.331519205,2_ND,test,02,2,5.0,01101,ignore,1.0,500.0,2.54406507642
215,2_27_1,27,1.0,976.447485418,2_ND,test,02,2,6.0,10101,ignore,1.0,600.0,1.14380131204
216,2_27_1,27,1.0,981.697735744,2_ND,test,02,2,7.0,01001,kill,0.0,500.0,3.248579027
217,2_27_1,27,1.0,986.369835282,2_ND,test,02,2,8.0,00000,ignore,1.0,600.0,2.69965432238
218,2_27_1,27,1.0,989.948135528,2_ND,test,02,2,9.0,11011,kill,1.0,700.0,1.59562293494
219,2_27_1,27,1.0,992.776369865,2_ND,test,02,2,10.0,01011,kill,0.0,600.0,0.84186900685
220,2_27_1,27,1.0,997.854789101,2_ND,test,02,2,11.0,00100,ignore,1.0,700.0,3.05287058675
221,2_27_1,27,1.0,1005.13749297,2_ND,test,02,2,12.0,10111,ignore,0.0,600.0,5.27074177965
222,2_27_1,27,1.0,1011.37214675,2_ND,test,02,2,13.0,00001,ignore,1.0,700.0,4.25470584046
223,2_27_1,27,1.0,1020.90381163,2_ND,test,02,2,14.0,00010,kill,1.0,800.0,7.53481824823
224,2_27_1,27,1.0,1028.82605597,2_ND,test,02,2,15.0,11110,ignore,0.0,700.0,5.93900833052
225,2_27_1,27,1.0,1033.49817796,2_ND,test,02,2,16.0,10100,ignore,1.0,800.0,2.69560388385
226,2_27_1,27,1.0,1037.57648622,2_ND,test,02,2,17.0,10110,kill,1.0,900.0,2.08108638605
227,2_27_1,27,1.0,1041.17049912,2_ND,test,02,2,18.0,11010,kill,1.0,1000.0,1.65253048975
228,2_27_1,27,1.0,1046.54565619,2_ND,test,02,2,19.0,00011,ignore,0.0,900.0,3.38413577709
229,2_27_1,27,1.0,1051.97405622,2_ND,test,02,2,20.0,10111,kill,1.0,1000.0,3.44422171862
230,2_27_1,27,1.0,1057.09927503,2_ND,test,02,2,21.0,11001,ignore,1.0,1100.0,3.17655858013
231,2_27_1,27,1.0,1061.61511757,2_ND,test,02,2,22.0,10010,kill,1.0,1200.0,2.53498117664
232,2_27_1,27,1.0,1066.84976751,2_ND,test,02,2,23.0,10000,ignore,1.0,1300.0,3.23784948624
233,2_27_1,27,1.0,1072.41250905,2_ND,test,02,2,24.0,01110,ignore,1.0,1400.0,3.58497806561
234,2_27_1,27,1.0,1080.92853665,2_ND,test,02,2,25.0,01100,ignore,1.0,1500.0,6.50872500829
235,2_27_1,27,1.0,1085.74121646,2_ND,test,02,2,26.0,11011,kill,1.0,1600.0,2.8592651416
236,2_27_1,27,1.0,1094.49166339,2_ND,test,02,2,27.0,01111,ignore,1.0,1700.0,6.74910501634
237,2_27_1,27,1.0,1101.27321553,2_ND,test,02,2,28.0,01000,ignore,1.0,1800.0,4.79260176771
238,2_27_1,27,1.0,1106.80474058,2_ND,test,02,2,29.0,00111,ignore,0.0,1700.0,3.53216103997
239,2_27_1,27,1.0,1112.30501351,2_ND,test,02,2,30.0,01011,ignore,1.0,1800.0,3.5065142495
240,2_27_1,27,1.0,1117.71152789,2_ND,test,02,2,31.0,01101,kill,0.0,1700.0,3.42637945512
241,2_27_1,27,1.0,1126.00878563,2_ND,test,02,2,32.0,00001,ignore,1.0,1800.0,6.25938618329
242,2_27_1,27,1.0,1134.30918134,2_ND,test,02,2,33.0,00100,kill,0.0,1700.0,6.29771541027
243,2_27_1,27,1.0,1140.74700202,2_ND,test,02,2,34.0,10101,ignore,1.0,1800.0,4.44822052038
244,2_27_1,27,1.0,1149.16957479,2_ND,test,02,2,35.0,10001,ignore,1.0,1900.0,6.4010235624
245,2_27_1,27,1.0,1152.98225556,2_ND,test,02,2,36.0,01001,ignore,1.0,2000.0,1.83450740138
246,2_27_1,27,1.0,1156.54493071,2_ND,test,02,2,37.0,10011,kill,1.0,2100.0,1.55790629308
247,2_27_1,27,1.0,1163.49834891,2_ND,test,02,2,38.0,00010,kill,1.0,2200.0,4.94854445283
248,2_27_1,27,1.0,1167.96730207,2_ND,test,02,2,39.0,11100,ignore,1.0,2300.0,2.4653475667
249,2_27_1,27,1.0,1173.26446647,2_ND,test,02,2,40.0,11000,ignore,1.0,2400.0,3.31580366999
250,2_27_1,27,1.0,1178.35845242,2_ND,test,02,2,41.0,00101,ignore,1.0,2500.0,3.04916107911
251,2_27_1,27,1.0,1182.6242746,2_ND,test,02,2,42.0,00110,ignore,0.0,2400.0,2.2750151222
252,2_27_1,27,1.0,1187.40573566,2_ND,test,02,2,43.0,00000,ignore,1.0,2500.0,2.77206412965
253,2_27_1,27,1.0,1192.04656417,2_ND,test,02,2,44.0,11101,ignore,1.0,2600.0,2.67468907296
254,2_27_1,27,1.0,1198.10933522,2_ND,test,02,2,45.0,01010,ignore,1.0,2700.0,4.09347792481
255,2_27_1,27,1.0,1205.78158133,2_ND,test,02,2,46.0,11111,kill,1.0,2800.0,5.69378697561
256,2_27_1,27,1.0,1210.54744712,2_ND,test,02,2,47.0,00010,ignore,0.0,2700.0,2.76422239855
257,2_27_1,27,1.0,1220.45415169,2_ND,test,02,2,48.0,01001,ignore,1.0,2800.0,7.91357257722
258,2_27_1,27,1.0,1225.04809916,2_ND,test,02,2,49.0,00000,ignore,1.0,2900.0,2.60603110906
259,2_27_1,27,1.0,1230.07957994,2_ND,test,02,2,50.0,00001,ignore,1.0,3000.0,3.02557943818
260,2_27_1,27,1.0,1235.9548916,2_ND,test,02,2,51.0,11001,ignore,1.0,3100.0,3.88548346437
261,2_27_1,27,1.0,1240.611342,2_ND,test,02,2,52.0,11100,kill,0.0,3000.0,2.68660401407
262,2_27_1,27,1.0,1245.40844097,2_ND,test,02,2,53.0,10101,ignore,1.0,3100.0,2.8072047067
263,2_27_1,27,1.0,1252.94003593,2_ND,test,02,2,54.0,10110,kill,1.0,3200.0,5.57346050302
264,2_27_1,27,1.0,1256.62772721,2_ND,test,02,2,55.0,11010,ignore,0.0,3100.0,1.68861560251
265,2_27_1,27,1.0,1262.83112824,2_ND,test,02,2,56.0,01000,ignore,1.0,3200.0,4.21002433021
266,2_27_1,27,1.0,1270.25334949,2_ND,test,02,2,57.0,10111,ignore,0.0,3100.0,5.39575340594
267,2_27_1,27,1.0,1275.70673497,2_ND,test,02,2,58.0,00100,ignore,1.0,3200.0,3.43743966357
268,2_27_1,27,1.0,1281.78521226,2_ND,test,02,2,59.0,11101,ignore,1.0,3300.0,4.12896680944
269,2_27_1,27,1.0,1285.4728984,2_ND,test,02,2,60.0,00101,ignore,1.0,3400.0,1.71192302338
270,2_27_1,27,1.0,1291.42629767,2_ND,test,02,2,61.0,00111,kill,1.0,3500.0,3.96928799647
271,2_27_1,27,1.0,1295.18097368,2_ND,test,02,2,62.0,11000,ignore,1.0,3600.0,1.80774705303
272,2_27_1,27,1.0,1300.18121102,2_ND,test,02,2,63.0,01101,ignore,1.0,3700.0,3.03796648679
273,2_27_1,27,1.0,1309.43164673,2_ND,test,02,2,64.0,01111,ignore,1.0,3800.0,7.26509509182
274,2_27_1,27,1.0,1314.24435347,2_ND,test,02,2,65.0,10011,kill,1.0,3900.0,2.83194159978
275,2_27_1,27,1.0,1323.47917403,2_ND,test,02,2,66.0,00011,kill,1.0,4000.0,7.24358020407
276,2_27_1,27,1.0,1328.55751693,2_ND,test,02,2,67.0,10100,ignore,1.0,4100.0,3.09937413684
277,2_27_1,27,1.0,1332.99523883,2_ND,test,02,3,0.0,01011,kill,0.0,4000.0,2.43503743185
278,2_27_1,27,1.0,1344.51139248,2_ND,test,02,3,1.0,01010,kill,1.0,4100.0,9.53459213697
279,2_27_1,27,1.0,1350.73043592,2_ND,test,02,3,2.0,11111,ignore,1.0,4200.0,4.25784958887
280,2_27_1,27,1.0,1354.38684141,2_ND,test,02,3,3.0,10001,ignore,1.0,4300.0,1.65068760276
281,2_27_1,27,1.0,1358.40269871,2_ND,test,02,3,4.0,10010,kill,1.0,4400.0,2.04639771079
282,2_27_1,27,1.0,1364.88735874,2_ND,test,02,3,5.0,00110,ignore,1.0,4500.0,4.49748294865
283,2_27_1,27,1.0,1369.71569122,2_ND,test,02,3,6.0,10000,ignore,0.0,4400.0,2.83379025983
284,2_27_1,27,1.0,1373.62212767,2_ND,test,02,3,7.0,01110,ignore,1.0,4500.0,1.93349506435
285,2_27_1,27,1.0,1378.6554879,2_ND,test,02,3,8.0,11011,kill,0.0,4400.0,3.061657495
286,2_27_1,27,1.0,1389.90602976,2_ND,test,02,3,9.0,01100,ignore,0.0,4300.0,9.29662815185
287,2_27_1,27,1.0,1395.92193934,2_ND,test,02,3,10.0,11110,ignore,1.0,4400.0,4.06196891917
288,2_27_1,27,1.0,1401.23467751,2_ND,test,02,3,11.0,10100,kill,1.0,4500.0,3.31911676128
289,2_27_1,27,1.0,1404.85984886,2_ND,test,02,3,12.0,01000,ignore,0.0,4400.0,1.67192955335
290,2_27_1,27,1.0,1417.39170585,2_ND,test,02,3,13.0,00011,kill,0.0,4300.0,10.5470378783
291,2_27_1,27,1.0,1429.68916276,2_ND,test,02,3,14.0,10000,ignore,0.0,4200.0,10.331851476
292,2_27_1,27,1.0,1433.14240199,2_ND,test,02,3,15.0,11001,ignore,1.0,4300.0,1.49445851003
293,2_27_1,27,1.0,1445.4086472,2_ND,test,02,3,16.0,01100,ignore,0.0,4200.0,10.2808988259
294,2_27_1,27,1.0,1453.75276096,2_ND,test,02,3,17.0,11101,ignore,1.0,4300.0,6.39808732321
295,2_27_1,27,1.0,1460.39367896,2_ND,test,02,3,18.0,10011,ignore,1.0,4400.0,4.67309955887
296,2_27_1,27,1.0,1464.53454178,2_ND,test,02,3,19.0,01010,kill,1.0,4500.0,2.17745596924
297,2_27_1,27,1.0,1470.36289415,2_ND,test,02,3,20.0,00100,ignore,0.0,4400.0,3.85691005646
298,2_27_1,27,1.0,1478.70703389,2_ND,test,02,3,21.0,01111,ignore,1.0,4500.0,6.35485420795
299,2_27_1,27,1.0,1489.87945351,2_ND,test,02,3,22.0,11000,kill,1.0,4600.0,9.23199849644
300,2_27_1,27,1.0,1497.95803343,2_ND,test,02,3,23.0,00111,kill,0.0,4500.0,6.05305885243
301,2_27_1,27,1.0,1505.86461323,2_ND,test,02,3,24.0,11110,ignore,1.0,4600.0,5.94176175633
302,2_27_1,27,1.0,1511.56803127,2_ND,test,02,3,25.0,01001,ignore,1.0,4700.0,3.73904482904
303,2_27_1,27,1.0,1518.88085829,2_ND,test,02,3,26.0,00000,kill,1.0,4800.0,5.33778425072
304,2_27_1,27,1.0,1528.88134739,2_ND,test,02,3,27.0,00101,ignore,1.0,4900.0,8.04036679416
305,2_27_1,27,1.0,1532.97524322,2_ND,test,02,3,28.0,01101,ignore,1.0,5000.0,2.11083557253
306,2_27_1,27,1.0,1540.24122865,2_ND,test,02,3,29.0,00010,kill,1.0,5100.0,5.2719515551
307,2_27_1,27,1.0,1545.10082895,2_ND,test,02,3,30.0,11011,ignore,1.0,5200.0,2.92934808755
308,2_27_1,27,1.0,1548.52285327,2_ND,test,02,3,31.0,01011,ignore,1.0,5300.0,1.45791989182
309,2_27_1,27,1.0,1554.69503171,2_ND,test,02,3,32.0,11010,kill,1.0,5400.0,4.23995216063
310,2_27_1,27,1.0,1560.74218569,2_ND,test,02,3,33.0,10110,ignore,1.0,5500.0,4.06651167087
311,2_27_1,27,1.0,1569.02383181,2_ND,test,02,4,0.0,10101,ignore,0.0,5400.0,6.31558525613
312,2_27_1,27,1.0,1575.16475365,2_ND,test,02,4,1.0,11111,kill,1.0,5500.0,4.20357903664
313,2_27_1,27,1.0,1580.97750337,2_ND,test,02,4,2.0,00001,ignore,1.0,5600.0,3.88034288089
314,2_27_1,27,1.0,1588.04037289,2_ND,test,02,4,3.0,10001,ignore,0.0,5500.0,5.07351438484
315,2_27_1,27,1.0,1596.96576098,2_ND,test,02,4,4.0,10010,ignore,0.0,5400.0,6.97032169379
316,2_27_1,27,1.0,1609.48196626,2_ND,test,02,4,5.0,00110,ignore,1.0,5500.0,10.5254848242
317,2_27_1,27,1.0,1614.34158709,2_ND,test,02,4,6.0,10111,ignore,0.0,5400.0,2.92842760624
318,2_27_1,27,1.0,1622.42011024,2_ND,test,02,4,7.0,01110,ignore,1.0,5500.0,6.09637311117
319,2_27_1,27,1.0,1627.38904287,2_ND,test,02,4,8.0,11100,ignore,1.0,5600.0,3.00762748667
320,2_27_1,27,1.0,1632.0299041,2_ND,test,02,4,9.0,10010,kill,1.0,5700.0,2.68569379595
321,2_27_1,27,1.0,1637.1707727,2_ND,test,02,4,10.0,11001,kill,1.0,5800.0,3.16776589883
322,2_27_1,27,1.0,1644.49927869,2_ND,test,02,4,11.0,11101,ignore,0.0,5700.0,5.41539397564
323,2_27_1,27,1.0,1655.656028,2_ND,test,02,4,12.0,01000,kill,0.0,5600.0,9.1858737228
324,2_27_1,27,1.0,1664.8332771,2_ND,test,02,4,13.0,10001,kill,1.0,5700.0,7.1782189745
325,2_27_1,27,1.0,1669.64601015,2_ND,test,02,4,14.0,01001,kill,0.0,5600.0,2.87845701672
326,2_27_1,27,1.0,1679.66211376,2_ND,test,02,4,15.0,01010,kill,0.0,5500.0,8.05719588677
327,2_27_1,27,1.0,1687.22496435,2_ND,test,02,4,16.0,00101,ignore,1.0,5600.0,5.6254369079
328,2_27_1,27,1.0,1691.27198748,2_ND,test,02,4,17.0,01101,ignore,1.0,5700.0,2.08419325104
329,2_27_1,27,1.0,1695.22530977,2_ND,test,02,4,18.0,10100,ignore,0.0,5600.0,1.99061718433
330,2_27_1,27,1.0,1705.85081756,2_ND,test,02,4,19.0,01110,ignore,1.0,5700.0,8.71126265021
331,2_27_1,27,1.0,1709.74161512,2_ND,test,02,4,20.0,00001,ignore,1.0,5800.0,1.93264674621
332,2_27_1,27,1.0,1715.22627644,2_ND,test,02,4,21.0,10110,ignore,0.0,5700.0,3.5252972
333,2_27_1,27,1.0,1719.21080979,2_ND,test,02,4,22.0,01011,ignore,1.0,5800.0,2.02141193495
334,2_27_1,27,1.0,1722.61723212,2_ND,test,02,4,23.0,11011,ignore,0.0,5700.0,1.44281950804
335,2_27_1,27,1.0,1728.00809061,2_ND,test,02,4,24.0,11000,ignore,1.0,5800.0,3.47398405483
336,2_27_1,27,1.0,1731.58639952,2_ND,test,02,4,25.0,11111,kill,1.0,5900.0,1.61132916861
337,2_27_1,27,1.0,1738.28981851,2_ND,test,02,4,26.0,11010,kill,0.0,5800.0,4.75447139035
338,2_27_1,27,1.0,1744.32703033,2_ND,test,02,4,27.0,00110,ignore,1.0,5900.0,4.11359477142
339,2_27_1,27,1.0,1749.40536811,2_ND,test,02,4,28.0,10111,kill,1.0,6000.0,3.09800496098
340,2_27_1,27,1.0,1752.78049311,2_ND,test,02,4,29.0,00000,ignore,1.0,6100.0,1.43641943671
341,2_27_1,27,1.0,1757.90575041,2_ND,test,02,4,30.0,10101,ignore,0.0,6000.0,3.14422915944
342,2_27_1,27,1.0,1765.43736109,2_ND,test,02,4,31.0,10000,ignore,0.0,5900.0,5.56004328508
343,2_27_1,27,1.0,1769.08012421,2_ND,test,02,4,32.0,00011,ignore,1.0,6000.0,1.69363398969
344,2_27_1,27,1.0,1776.89297464,2_ND,test,02,4,33.0,11100,ignore,1.0,6100.0,5.85652518623
345,2_27_1,27,1.0,1782.56512838,2_ND,test,02,4,34.0,00010,kill,0.0,6000.0,3.74694685648
346,2_27_1,27,1.0,1788.78415932,2_ND,test,02,4,35.0,00111,ignore,1.0,6100.0,4.27491441448
347,2_27_1,27,1.0,1794.73757815,2_ND,test,02,4,36.0,10011,kill,1.0,6200.0,3.98814631741
348,2_27_1,27,1.0,1800.31596403,2_ND,test,02,4,37.0,11110,ignore,1.0,6300.0,3.65929073546
349,2_27_1,27,1.0,1807.89441791,2_ND,test,02,4,38.0,01100,kill,0.0,6200.0,5.61392511836
350,2_27_1,27,1.0,1815.6135829,2_ND,test,02,4,39.0,01111,ignore,1.0,6300.0,5.78631876108
351,2_27_1,27,1.0,1820.80130336,2_ND,test,02,4,40.0,00100,ignore,1.0,6400.0,3.22191425477
352,2_27_1,27,1.0,1828.02039171,2_ND,test,02,4,41.0,10011,kill,1.0,6500.0,5.25821297051
353,2_27_1,27,1.0,1832.11433661,2_ND,test,02,4,42.0,00101,ignore,1.0,6600.0,2.14929982481
354,2_27_1,27,1.0,1838.64590334,2_ND,test,02,4,43.0,00001,ignore,1.0,6700.0,4.58969561255
355,2_27_1,27,1.0,1842.05226217,2_ND,test,02,4,44.0,10000,kill,1.0,6800.0,1.43414132565
356,2_27_1,27,1.0,1848.4588625,2_ND,test,02,4,45.0,01011,ignore,1.0,6900.0,4.46393348929
357,2_27_1,27,1.0,1858.88116811,2_ND,test,02,4,46.0,11010,kill,0.0,6800.0,8.48298584895
358,2_27_1,27,1.0,1863.9127002,2_ND,test,02,4,47.0,00100,ignore,1.0,6900.0,3.09827084217
359,2_27_1,27,1.0,1869.88172264,2_ND,test,02,4,48.0,11110,ignore,1.0,7000.0,4.01139761136
360,2_27_1,27,1.0,1875.17885754,2_ND,test,02,4,49.0,11101,kill,1.0,7100.0,3.3362973687
361,2_27_1,27,1.0,1880.11660638,2_ND,test,02,4,50.0,10001,kill,1.0,7200.0,3.00924554528
362,2_27_1,27,1.0,1885.52307971,2_ND,test,02,4,51.0,10111,ignore,0.0,7100.0,3.43847464379
363,2_27_1,27,1.0,1889.41388657,2_ND,test,02,4,52.0,11001,kill,1.0,7200.0,1.99593705319
364,2_27_1,27,1.0,1900.82066234,2_ND,test,02,4,53.0,00010,ignore,1.0,7300.0,9.4180130176
365,2_27_1,27,1.0,1905.22712925,2_ND,test,02,4,54.0,01001,ignore,1.0,7400.0,2.45005154054
366,2_27_1,27,1.0,1910.60237837,2_ND,test,02,4,55.0,00111,ignore,1.0,7500.0,3.44711049048
367,2_27_1,27,1.0,1914.05563973,2_ND,test,02,4,56.0,00000,ignore,1.0,7600.0,1.49061622215
368,2_27_1,27,1.0,1917.25895962,2_ND,test,02,4,57.0,00011,ignore,1.0,7700.0,1.28764303542
369,2_27_1,27,1.0,1921.05599862,2_ND,test,02,4,58.0,01101,ignore,1.0,7800.0,1.87626133203
370,2_27_1,27,1.0,1924.36867009,2_ND,test,02,4,59.0,10100,kill,1.0,7900.0,1.33585380577
371,2_27_1,27,1.0,1927.93135198,2_ND,test,02,4,60.0,10110,kill,1.0,8000.0,1.6511135258
372,2_27_1,27,1.0,1930.83771177,2_ND,test,02,4,61.0,11100,kill,0.0,7900.0,0.985493920016
373,2_27_1,27,1.0,1934.79100776,2_ND,test,02,4,62.0,11111,kill,1.0,8000.0,2.00960379533
374,2_27_1,27,1.0,1938.77555105,2_ND,test,02,4,63.0,11011,kill,1.0,8100.0,2.05700601745
375,2_27_1,27,1.0,1942.69762958,2_ND,test,02,4,64.0,10101,kill,1.0,8200.0,1.94914196388
376,2_27_1,27,1.0,1946.5571744,2_ND,test,02,4,65.0,01110,ignore,1.0,8300.0,1.95978779538
377,2_27_1,27,1.0,1949.71358855,2_ND,test,02,4,66.0,01111,ignore,1.0,8400.0,1.19117531032
378,2_27_1,27,1.0,1953.71691094,2_ND,test,02,4,67.0,10010,kill,1.0,8500.0,2.06339678774
379,2_27_1,27,1.0,1956.74827755,2_ND,test,02,4,68.0,01000,ignore,1.0,8600.0,1.10929833665
380,2_27_1,27,1.0,1959.56095318,2_ND,test,02,4,69.0,00110,ignore,1.0,8700.0,0.815049003606
381,2_27_1,27,1.0,1962.68605942,2_ND,test,02,4,70.0,01100,ignore,1.0,8800.0,1.21583619154
382,2_27_1,27,1.0,1965.5768294,2_ND,test,02,4,71.0,01010,ignore,1.0,8900.0,0.917417430901
383,2_27_1,27,1.0,1970.3895307,2_ND,test,02,5,0.0,11000,kill,0.0,8800.0,2.84816003162
384,2_27_1,27,1.0,1975.12414567,2_ND,test,02,5,1.0,10000,ignore,1.0,8900.0,2.804912163
385,2_27_1,27,1.0,1978.71807357,2_ND,test,02,5,2.0,10111,kill,1.0,9000.0,1.61829499919
386,2_27_1,27,1.0,1982.01510455,2_ND,test,02,5,3.0,01010,ignore,1.0,9100.0,1.41072870689
387,2_27_1,27,1.0,1985.00306036,2_ND,test,02,5,4.0,00111,ignore,0.0,9000.0,1.06652385843
388,2_27_1,27,1.0,1991.51895871,2_ND,test,02,5,5.0,01110,ignore,1.0,9100.0,4.5682265885
389,2_27_1,27,1.0,1998.12864993,2_ND,test,02,5,6.0,11101,kill,0.0,9000.0,4.68737824469
390,2_27_1,27,1.0,2002.64448863,2_ND,test,02,5,7.0,11010,kill,1.0,9100.0,2.57642560746
391,2_27_1,27,1.0,2006.81656154,2_ND,test,02,5,8.0,00101,ignore,1.0,9200.0,2.27418957553
392,2_27_1,27,1.0,2009.78546852,2_ND,test,02,5,9.0,00100,ignore,1.0,9300.0,1.02194562169
393,2_27_1,27,1.0,2015.8013194,2_ND,test,02,5,10.0,11001,kill,0.0,9200.0,4.0688985078
394,2_27_1,27,1.0,2019.91088169,2_ND,test,02,5,11.0,10100,ignore,1.0,9300.0,2.20910481107
395,2_27_1,27,1.0,2023.7235862,2_ND,test,02,5,12.0,00001,ignore,1.0,9400.0,1.90530909249
396,2_27_1,27,1.0,2026.5518696,2_ND,test,02,5,13.0,01000,ignore,1.0,9500.0,0.867916383097
397,2_27_1,27,1.0,2031.27084088,2_ND,test,02,5,14.0,11000,kill,0.0,9400.0,2.81038950793
398,2_27_1,27,1.0,2035.88039708,2_ND,test,02,5,15.0,00011,ignore,0.0,9300.0,2.64843450824
399,2_27_1,27,1.0,2039.91187402,2_ND,test,02,5,16.0,00000,ignore,1.0,9400.0,2.11805253093
400,2_27_1,27,1.0,2043.8651543,2_ND,test,02,5,17.0,01100,ignore,1.0,9500.0,1.97453441926
401,2_27_1,27,1.0,2049.24041368,2_ND,test,02,5,18.0,11111,kill,1.0,9600.0,3.43056748476
402,2_27_1,27,1.0,2054.24063851,2_ND,test,02,5,19.0,10001,ignore,1.0,9700.0,3.0761270123
403,2_27_1,27,1.0,2057.55329908,2_ND,test,02,5,20.0,10010,kill,1.0,9800.0,1.36735671763
404,2_27_1,27,1.0,2060.8503198,2_ND,test,02,5,21.0,10110,kill,1.0,9900.0,1.385850374
405,2_27_1,27,1.0,2064.95993052,2_ND,test,02,5,22.0,10011,kill,1.0,10000.0,2.14463327319
406,2_27_1,27,1.0,2068.44444109,2_ND,test,02,5,23.0,10101,ignore,1.0,10100.0,1.52120923663
407,2_27_1,27,1.0,2072.49151521,2_ND,test,02,5,24.0,01111,ignore,1.0,10200.0,2.13377159362
408,2_27_1,27,1.0,2075.67914587,2_ND,test,02,5,25.0,01101,ignore,1.0,10300.0,1.22228822034
409,2_27_1,27,1.0,2078.58558295,2_ND,test,02,6,0.0,01001,ignore,1.0,10400.0,1.01503142786
410,2_27_1,27,1.0,2084.21077675,2_ND,test,02,6,1.0,11011,kill,0.0,10300.0,3.71108593061
411,2_27_1,27,1.0,2088.0859845,2_ND,test,02,6,2.0,00010,ignore,0.0,10200.0,1.92042968197
412,2_27_1,27,1.0,2095.82069184,2_ND,test,02,6,3.0,11110,ignore,1.0,10300.0,5.85324929905
413,2_27_1,27,1.0,2100.8990697,2_ND,test,02,6,4.0,11100,ignore,0.0,10200.0,3.16862191437
414,2_27_1,27,1.0,2104.60236105,2_ND,test,02,6,5.0,00110,kill,0.0,10100.0,1.74322516128
415,2_27_1,27,1.0,2110.43077211,2_ND,test,02,6,6.0,01011,ignore,1.0,10200.0,3.90544155201
416,2_27_1,27,1.0,2116.80609147,2_ND,test,02,6,7.0,11111,kill,0.0,10100.0,4.44334517665
417,2_27_1,27,1.0,2120.00936678,2_ND,test,02,6,8.0,10110,ignore,1.0,10200.0,1.3134947693
418,2_27_1,27,1.0,2125.58771546,2_ND,test,02,6,9.0,01010,ignore,0.0,10100.0,3.60329724748
419,2_27_1,27,1.0,2132.41618841,2_ND,test,02,6,10.0,11011,ignore,1.0,10200.0,4.88884466444
420,2_27_1,27,1.0,2138.05709967,2_ND,test,02,6,11.0,10010,ignore,0.0,10100.0,3.74759311775
421,2_27_1,27,1.0,2143.88547224,2_ND,test,02,6,12.0,01101,ignore,1.0,10200.0,3.87571353339
422,2_27_1,27,1.0,2147.65130307,2_ND,test,02,6,13.0,00100,ignore,0.0,10100.0,1.84753012733
423,2_27_1,27,1.0,2151.93269357,2_ND,test,02,6,14.0,11101,ignore,1.0,10200.0,2.2990268556
424,2_27_1,27,1.0,2155.41725867,2_ND,test,02,6,15.0,00000,kill,1.0,10300.0,1.54166188251
425,2_27_1,27,1.0,2158.33930032,2_ND,test,02,6,16.0,01110,kill,0.0,10200.0,1.0175228212
426,2_27_1,27,1.0,2164.57393903,2_ND,test,02,6,17.0,11100,ignore,0.0,10100.0,4.29599953046
427,2_27_1,27,1.0,2169.96481741,2_ND,test,02,6,18.0,10101,ignore,1.0,10200.0,3.48369080294
428,2_27_1,27,1.0,2173.27751068,2_ND,test,02,6,19.0,00101,ignore,1.0,10300.0,1.29971769768
429,2_27_1,27,1.0,2177.15268476,2_ND,test,02,6,20.0,01000,kill,1.0,10400.0,1.93506437275
430,2_27_1,27,1.0,2181.37161338,2_ND,test,02,6,21.0,10111,ignore,1.0,10500.0,2.29798963031
431,2_27_1,27,1.0,2184.91864773,2_ND,test,02,6,22.0,00001,ignore,1.0,10600.0,1.58053570088
432,2_27_1,27,1.0,2188.70009051,2_ND,test,02,6,23.0,01111,ignore,1.0,10700.0,1.90288280637
