,unique_id,pair_id,sbj_id,wall_time,condition,block,rule_id,rule_num,trial,stimulus,choice,correct,points,reaction_time
0,2_7_12,7,12.0,70.1939771989,2_ND,training,02,1_A,1.0,01111,kill,0.0,0.0,2.09247068075
1,2_7_12,7,12.0,74.8660792234,2_ND,training,02,1_A,2.0,10110,kill,0.0,0.0,2.85258047197
2,2_7_12,7,12.0,78.7881685792,2_ND,training,02,1_A,3.0,00001,ignore,1.0,100.0,2.10206490357
3,2_7_12,7,12.0,82.4758579283,2_ND,training,02,1_A,4.0,10101,ignore,0.0,0.0,1.87006233006
4,2_7_12,7,12.0,90.2452646285,2_ND,training,02,1_A,5.0,00101,ignore,1.0,100.0,5.97564881437
5,2_7_12,7,12.0,94.2142545121,2_ND,training,02,1_A,6.0,01011,ignore,1.0,200.0,2.17927187309
6,2_7_12,7,12.0,97.4800472623,2_ND,training,02,1_A,7.0,10010,ignore,1.0,300.0,1.46529671402
7,2_7_12,7,12.0,102.124018977,2_ND,training,02,1_A,8.0,10111,kill,1.0,400.0,2.85997226354
8,2_7_12,7,12.0,107.983725678,2_ND,training,02,1_A,9.0,00000,ignore,0.0,300.0,4.0461208409
9,2_7_12,7,12.0,113.077744508,2_ND,training,02,1_A,10.0,00011,ignore,1.0,400.0,3.28712942418
10,2_7_12,7,12.0,117.015414132,2_ND,training,02,1_A,11.0,11100,kill,0.0,300.0,2.13555552134
11,2_7_12,7,12.0,122.45321782,2_ND,training,02,1_A,12.0,10000,kill,0.0,200.0,3.63896901715
12,2_7_12,7,12.0,128.156642028,2_ND,training,02,1_A,13.0,01101,kill,0.0,100.0,3.91318116769
13,2_7_12,7,12.0,131.469326005,2_ND,training,02,1_A,14.0,11001,ignore,0.0,0.0,1.50433045385
14,2_7_12,7,12.0,135.172630582,2_ND,training,02,1_A,15.0,00010,ignore,0.0,0.0,1.90561522144
15,2_7_12,7,12.0,139.016594086,2_ND,training,02,1_A,16.0,01000,ignore,0.0,0.0,2.05873887639
16,2_7_12,7,12.0,141.844847106,2_ND,training,02,1_A,17.0,10001,kill,1.0,100.0,1.0461699121
17,2_7_12,7,12.0,145.470025831,2_ND,training,02,1_A,18.0,11101,kill,1.0,200.0,1.85920572638
18,2_7_12,7,12.0,149.704631745,2_ND,training,02,1_A,19.0,00111,kill,0.0,100.0,2.44598735438
19,2_7_12,7,12.0,152.845421207,2_ND,training,02,1_A,20.0,11011,ignore,0.0,0.0,1.37065182599
20,2_7_12,7,12.0,156.376841854,2_ND,training,02,1_A,21.0,11110,ignore,1.0,100.0,1.77073643374
21,2_7_12,7,12.0,160.783310209,2_ND,training,02,1_A,22.0,00100,kill,1.0,200.0,2.60106968817
22,2_7_12,7,12.0,165.049171595,2_ND,training,02,1_A,23.0,01010,ignore,0.0,100.0,2.5105798164
23,2_7_12,7,12.0,172.268297306,2_ND,training,02,1_A,24.0,10011,ignore,0.0,0.0,5.43194272588
24,2_7_12,7,12.0,177.502970572,2_ND,training,02,1_A,25.0,01110,kill,1.0,100.0,3.44975621553
25,2_7_12,7,12.0,185.597162594,2_ND,training,02,1_A,26.0,01100,kill,1.0,200.0,6.30821913854
26,2_7_12,7,12.0,192.06627275,2_ND,training,02,1_A,27.0,01001,kill,0.0,100.0,4.68137263392
27,2_7_12,7,12.0,195.332067745,2_ND,training,02,1_A,28.0,11000,ignore,1.0,200.0,1.49012321684
28,2_7_12,7,12.0,199.582283434,2_ND,training,02,1_A,29.0,10100,kill,0.0,100.0,2.4524262665
29,2_7_12,7,12.0,205.676319903,2_ND,training,02,1_A,30.0,11111,ignore,0.0,0.0,4.31142993498
30,2_7_12,7,12.0,210.223446864,2_ND,training,02,1_A,31.0,11010,ignore,1.0,100.0,2.79153204157
31,2_7_12,7,12.0,214.45802744,2_ND,training,02,1_A,32.0,00110,kill,1.0,200.0,2.46086907995
32,2_7_12,7,12.0,218.911394719,2_ND,training,02,1_A,33.0,00001,kill,0.0,100.0,2.67231402493
33,2_7_12,7,12.0,224.021051869,2_ND,training,02,1_A,34.0,10010,ignore,1.0,200.0,3.33899608649
34,2_7_12,7,12.0,227.22432758,2_ND,training,02,1_A,35.0,11100,kill,0.0,100.0,1.4261459089
35,2_7_12,7,12.0,236.72480867,2_ND,training,02,1_A,36.0,01010,kill,1.0,200.0,7.74416902561
36,2_7_12,7,12.0,241.600100452,2_ND,training,02,1_A,37.0,11111,kill,1.0,300.0,3.09158611612
37,2_7_12,7,12.0,246.225285591,2_ND,training,02,1_A,38.0,00010,ignore,0.0,200.0,2.83682252067
38,2_7_12,7,12.0,249.475473056,2_ND,training,02,1_A,39.0,11101,kill,1.0,300.0,1.48045330249
39,2_7_12,7,12.0,256.56959548,2_ND,training,02,1_A,40.0,10001,kill,1.0,400.0,5.29911049617
40,2_7_12,7,12.0,260.116658616,2_ND,training,02,1_A,41.0,10110,kill,0.0,300.0,1.77062514152
41,2_7_12,7,12.0,267.304503518,2_ND,training,02,1_A,42.0,01110,kill,1.0,400.0,5.40942577707
42,2_7_12,7,12.0,273.882991471,2_ND,training,02,1_A,43.0,00011,ignore,1.0,500.0,4.79636026348
43,2_7_12,7,12.0,280.180223149,2_ND,training,02,1_A,44.0,00100,kill,1.0,600.0,4.50345583174
44,2_7_12,7,12.0,283.227238176,2_ND,training,02,1_A,45.0,00101,kill,0.0,500.0,1.23816694345
45,2_7_12,7,12.0,290.227627218,2_ND,training,02,1_A,46.0,10111,ignore,0.0,400.0,5.22692129812
46,2_7_12,7,12.0,292.837118231,2_ND,training,02,1_A,47.0,10011,ignore,0.0,300.0,0.837369359939
47,2_7_12,7,12.0,296.477941691,2_ND,training,02,1_A,48.0,10000,ignore,1.0,400.0,1.85851552222
48,2_7_12,7,12.0,299.981236838,2_ND,training,02,1_A,49.0,01111,kill,0.0,300.0,1.75861552485
49,2_7_12,7,12.0,303.543937333,2_ND,training,02,1_A,50.0,01011,kill,0.0,200.0,1.79192910141
50,2_7_12,7,12.0,307.391001303,2_ND,training,02,1_A,51.0,11000,kill,0.0,100.0,2.08612477942
51,2_7_12,7,12.0,310.844307644,2_ND,training,02,1_A,52.0,01001,ignore,1.0,200.0,1.68087518658
52,2_7_12,7,12.0,313.59511796,2_ND,training,02,1_A,53.0,10101,ignore,0.0,100.0,0.964188602778
53,2_7_12,7,12.0,316.8921649,2_ND,training,02,1_A,54.0,11010,ignore,1.0,200.0,1.53271125154
54,2_7_12,7,12.0,320.407982827,2_ND,training,02,1_A,55.0,01100,kill,1.0,300.0,1.71714265738
55,2_7_12,7,12.0,324.970721809,2_ND,training,02,1_A,56.0,11110,kill,0.0,200.0,2.79000794761
56,2_7_12,7,12.0,328.924004095,2_ND,training,02,1_A,57.0,00110,ignore,0.0,100.0,2.17973853065
57,2_7_12,7,12.0,333.500888734,2_ND,training,02,1_A,58.0,11011,ignore,0.0,0.0,2.78673428871
58,2_7_12,7,12.0,339.704323205,2_ND,training,02,1_A,59.0,01101,ignore,1.0,100.0,4.42380684803
59,2_7_12,7,12.0,346.407842349,2_ND,training,02,1_A,60.0,00000,kill,1.0,200.0,4.90596673806
60,2_7_12,7,12.0,350.720565134,2_ND,training,02,1_A,61.0,00111,kill,0.0,100.0,2.52840870093
61,2_7_12,7,12.0,353.564462888,2_ND,training,02,1_A,62.0,11001,ignore,0.0,0.0,1.07352117663
62,2_7_12,7,12.0,357.267783502,2_ND,training,02,1_A,63.0,10100,kill,0.0,0.0,1.92531683001
63,2_7_12,7,12.0,363.53377382,2_ND,training,02,1_A,64.0,01000,kill,1.0,100.0,4.51089188362
64,2_7_12,7,12.0,370.456018728,2_ND,training,02,1_A,65.0,10010,ignore,1.0,200.0,5.15888455052
65,2_7_12,7,12.0,376.237571354,2_ND,training,02,1_A,66.0,10000,kill,0.0,100.0,3.98789031655
66,2_7_12,7,12.0,384.331760489,2_ND,training,02,1_A,67.0,01111,ignore,1.0,200.0,6.32826552847
67,2_7_12,7,12.0,393.910352998,2_ND,training,02,1_A,68.0,00011,ignore,1.0,300.0,7.81438447066
68,2_7_12,7,12.0,396.676157295,2_ND,training,02,1_A,69.0,01011,ignore,1.0,400.0,0.983178518487
69,2_7_12,7,12.0,400.426728349,2_ND,training,02,1_A,70.0,00000,kill,1.0,500.0,1.96597537203
70,2_7_12,7,12.0,409.364700739,2_ND,training,02,1_A,71.0,10011,ignore,0.0,400.0,7.14092801671
71,2_7_12,7,12.0,412.255459252,2_ND,training,02,1_A,72.0,00101,ignore,1.0,500.0,1.10471603166
72,2_7_12,7,12.0,416.505692901,2_ND,training,02,1_A,73.0,11101,ignore,0.0,400.0,2.48318268793
73,2_7_12,7,12.0,419.89648926,2_ND,training,02,1_A,74.0,00100,kill,1.0,500.0,1.59632261015
74,2_7_12,7,12.0,424.8811335,2_ND,training,02,1_A,75.0,10110,ignore,1.0,600.0,3.22732509322
75,2_7_12,7,12.0,428.646949022,2_ND,training,02,1_A,76.0,11100,kill,0.0,500.0,1.99211525127
76,2_7_12,7,12.0,435.194160655,2_ND,training,02,1_A,77.0,11000,ignore,1.0,600.0,4.79080816108
77,2_7_12,7,12.0,439.272494338,2_ND,training,02,1_A,78.0,00010,ignore,0.0,500.0,2.29085434575
78,2_7_12,7,12.0,445.069667323,2_ND,training,02,1_A,79.0,11110,kill,0.0,400.0,4.02077411914
79,2_7_12,7,12.0,449.304264577,2_ND,training,02,1_A,80.0,11010,ignore,1.0,500.0,2.46457219208
80,2_7_12,7,12.0,452.070060213,2_ND,training,02,1_A,81.0,01110,ignore,0.0,400.0,0.986983301038
81,2_7_12,7,12.0,457.382817316,2_ND,training,02,1_A,82.0,01100,kill,1.0,500.0,3.53880442013
82,2_7_12,7,12.0,464.305035925,2_ND,training,02,1_A,83.0,11011,ignore,0.0,400.0,5.14562089189
83,2_7_12,7,12.0,468.070858502,2_ND,training,02,1_A,84.0,00110,kill,1.0,500.0,1.98328275471
84,2_7_12,7,12.0,473.868046562,2_ND,training,02,1_A,85.0,00111,ignore,1.0,600.0,4.00547576941
85,2_7_12,7,12.0,478.727644537,2_ND,training,02,1_A,86.0,01000,kill,1.0,700.0,3.08117371913
86,2_7_12,7,12.0,488.009428728,2_ND,training,02,1_A,87.0,01101,kill,0.0,600.0,7.51534613803
87,2_7_12,7,12.0,492.27526221,2_ND,training,02,1_A,88.0,00001,kill,0.0,500.0,2.48813374823
88,2_7_12,7,12.0,495.837968157,2_ND,training,02,1_A,89.0,01010,ignore,0.0,400.0,1.81061208152
89,2_7_12,7,12.0,499.009988717,2_ND,training,02,1_A,90.0,10111,ignore,0.0,300.0,1.40920800355
90,2_7_12,7,12.0,503.291451539,2_ND,training,02,1_A,91.0,01001,ignore,1.0,400.0,2.51190634263
91,2_7_12,7,12.0,508.119838302,2_ND,training,02,1_A,92.0,10001,ignore,0.0,300.0,3.04015339724
92,2_7_12,7,12.0,510.869980224,2_ND,training,02,1_A,93.0,10101,ignore,0.0,200.0,0.96352918839
93,2_7_12,7,12.0,513.979484387,2_ND,training,02,1_A,94.0,11111,ignore,0.0,100.0,1.33987840604
94,2_7_12,7,12.0,518.182860165,2_ND,training,02,1_A,95.0,10100,kill,0.0,0.0,2.42063742536
95,2_7_12,7,12.0,521.745535643,2_ND,training,02,1_A,96.0,11001,ignore,0.0,0.0,1.79316069249
96,2_7_12,7,12.0,526.433256744,2_ND,training,02,1_A,97.0,01110,ignore,0.0,0.0,2.92009251045
97,2_7_12,7,12.0,529.417804766,2_ND,training,02,1_A,98.0,10101,ignore,0.0,0.0,1.2084115105
98,2_7_12,7,12.0,536.340051278,2_ND,training,02,1_A,99.0,00101,kill,0.0,0.0,5.14259868284
99,2_7_12,7,12.0,539.63753601,2_ND,training,02,1_A,100.0,11101,ignore,0.0,0.0,1.51679454046
100,2_7_12,7,12.0,543.325234018,2_ND,training,02,1_A,101.0,00111,ignore,1.0,100.0,1.88528498825
101,2_7_12,7,12.0,550.653730791,2_ND,training,02,1_A,102.0,10011,ignore,0.0,0.0,5.55097696604
102,2_7_12,7,12.0,554.138305433,2_ND,training,02,1_A,103.0,11011,kill,1.0,100.0,1.72469288801
103,2_7_12,7,12.0,557.60723919,2_ND,training,02,1_A,104.0,01101,ignore,1.0,200.0,1.68589135442
104,2_7_12,7,12.0,562.919990519,2_ND,training,02,1_A,105.0,01010,ignore,0.0,100.0,3.54499701403
105,2_7_12,7,12.0,567.467107538,2_ND,training,02,1_A,106.0,00010,kill,1.0,200.0,2.76780146239
106,2_7_12,7,12.0,570.717238555,2_ND,training,02,1_A,107.0,11010,kill,0.0,100.0,1.48680786345
107,2_7_12,7,12.0,574.561223227,2_ND,training,02,1_A,108.0,10010,kill,0.0,0.0,2.07422966223
108,2_7_12,7,12.0,577.358241621,2_ND,training,02,1_A,109.0,01011,ignore,1.0,100.0,1.04548548102
109,2_7_12,7,12.0,582.233492991,2_ND,training,02,1_A,110.0,11000,kill,0.0,0.0,3.10718210036
110,2_7_12,7,12.0,585.139898163,2_ND,training,02,1_A,111.0,00000,kill,1.0,100.0,1.11599150459
111,2_7_12,7,12.0,588.65568081,2_ND,training,02,1_A,112.0,10001,kill,1.0,200.0,1.71687677482
112,2_7_12,7,12.0,592.549673211,2_ND,training,02,1_A,113.0,01111,ignore,1.0,300.0,2.13466518363
113,2_7_12,7,12.0,599.268774868,2_ND,training,02,1_A,114.0,01001,ignore,1.0,400.0,4.94344912214
114,2_7_12,7,12.0,602.456487951,2_ND,training,02,1_A,115.0,00001,kill,0.0,300.0,1.40513733844
115,2_7_12,7,12.0,605.675406473,2_ND,training,02,1_A,116.0,11001,ignore,0.0,200.0,1.45167640714
116,2_7_12,7,12.0,609.89438433,2_ND,training,02,1_A,117.0,10111,kill,1.0,300.0,2.4398643582
117,2_7_12,7,12.0,613.22267712,2_ND,training,02,1_A,118.0,10100,kill,0.0,200.0,1.55573142078
118,2_7_12,7,12.0,619.176094753,2_ND,training,02,1_A,119.0,11111,kill,1.0,300.0,4.17967759255
119,2_7_12,7,12.0,622.317346062,2_ND,training,02,1_A,120.0,00100,kill,1.0,400.0,1.36066663716
120,2_7_12,7,12.0,626.241566327,2_ND,training,02,1_A,121.0,11110,kill,0.0,300.0,2.17009042572
121,2_7_12,7,12.0,630.382393956,2_ND,training,02,1_A,122.0,01000,kill,1.0,400.0,2.37671324262
122,2_7_12,7,12.0,634.148224873,2_ND,training,02,1_A,123.0,11100,ignore,1.0,500.0,1.98392613276
123,2_7_12,7,12.0,637.335876697,2_ND,training,02,1_A,124.0,00110,kill,1.0,600.0,1.39818686701
124,2_7_12,7,12.0,640.336031608,2_ND,training,02,1_A,125.0,10000,kill,0.0,500.0,1.22803967263
125,2_7_12,7,12.0,644.023723844,2_ND,training,02,1_A,126.0,01100,kill,1.0,600.0,1.92227409444
126,2_7_12,7,12.0,648.242714529,2_ND,training,02,1_A,127.0,00011,kill,0.0,500.0,2.44320953919
127,2_7_12,7,12.0,650.805350878,2_ND,training,02,1_A,128.0,10110,kill,0.0,400.0,0.807887506984
128,2_7_12,7,12.0,654.008625948,2_ND,training,02,1_A,129.0,00100,kill,1.0,500.0,1.4141443104
129,2_7_12,7,12.0,657.24316483,2_ND,training,02,1_A,130.0,00011,ignore,1.0,600.0,1.45150578046
130,2_7_12,7,12.0,660.243321665,2_ND,training,02,1_A,131.0,10100,kill,0.0,500.0,1.22345937257
131,2_7_12,7,12.0,667.337448579,2_ND,training,02,1_A,132.0,01101,ignore,1.0,600.0,5.32574974711
132,2_7_12,7,12.0,671.497048672,2_ND,training,02,1_A,133.0,01001,ignore,1.0,700.0,2.39601875354
133,2_7_12,7,12.0,676.809824376,2_ND,training,02,1_A,134.0,01111,ignore,1.0,800.0,3.53846509113
134,2_7_12,7,12.0,681.075651444,2_ND,training,02,1_A,135.0,11011,ignore,0.0,700.0,2.51411615059
135,2_7_12,7,12.0,684.591462316,2_ND,training,02,1_A,136.0,11010,kill,0.0,600.0,1.74852096816
136,2_7_12,7,12.0,687.576001037,2_ND,training,02,1_A,137.0,01110,kill,1.0,700.0,1.21229294677
137,2_7_12,7,12.0,692.763778265,2_ND,training,02,1_A,138.0,00101,kill,0.0,600.0,3.38586390021
138,2_7_12,7,12.0,696.138963886,2_ND,training,02,1_A,139.0,00000,kill,1.0,700.0,1.59885154132
139,2_7_12,7,12.0,699.326627897,2_ND,training,02,1_A,140.0,00110,kill,1.0,800.0,1.4126878898
140,2_7_12,7,12.0,703.842485595,2_ND,training,02,1_A,141.0,10011,kill,1.0,900.0,2.75534346958
141,2_7_12,7,12.0,708.108367828,2_ND,training,02,1_A,142.0,10101,ignore,0.0,800.0,2.47420426067
142,2_7_12,7,12.0,711.499168997,2_ND,training,02,1_A,143.0,11111,ignore,0.0,700.0,1.62862910442
143,2_7_12,7,12.0,714.63991003,2_ND,training,02,1_A,144.0,11101,kill,1.0,800.0,1.37056907847
144,2_7_12,7,12.0,718.890134699,2_ND,training,02,1_A,145.0,10010,kill,0.0,700.0,2.46582430969
145,2_7_12,7,12.0,725.171712983,2_ND,training,02,1_A,146.0,01011,kill,0.0,600.0,4.51760533792
146,2_7_12,7,12.0,728.034385125,2_ND,training,02,1_A,147.0,10000,kill,0.0,500.0,1.10851632403
147,2_7_12,7,12.0,731.15955487,2_ND,training,02,1_A,148.0,11001,ignore,0.0,400.0,1.3435459175
148,2_7_12,7,12.0,739.144331891,2_ND,training,02,1_A,149.0,00001,ignore,1.0,500.0,6.20830085974
149,2_7_12,7,12.0,744.832136701,2_ND,training,02,1_A,150.0,10111,ignore,0.0,400.0,3.92281548136
150,2_7_12,7,12.0,748.55107126,2_ND,training,02,1_A,151.0,10001,ignore,0.0,300.0,1.9380984362
151,2_7_12,7,12.0,758.535942575,2_ND,training,02,1_A,152.0,11000,kill,0.0,200.0,8.20290559277
152,2_7_12,7,12.0,761.176751922,2_ND,training,02,1_A,153.0,00010,kill,1.0,300.0,0.867349622407
153,2_7_12,7,12.0,764.020616322,2_ND,training,02,1_A,154.0,01100,kill,1.0,400.0,1.07183928506
154,2_7_12,7,12.0,768.130232739,2_ND,training,02,1_A,155.0,11110,kill,0.0,300.0,2.35630956298
155,2_7_12,7,12.0,771.052250893,2_ND,training,02,1_A,156.0,01000,kill,1.0,400.0,1.14818285792
156,2_7_12,7,12.0,775.536861778,2_ND,training,02,1_A,157.0,01010,kill,1.0,500.0,2.74160321086
157,2_7_12,7,12.0,778.708907675,2_ND,training,02,1_A,158.0,11100,ignore,1.0,600.0,1.41396726919
158,2_7_12,7,12.0,783.318568994,2_ND,training,02,1_A,159.0,00111,kill,0.0,500.0,2.84455748997
159,2_7_12,7,12.0,787.521926491,2_ND,training,02,1_A,160.0,10110,kill,0.0,400.0,2.41628452063
160,2_7_12,7,12.0,790.772129992,2_ND,training,02,1_A,161.0,11010,ignore,1.0,500.0,1.49329071515
161,2_7_12,7,12.0,796.057373542,2_ND,training,02,1_A,162.0,10001,ignore,0.0,400.0,3.53659108418
162,2_7_12,7,12.0,799.385692632,2_ND,training,02,1_A,163.0,01100,kill,1.0,500.0,1.53626779152
163,2_7_12,7,12.0,804.729710339,2_ND,training,02,1_A,164.0,00010,ignore,0.0,400.0,3.59353036225
164,2_7_12,7,12.0,808.43304314,2_ND,training,02,1_A,165.0,00000,kill,1.0,500.0,1.94303089433
165,2_7_12,7,12.0,812.433230444,2_ND,training,02,1_A,166.0,10110,kill,0.0,400.0,2.21541233605
166,2_7_12,7,12.0,817.560797301,2_ND,training,02,1_A,167.0,01010,kill,1.0,500.0,3.3732182822
167,2_7_12,7,12.0,821.814137832,2_ND,training,02,1_A,168.0,01111,kill,0.0,400.0,2.49981461989
168,2_7_12,7,12.0,825.073619319,2_ND,training,02,1_A,169.0,10100,kill,0.0,300.0,1.49342958987
169,2_7_12,7,12.0,828.767539749,2_ND,training,02,1_A,170.0,10000,kill,0.0,200.0,1.92061208794
170,2_7_12,7,12.0,834.174065194,2_ND,training,02,1_A,171.0,10101,ignore,0.0,100.0,3.59591624924
171,2_7_12,7,12.0,839.408731403,2_ND,training,02,1_A,172.0,10010,ignore,1.0,200.0,3.46971793357
172,2_7_12,7,12.0,843.112037584,2_ND,training,02,1_A,173.0,11110,kill,0.0,100.0,1.95291954439
173,2_7_12,7,12.0,847.534155485,2_ND,training,02,1_A,174.0,00100,kill,1.0,200.0,2.63248263745
174,2_7_12,7,12.0,859.128507549,2_ND,training,02,1_A,175.0,11001,ignore,0.0,100.0,9.84557964642
175,2_7_12,7,12.0,868.675861585,2_ND,training,02,1_A,176.0,01110,ignore,0.0,0.0,7.77985822591
176,2_7_12,7,12.0,872.519855237,2_ND,training,02,1_A,177.0,10111,kill,1.0,100.0,2.0944174927
177,2_7_12,7,12.0,876.582605764,2_ND,training,02,1_A,178.0,11111,ignore,0.0,0.0,2.27256297311
178,2_7_12,7,12.0,880.942202778,2_ND,training,02,1_A,179.0,11011,ignore,0.0,0.0,2.58725213428
179,2_7_12,7,12.0,885.645590423,2_ND,training,02,1_A,180.0,00111,ignore,1.0,100.0,2.94545911727
180,2_7_12,7,12.0,891.895919649,2_ND,training,02,1_A,181.0,00011,kill,0.0,0.0,4.46504750926
181,2_7_12,7,12.0,896.286749684,2_ND,training,02,1_A,182.0,01101,kill,0.0,0.0,2.60197734514
182,2_7_12,7,12.0,899.854848331,2_ND,training,02,1_A,183.0,11000,kill,0.0,0.0,1.79952038508
183,2_7_12,7,12.0,906.214532262,2_ND,training,02,1_A,184.0,00001,kill,0.0,0.0,4.57328768749
184,2_7_12,7,12.0,916.886959503,2_ND,training,02,1_A,185.0,11100,kill,0.0,0.0,8.91467062315
185,2_7_12,7,12.0,922.027850636,2_ND,training,02,1_A,186.0,01011,ignore,1.0,100.0,3.35845330121
186,2_7_12,7,12.0,926.043661507,2_ND,training,02,1_A,187.0,00101,kill,0.0,0.0,2.26154825111
187,2_7_12,7,12.0,929.84080659,2_ND,training,02,1_A,188.0,11101,ignore,0.0,0.0,2.01753734383
188,2_7_12,7,12.0,932.715953723,2_ND,training,02,1_A,189.0,01000,ignore,0.0,0.0,1.10236414172
189,2_7_12,7,12.0,936.590612389,2_ND,training,02,1_A,190.0,01001,ignore,1.0,100.0,2.10561502901
190,2_7_12,7,12.0,942.34091275,2_ND,training,02,1_A,191.0,10011,kill,1.0,200.0,3.99525356343
191,2_7_12,7,12.0,949.825669886,2_ND,training,02,1_A,192.0,00110,ignore,0.0,100.0,5.69578481538
192,2_7_12,7,12.0,954.200920935,2_ND,training,02,1_A,193.0,01111,kill,0.0,0.0,2.62386310352
193,2_7_12,7,12.0,957.622946145,2_ND,training,02,1_A,194.0,01011,ignore,1.0,100.0,1.66077299018
194,2_7_12,7,12.0,962.857612676,2_ND,training,02,1_A,195.0,10111,ignore,0.0,0.0,3.47334054327
195,2_7_12,7,12.0,966.857822432,2_ND,training,02,1_A,196.0,10001,kill,1.0,100.0,2.20275581333
196,2_7_12,7,12.0,972.139338494,2_ND,training,02,1_A,197.0,11010,ignore,1.0,200.0,3.52102749335
197,2_7_12,7,12.0,976.579666303,2_ND,training,02,1_A,198.0,00111,kill,0.0,100.0,2.66506335317
198,2_7_12,7,12.0,980.079861305,2_ND,training,02,1_A,199.0,11110,kill,0.0,0.0,1.74802127574
199,2_7_12,7,12.0,987.002089856,2_ND,training,02,1_A,200.0,10010,ignore,1.0,100.0,5.16508901132
200,2_7_12,7,12.0,994.846219817,2_ND,training,02,1_A,201.0,01110,kill,1.0,200.0,6.06598698234
201,2_7_12,7,12.0,1000.48716964,2_ND,training,02,1_A,202.0,11011,ignore,0.0,100.0,3.88232275512
202,2_7_12,7,12.0,1003.4247732,2_ND,training,02,1_A,203.0,01001,ignore,1.0,200.0,1.18912267738
203,2_7_12,7,12.0,1007.83904003,2_ND,training,02,1_A,204.0,11100,kill,0.0,100.0,2.66036213909
204,2_7_12,7,12.0,1011.44862854,2_ND,training,02,1_A,205.0,00101,kill,0.0,0.0,1.85693850832
205,2_7_12,7,12.0,1017.04265026,2_ND,training,02,1_A,206.0,00010,ignore,0.0,0.0,3.82099817892
206,2_7_12,7,12.0,1020.49596109,2_ND,training,02,1_A,207.0,11001,ignore,0.0,0.0,1.68928560662
207,2_7_12,7,12.0,1024.30866912,2_ND,training,02,1_A,208.0,00011,ignore,1.0,100.0,2.05242536847
208,2_7_12,7,12.0,1033.37164608,2_ND,training,02,1_A,209.0,10110,kill,0.0,0.0,7.28839148432
209,2_7_12,7,12.0,1037.00619644,2_ND,training,02,1_A,210.0,00110,ignore,0.0,0.0,1.84651167862
210,2_7_12,7,12.0,1044.5534735,2_ND,training,02,1_A,211.0,11111,kill,1.0,100.0,5.78726605382
211,2_7_12,7,12.0,1047.92862,2_ND,training,02,1_A,212.0,01000,ignore,0.0,0.0,1.61416272013
212,2_7_12,7,12.0,1051.50694791,2_ND,training,02,1_A,213.0,00001,kill,0.0,0.0,1.82938454443
213,2_7_12,7,12.0,1054.31962643,2_ND,training,02,1_A,214.0,00000,kill,1.0,100.0,1.025845452
214,2_7_12,7,12.0,1057.83542736,2_ND,training,02,1_A,215.0,11000,ignore,1.0,200.0,1.76023583686
215,2_7_12,7,12.0,1061.06994379,2_ND,training,02,1_A,216.0,10000,kill,0.0,100.0,1.48926815908
216,2_7_12,7,12.0,1066.6796468,2_ND,training,02,1_A,217.0,01101,ignore,1.0,200.0,3.83655631739
217,2_7_12,7,12.0,1071.25800422,2_ND,training,02,1_A,218.0,01100,kill,1.0,300.0,2.81647400605
218,2_7_12,7,12.0,1075.64885638,2_ND,training,02,1_A,219.0,10011,ignore,0.0,200.0,2.62090022894
219,2_7_12,7,12.0,1082.3679234,2_ND,training,02,1_A,220.0,10100,kill,0.0,100.0,4.92113679706
220,2_7_12,7,12.0,1087.60256492,2_ND,training,02,1_A,221.0,11101,kill,1.0,200.0,3.48033302993
221,2_7_12,7,12.0,1094.08731468,2_ND,training,02,1_A,222.0,00100,kill,1.0,300.0,4.68913903445
222,2_7_12,7,12.0,1097.54062038,2_ND,training,02,1_A,223.0,01010,ignore,0.0,200.0,1.6988150426
223,2_7_12,7,12.0,1100.75950715,2_ND,training,02,1_A,224.0,10101,kill,1.0,300.0,1.46113849049
224,2_7_12,7,12.0,1104.63471714,2_ND,training,02,1_A,225.0,01000,ignore,0.0,200.0,2.10545402413
225,2_7_12,7,12.0,1107.69740449,2_ND,training,02,1_A,226.0,10100,kill,0.0,100.0,1.29958100245
226,2_7_12,7,12.0,1111.46316067,2_ND,training,02,1_A,227.0,11110,kill,0.0,0.0,2.00676509132
227,2_7_12,7,12.0,1120.38555119,2_ND,training,02,1_A,228.0,10110,kill,0.0,0.0,7.18119527197
228,2_7_12,7,12.0,1125.30765819,2_ND,training,02,1_A,229.0,01011,ignore,1.0,100.0,3.16915678989
229,2_7_12,7,12.0,1133.18305004,2_ND,training,02,1_A,230.0,10001,kill,1.0,200.0,6.10382409031
230,2_7_12,7,12.0,1137.80830862,2_ND,training,02,1_A,231.0,11000,kill,0.0,100.0,2.88798967773
231,2_7_12,7,12.0,1141.54288054,2_ND,training,02,1_A,232.0,11100,kill,0.0,0.0,1.98674564245
232,2_7_12,7,12.0,1144.26175737,2_ND,training,02,1_A,233.0,01111,kill,0.0,0.0,0.953647594324
233,2_7_12,7,12.0,1148.37135678,2_ND,training,02,1_A,234.0,11011,kill,1.0,100.0,2.36328922056
234,2_7_12,7,12.0,1161.8720518,2_ND,training,02,1_A,235.0,10010,kill,0.0,0.0,11.7304422374
235,2_7_12,7,12.0,1170.79439293,2_ND,training,02,1_A,236.0,00000,kill,1.0,100.0,7.18089988255
236,2_7_12,7,12.0,1174.9665174,2_ND,training,02,1_A,237.0,01010,ignore,0.0,0.0,2.39979916085
237,2_7_12,7,12.0,1178.01348881,2_ND,training,02,1_A,238.0,00011,ignore,1.0,100.0,1.27786843657
238,2_7_12,7,12.0,1181.76998176,2_ND,training,02,1_A,239.0,01001,ignore,1.0,200.0,2.00217035855
239,2_7_12,7,12.0,1185.94206743,2_ND,training,02,1_A,240.0,00110,ignore,0.0,100.0,2.40033637832
240,2_7_12,7,12.0,1188.81725209,2_ND,training,02,1_A,241.0,11001,ignore,0.0,0.0,1.12675156947
241,2_7_12,7,12.0,1196.3332461,2_ND,training,02,1_A,242.0,10101,kill,1.0,100.0,5.7196998125
242,2_7_12,7,12.0,1204.14615651,2_ND,training,02,1_A,243.0,01110,kill,1.0,200.0,6.03805424004
243,2_7_12,7,12.0,1209.81834224,2_ND,training,02,1_A,244.0,01100,ignore,0.0,100.0,3.92831947473
244,2_7_12,7,12.0,1213.84980009,2_ND,training,02,1_A,245.0,00010,ignore,0.0,0.0,2.25552019008
245,2_7_12,7,12.0,1217.45010805,2_ND,training,02,1_A,246.0,00100,kill,1.0,100.0,1.83534717719
246,2_7_12,7,12.0,1223.84106445,2_ND,training,02,1_A,247.0,11010,kill,0.0,0.0,4.65790825801
247,2_7_12,7,12.0,1228.37253289,2_ND,training,02,1_A,248.0,00111,kill,0.0,0.0,2.73913521779
248,2_7_12,7,12.0,1231.54459867,2_ND,training,02,1_A,249.0,10111,ignore,0.0,0.0,1.42748109475
249,2_7_12,7,12.0,1239.58269332,2_ND,training,02,1_A,250.0,10011,ignore,0.0,0.0,6.29020455317
250,2_7_12,7,12.0,1247.62998546,2_ND,training,02,1_A,251.0,00001,kill,0.0,0.0,6.27335452696
251,2_7_12,7,12.0,1252.72400204,2_ND,training,02,1_A,252.0,11111,kill,1.0,100.0,3.34612135406
252,2_7_12,7,12.0,1258.06799602,2_ND,training,02,1_A,253.0,00101,kill,0.0,0.0,3.5773022254
253,2_7_12,7,12.0,1261.84946237,2_ND,training,02,1_A,254.0,11101,ignore,0.0,0.0,2.01603826656
254,2_7_12,7,12.0,1385.94964877,2_ND,test,02,2,0.0,10000,kill,0.0,0.0,13.651270816
255,2_7_12,7,12.0,1389.54357138,2_ND,test,02,2,1.0,01101,kill,0.0,0.0,1.8217124376
256,2_7_12,7,12.0,1394.43449058,2_ND,test,02,2,2.0,01000,ignore,1.0,100.0,3.15691368407
257,2_7_12,7,12.0,1397.59088789,2_ND,test,02,2,3.0,00101,ignore,1.0,200.0,1.37947213493
258,2_7_12,7,12.0,1404.29436181,2_ND,test,02,2,4.0,10011,ignore,0.0,100.0,4.9560357264
259,2_7_12,7,12.0,1407.15389436,2_ND,test,02,2,5.0,10111,ignore,1.0,200.0,1.06510722861
260,2_7_12,7,12.0,1412.4978832,2_ND,test,02,2,6.0,01100,kill,1.0,300.0,3.57283642482
261,2_7_12,7,12.0,1422.79531117,2_ND,test,02,2,7.0,01011,ignore,0.0,200.0,8.55636902574
262,2_7_12,7,12.0,1426.57675442,2_ND,test,02,2,8.0,01101,kill,0.0,100.0,2.006527112
263,2_7_12,7,12.0,1429.84254942,2_ND,test,02,2,9.0,11001,kill,1.0,200.0,1.5418603055
264,2_7_12,7,12.0,1433.88962731,2_ND,test,02,2,10.0,00010,ignore,1.0,300.0,2.28798544413
265,2_7_12,7,12.0,1437.48360605,2_ND,test,02,2,11.0,11000,ignore,1.0,400.0,1.84246442658
266,2_7_12,7,12.0,1440.85876761,2_ND,test,02,2,12.0,00110,kill,1.0,500.0,1.61612973786
267,2_7_12,7,12.0,1444.29643788,2_ND,test,02,2,13.0,10001,kill,1.0,600.0,1.69480082542
268,2_7_12,7,12.0,1448.78104171,2_ND,test,02,2,14.0,01111,ignore,1.0,700.0,2.69668156764
269,2_7_12,7,12.0,1453.29689973,2_ND,test,02,3,0.0,11010,kill,1.0,800.0,2.78810347161
270,2_7_12,7,12.0,1457.00019564,2_ND,test,02,3,1.0,10100,kill,0.0,700.0,1.92166086472
271,2_7_12,7,12.0,1460.33238494,2_ND,test,02,3,2.0,00001,kill,1.0,800.0,1.59588193147
272,2_7_12,7,12.0,1465.06702165,2_ND,test,02,3,3.0,11101,ignore,1.0,900.0,2.99665321538
273,2_7_12,7,12.0,1468.45783532,2_ND,test,02,3,4.0,01001,kill,1.0,1000.0,1.61801015935
274,2_7_12,7,12.0,1472.53615586,2_ND,test,02,3,5.0,01010,ignore,1.0,1100.0,2.34509983906
275,2_7_12,7,12.0,1476.64574277,2_ND,test,02,3,6.0,00011,ignore,1.0,1200.0,2.33716794348
276,2_7_12,7,12.0,1480.0052782,2_ND,test,02,3,7.0,00111,kill,0.0,1100.0,1.60234714319
277,2_7_12,7,12.0,1483.41171352,2_ND,test,02,3,8.0,10000,kill,0.0,1000.0,1.61618746869
278,2_7_12,7,12.0,1487.36580179,2_ND,test,02,3,9.0,00100,ignore,0.0,900.0,2.15663721753
279,2_7_12,7,12.0,1490.63082993,2_ND,test,02,3,10.0,10101,ignore,1.0,1000.0,1.50083453125
280,2_7_12,7,12.0,1495.55297445,2_ND,test,02,3,11.0,11111,kill,1.0,1100.0,3.15943459706
281,2_7_12,7,12.0,1499.25628544,2_ND,test,02,3,12.0,00000,kill,1.0,1200.0,1.95938475611
282,2_7_12,7,12.0,1503.85026611,2_ND,test,02,3,13.0,11110,kill,1.0,1300.0,2.82368875641
283,2_7_12,7,12.0,1507.7567242,2_ND,test,02,3,14.0,11011,kill,1.0,1400.0,2.13979360586
284,2_7_12,7,12.0,1511.58503495,2_ND,test,02,3,15.0,10110,ignore,0.0,1300.0,2.09391042356
285,2_7_12,7,12.0,1514.69460197,2_ND,test,02,3,16.0,11100,ignore,1.0,1400.0,1.36070608656
286,2_7_12,7,12.0,1520.02300991,2_ND,test,02,3,17.0,01110,kill,0.0,1300.0,3.58673448115
287,2_7_12,7,12.0,1522.83568362,2_ND,test,02,3,18.0,10010,kill,1.0,1400.0,1.07309236484
288,2_7_12,7,12.0,1530.42979803,2_ND,test,02,3,19.0,10000,kill,0.0,1300.0,5.82935183029
289,2_7_12,7,12.0,1533.77370316,2_ND,test,02,3,20.0,01110,kill,0.0,1200.0,1.60090483457
290,2_7_12,7,12.0,1537.78955733,2_ND,test,02,3,21.0,10010,ignore,0.0,1100.0,2.28012763646
291,2_7_12,7,12.0,1542.11790881,2_ND,test,02,3,22.0,11111,ignore,0.0,1000.0,2.57946873522
292,2_7_12,7,12.0,1545.21182757,2_ND,test,02,3,23.0,11101,kill,0.0,900.0,1.33120370709
293,2_7_12,7,12.0,1548.35370366,2_ND,test,02,3,24.0,01001,kill,1.0,1000.0,1.34806495873
294,2_7_12,7,12.0,1552.80706773,2_ND,test,02,3,25.0,11110,kill,1.0,1100.0,2.72610633121
295,2_7_12,7,12.0,1556.41663732,2_ND,test,02,3,26.0,00100,kill,1.0,1200.0,1.82960167651
296,2_7_12,7,12.0,1560.08871305,2_ND,test,02,3,27.0,00010,ignore,1.0,1300.0,1.90735708893
297,2_7_12,7,12.0,1563.67326306,2_ND,test,02,3,28.0,11100,ignore,1.0,1400.0,1.86310416117
298,2_7_12,7,12.0,1570.23613097,2_ND,test,02,3,29.0,10101,kill,0.0,1300.0,4.77076433697
299,2_7_12,7,12.0,1573.83003049,2_ND,test,02,3,30.0,00111,kill,0.0,1200.0,1.84862270271
300,2_7_12,7,12.0,1577.53338766,2_ND,test,02,3,31.0,11010,ignore,0.0,1100.0,1.93292350857
301,2_7_12,7,12.0,1584.67437405,2_ND,test,02,3,32.0,01111,ignore,1.0,1200.0,5.35723293557
302,2_7_12,7,12.0,1588.44017675,2_ND,test,02,3,33.0,00110,kill,0.0,1100.0,2.01931513273
303,2_7_12,7,12.0,1592.13921886,2_ND,test,02,3,34.0,10011,kill,1.0,1200.0,1.94467044996
304,2_7_12,7,12.0,1597.04572635,2_ND,test,02,3,35.0,10111,kill,1.0,1300.0,3.17896044733
305,2_7_12,7,12.0,1601.18652768,2_ND,test,02,3,36.0,10110,kill,1.0,1400.0,2.38636840353
306,2_7_12,7,12.0,1604.58048319,2_ND,test,02,3,37.0,01011,ignore,1.0,1500.0,1.63288001801
307,2_7_12,7,12.0,1607.89314825,2_ND,test,02,3,38.0,01101,ignore,0.0,1400.0,1.56745751492
308,2_7_12,7,12.0,1613.28404564,2_ND,test,02,3,39.0,10001,ignore,1.0,1500.0,3.63211380158
309,2_7_12,7,12.0,1616.59673057,2_ND,test,02,3,40.0,01010,ignore,1.0,1600.0,1.55537701761
310,2_7_12,7,12.0,1620.20629343,2_ND,test,02,3,41.0,11001,ignore,1.0,1700.0,1.86066054335
311,2_7_12,7,12.0,1624.28461396,2_ND,test,02,4,0.0,11000,kill,0.0,1600.0,2.3211832383
312,2_7_12,7,12.0,1628.95672882,2_ND,test,02,4,1.0,10100,kill,0.0,1500.0,2.93965203704
313,2_7_12,7,12.0,1633.09758884,2_ND,test,02,4,2.0,00011,ignore,0.0,1400.0,2.40522040669
314,2_7_12,7,12.0,1638.67598122,2_ND,test,02,4,3.0,00001,ignore,0.0,1300.0,3.79447406892
315,2_7_12,7,12.0,1641.78555915,2_ND,test,02,4,4.0,00000,ignore,0.0,1200.0,1.3764441528
316,2_7_12,7,12.0,1644.97322284,2_ND,test,02,4,5.0,01100,kill,1.0,1300.0,1.39984406261
317,2_7_12,7,12.0,1648.28587538,2_ND,test,02,4,6.0,11011,ignore,1.0,1400.0,1.56787349764
318,2_7_12,7,12.0,1652.08295921,2_ND,test,02,4,7.0,00101,kill,0.0,1300.0,2.00653513017
319,2_7_12,7,12.0,1655.70815268,2_ND,test,02,4,8.0,01000,ignore,1.0,1400.0,1.86068299423
320,2_7_12,7,12.0,1658.94268868,2_ND,test,02,4,9.0,00101,kill,0.0,1300.0,1.46490029565
321,2_7_12,7,12.0,1662.30221674,2_ND,test,02,4,10.0,00001,kill,1.0,1400.0,1.59625044661
322,2_7_12,7,12.0,1665.27114857,2_ND,test,02,4,11.0,00000,ignore,0.0,1300.0,1.22023606778
323,2_7_12,7,12.0,1669.36512538,2_ND,test,02,4,12.0,01011,ignore,1.0,1400.0,2.3221964144
324,2_7_12,7,12.0,1672.97466386,2_ND,test,02,4,13.0,11101,kill,1.0,1500.0,1.84291472707
325,2_7_12,7,12.0,1676.88112901,2_ND,test,02,4,14.0,11111,kill,1.0,1600.0,2.17724712452
326,2_7_12,7,12.0,1680.42817643,2_ND,test,02,4,15.0,11100,kill,1.0,1700.0,1.7686655005
327,2_7_12,7,12.0,1683.91273343,2_ND,test,02,4,16.0,01100,kill,1.0,1800.0,1.73712778848
328,2_7_12,7,12.0,1689.38174833,2_ND,test,02,4,17.0,10000,kill,1.0,1900.0,3.70594961125
329,2_7_12,7,12.0,1693.77261108,2_ND,test,02,5,0.0,11001,ignore,1.0,2000.0,2.61024536245
330,2_7_12,7,12.0,1698.757255,2_ND,test,02,5,1.0,00011,ignore,1.0,2100.0,3.24047200728
331,2_7_12,7,12.0,1702.49185322,2_ND,test,02,5,2.0,01001,ignore,0.0,2000.0,1.99707849918
332,2_7_12,7,12.0,1708.15462177,2_ND,test,02,5,3.0,11010,kill,1.0,2100.0,3.89997074971
333,2_7_12,7,12.0,1711.96733429,2_ND,test,02,5,4.0,01010,ignore,1.0,2200.0,2.06985719316
334,2_7_12,7,12.0,1716.295663,2_ND,test,02,5,5.0,10101,ignore,1.0,2300.0,2.55281729667
335,2_7_12,7,12.0,1719.82709744,2_ND,test,02,5,6.0,01111,kill,0.0,2200.0,1.78594241414
336,2_7_12,7,12.0,1724.10856411,2_ND,test,02,5,7.0,00110,kill,0.0,2100.0,2.50447862965
337,2_7_12,7,12.0,1727.29622684,2_ND,test,02,5,8.0,11011,kill,1.0,2200.0,1.40143550921
338,2_7_12,7,12.0,1730.83094264,2_ND,test,02,5,9.0,00010,kill,0.0,2100.0,1.80098578603
339,2_7_12,7,12.0,1733.72169473,2_ND,test,02,5,10.0,11110,kill,1.0,2200.0,1.12789977158
340,2_7_12,7,12.0,1739.48147065,2_ND,test,02,5,11.0,01101,kill,1.0,2300.0,4.01880004541
341,2_7_12,7,12.0,1742.99728633,2_ND,test,02,5,12.0,10111,ignore,0.0,2200.0,1.72582152577
342,2_7_12,7,12.0,1746.68497375,2_ND,test,02,5,13.0,10010,ignore,0.0,2100.0,1.92714850102
343,2_7_12,7,12.0,1750.32580491,2_ND,test,02,5,14.0,00100,ignore,0.0,2000.0,1.88935821917
344,2_7_12,7,12.0,1753.91971983,2_ND,test,02,5,15.0,10001,kill,0.0,1900.0,1.80353043281
345,2_7_12,7,12.0,1756.78297056,2_ND,test,02,5,16.0,00111,ignore,1.0,2000.0,1.13060959268
346,2_7_12,7,12.0,1762.47084433,2_ND,test,02,5,17.0,11000,ignore,1.0,2100.0,3.93378177361
347,2_7_12,7,12.0,1765.31475555,2_ND,test,02,5,18.0,01000,ignore,0.0,2000.0,1.0767765541
348,2_7_12,7,12.0,1768.59617892,2_ND,test,02,5,19.0,10011,ignore,0.0,1900.0,1.53771715613
349,2_7_12,7,12.0,1771.81504966,2_ND,test,02,5,20.0,10100,kill,0.0,1800.0,1.46779164815
350,2_7_12,7,12.0,1775.51840234,2_ND,test,02,5,21.0,01110,kill,0.0,1700.0,1.93579946618
351,2_7_12,7,12.0,1781.15933068,2_ND,test,02,5,22.0,10110,kill,1.0,1800.0,3.87261435355
352,2_7_12,7,12.0,1785.22211649,2_ND,test,02,5,23.0,01000,ignore,0.0,1700.0,2.28993418044
353,2_7_12,7,12.0,1788.86290371,2_ND,test,02,5,24.0,10100,ignore,1.0,1800.0,1.89330829098
354,2_7_12,7,12.0,1792.01934592,2_ND,test,02,5,25.0,11101,kill,0.0,1700.0,1.40102690321
355,2_7_12,7,12.0,1797.84775,2_ND,test,02,5,26.0,10001,kill,0.0,1600.0,4.06314854977
356,2_7_12,7,12.0,1804.25431746,2_ND,test,02,5,27.0,11010,kill,1.0,1700.0,4.68358436623
357,2_7_12,7,12.0,1814.75489253,2_ND,test,02,5,28.0,01001,kill,1.0,1800.0,8.70739063696
358,2_7_12,7,12.0,1820.56768106,2_ND,test,02,5,29.0,10011,ignore,0.0,1700.0,4.06489875616
359,2_7_12,7,12.0,1828.95871027,2_ND,test,02,5,30.0,10101,ignore,1.0,1800.0,6.60982488956
360,2_7_12,7,12.0,1832.11514222,2_ND,test,02,5,31.0,01110,kill,0.0,1700.0,1.38028870547
361,2_7_12,7,12.0,1835.58412537,2_ND,test,02,5,32.0,11001,kill,0.0,1600.0,1.74123918589
362,2_7_12,7,12.0,1839.08430658,2_ND,test,02,5,33.0,00000,kill,1.0,1700.0,1.72549406367
363,2_7_12,7,12.0,1842.19381523,2_ND,test,02,5,34.0,11100,kill,0.0,1600.0,1.37690279218
364,2_7_12,7,12.0,1845.38151549,2_ND,test,02,5,35.0,00100,kill,1.0,1700.0,1.39150099521
365,2_7_12,7,12.0,1848.41292715,2_ND,test,02,5,36.0,10111,kill,1.0,1800.0,1.25423343397
366,2_7_12,7,12.0,1852.14748624,2_ND,test,02,5,37.0,10010,ignore,0.0,1700.0,2.0124185434
367,2_7_12,7,12.0,1855.16326792,2_ND,test,02,5,38.0,00111,ignore,1.0,1800.0,1.24201438267
368,2_7_12,7,12.0,1858.28840399,2_ND,test,02,5,39.0,01111,kill,0.0,1700.0,1.38484976193
369,2_7_12,7,12.0,1861.33545173,2_ND,test,02,5,40.0,10000,kill,0.0,1600.0,1.29612517071
370,2_7_12,7,12.0,1865.03878261,2_ND,test,02,5,41.0,11011,kill,1.0,1700.0,1.93920398163
371,2_7_12,7,12.0,1869.00772855,2_ND,test,02,5,42.0,00011,ignore,1.0,1800.0,2.23771054915
372,2_7_12,7,12.0,1872.64855137,2_ND,test,02,5,43.0,01101,kill,1.0,1900.0,1.8997603529
373,2_7_12,7,12.0,1875.8049737,2_ND,test,02,5,44.0,00010,ignore,1.0,2000.0,1.36543744896
374,2_7_12,7,12.0,1878.58635089,2_ND,test,02,5,45.0,10110,kill,1.0,2100.0,1.01359561092
375,2_7_12,7,12.0,1881.53962933,2_ND,test,02,5,46.0,00001,ignore,0.0,2000.0,1.17897295567
376,2_7_12,7,12.0,1884.28979531,2_ND,test,02,5,47.0,00101,kill,1.0,2100.0,1.00386700356
377,2_7_12,7,12.0,1887.74305739,2_ND,test,02,5,48.0,01100,ignore,0.0,2000.0,1.67436731819
378,2_7_12,7,12.0,1891.86827364,2_ND,test,02,5,49.0,11000,kill,0.0,1900.0,2.35028663358
379,2_7_12,7,12.0,1895.52474889,2_ND,test,02,5,50.0,00110,kill,0.0,1800.0,1.91865276765
380,2_7_12,7,12.0,1898.86867871,2_ND,test,02,5,51.0,11110,kill,1.0,1900.0,1.57626371188
381,2_7_12,7,12.0,1902.22822666,2_ND,test,02,5,52.0,01011,kill,0.0,1800.0,1.6254949617
382,2_7_12,7,12.0,1905.80650293,2_ND,test,02,5,53.0,11111,kill,1.0,1900.0,1.79865378114
383,2_7_12,7,12.0,1908.96291275,2_ND,test,02,5,54.0,01010,kill,0.0,1800.0,1.38953493966
384,2_7_12,7,12.0,1912.47873517,2_ND,test,02,5,55.0,10101,ignore,1.0,1900.0,1.77308864441
385,2_7_12,7,12.0,1915.74546476,2_ND,test,02,5,56.0,11000,ignore,1.0,2000.0,1.50881197004
386,2_7_12,7,12.0,1919.48001038,2_ND,test,02,5,57.0,00010,kill,0.0,1900.0,2.00877797299
387,2_7_12,7,12.0,1922.23017924,2_ND,test,02,5,58.0,11001,kill,0.0,1800.0,1.00777602233
388,2_7_12,7,12.0,1925.74596189,2_ND,test,02,5,59.0,01111,ignore,1.0,1900.0,1.74265327055
389,2_7_12,7,12.0,1928.94926133,2_ND,test,02,5,60.0,11010,ignore,0.0,1800.0,1.46513538842
390,2_7_12,7,12.0,1932.09003412,2_ND,test,02,5,61.0,00111,ignore,1.0,1900.0,1.40598117077
391,2_7_12,7,12.0,1936.68404172,2_ND,test,02,5,62.0,00101,kill,1.0,2000.0,2.80394930207
392,2_7_12,7,12.0,1940.60612595,2_ND,test,02,5,63.0,01110,ignore,1.0,2100.0,2.17027099494
393,2_7_12,7,12.0,1943.71567309,2_ND,test,02,5,64.0,10001,ignore,1.0,2200.0,1.32805000003
394,2_7_12,7,12.0,1947.5596042,2_ND,test,02,5,65.0,01101,kill,1.0,2300.0,2.09974572776
395,2_7_12,7,12.0,1950.73162861,2_ND,test,02,5,66.0,10111,kill,1.0,2400.0,1.42252361993
396,2_7_12,7,12.0,1953.87246233,2_ND,test,02,5,67.0,11111,kill,1.0,2500.0,1.37181189499
397,2_7_12,7,12.0,1963.20105564,2_ND,test,02,6,0.0,10110,ignore,1.0,2600.0,7.59704616991
398,2_7_12,7,12.0,1967.46690291,2_ND,test,02,6,1.0,01001,ignore,1.0,2700.0,2.49465797369
399,2_7_12,7,12.0,1972.09214482,2_ND,test,02,6,2.0,00000,kill,0.0,2600.0,2.89047883877
400,2_7_12,7,12.0,1978.23309048,2_ND,test,02,6,3.0,01100,ignore,0.0,2500.0,4.35604881206
401,2_7_12,7,12.0,1981.18636763,2_ND,test,02,6,4.0,00110,ignore,1.0,2600.0,1.16943229424
402,2_7_12,7,12.0,1984.70216215,2_ND,test,02,6,5.0,11100,kill,1.0,2700.0,1.77849353318
403,2_7_12,7,12.0,1987.96794656,2_ND,test,02,6,6.0,01010,kill,1.0,2800.0,1.50622113859
404,2_7_12,7,12.0,1990.99934604,2_ND,test,02,6,7.0,11011,ignore,1.0,2900.0,1.30287165987
405,2_7_12,7,12.0,1995.84338844,2_ND,test,02,6,8.0,10011,ignore,0.0,2800.0,3.08085010574
406,2_7_12,7,12.0,1998.59356532,2_ND,test,02,6,9.0,10010,kill,0.0,2700.0,0.978809577417
407,2_7_12,7,12.0,2002.17184063,2_ND,test,02,6,10.0,00001,kill,1.0,2800.0,1.82803396369
408,2_7_12,7,12.0,2006.07826216,2_ND,test,02,6,11.0,10100,kill,0.0,2700.0,2.12118439292
409,2_7_12,7,12.0,2009.5315839,2_ND,test,02,6,12.0,00011,kill,1.0,2800.0,1.7071449602
410,2_7_12,7,12.0,2012.90674033,2_ND,test,02,6,13.0,10000,ignore,1.0,2900.0,1.62956113663
411,2_7_12,7,12.0,2017.61015812,2_ND,test,02,6,14.0,11101,kill,0.0,2800.0,2.9227670516
412,2_7_12,7,12.0,2021.13920603,2_ND,test,02,6,15.0,01011,ignore,1.0,2900.0,1.78087557145
413,2_7_12,7,12.0,2025.43632482,2_ND,test,02,6,16.0,00100,ignore,1.0,3000.0,2.53997218657
414,2_7_12,7,12.0,2028.34271652,2_ND,test,02,6,17.0,01000,kill,1.0,3100.0,1.13243933933
415,2_7_12,7,12.0,2031.51477204,2_ND,test,02,6,18.0,11110,ignore,0.0,3000.0,1.422671475
416,2_7_12,7,12.0,2034.20238986,2_ND,test,02,6,19.0,01000,kill,1.0,3100.0,0.899810065563
417,2_7_12,7,12.0,2037.67134158,2_ND,test,02,6,20.0,00110,ignore,1.0,3200.0,1.72774267957
418,2_7_12,7,12.0,2040.70273881,2_ND,test,02,6,21.0,10001,kill,1.0,3300.0,1.23205805926
419,2_7_12,7,12.0,2044.14040619,2_ND,test,02,7,0.0,01001,kill,0.0,3200.0,1.65304251106
420,2_7_12,7,12.0,2047.54683189,2_ND,test,02,7,1.0,01110,kill,1.0,3300.0,1.65797689356
421,2_7_12,7,12.0,2050.79702256,2_ND,test,02,7,2.0,01111,kill,1.0,3400.0,1.46998862703
422,2_7_12,7,12.0,2054.67221235,2_ND,test,02,7,3.0,11101,kill,0.0,3300.0,2.14645638532
423,2_7_12,7,12.0,2057.50056897,2_ND,test,02,7,4.0,01101,kill,1.0,3400.0,1.04257424345
424,2_7_12,7,12.0,2060.89416816,2_ND,test,02,7,5.0,10010,ignore,0.0,3300.0,1.59957317671
425,2_7_12,7,12.0,2063.50365629,2_ND,test,02,7,6.0,00100,ignore,0.0,3200.0,0.854131506989
426,2_7_12,7,12.0,2066.50381697,2_ND,test,02,7,7.0,11000,kill,1.0,3300.0,1.24372353603
427,2_7_12,7,12.0,2069.44146703,2_ND,test,02,7,8.0,11001,kill,1.0,3400.0,1.20251847547
428,2_7_12,7,12.0,2072.69163718,2_ND,test,02,7,9.0,01100,kill,1.0,3500.0,1.46426076632
429,2_7_12,7,12.0,2075.42612955,2_ND,test,02,7,10.0,00001,kill,0.0,3400.0,0.955769202399
430,2_7_12,7,12.0,2078.4106904,2_ND,test,02,7,11.0,00101,kill,1.0,3500.0,1.23731990386
431,2_7_12,7,12.0,2081.09835666,2_ND,test,02,7,12.0,10110,kill,0.0,3400.0,0.931574210739
432,2_7_12,7,12.0,2084.16100167,2_ND,test,02,7,13.0,11011,kill,1.0,3500.0,1.27676770204
433,2_7_12,7,12.0,2087.72369254,2_ND,test,02,7,14.0,00000,kill,0.0,3400.0,1.78424737277
434,2_7_12,7,12.0,2094.80214265,2_ND,test,02,7,15.0,10101,kill,0.0,3300.0,5.27790435797
435,2_7_12,7,12.0,2097.72420506,2_ND,test,02,7,16.0,00011,kill,0.0,3200.0,1.19131805262
436,2_7_12,7,12.0,2100.63688076,2_ND,test,02,7,17.0,00010,kill,0.0,3100.0,1.18407732339
437,2_7_12,7,12.0,2102.93388601,2_ND,test,02,7,18.0,11110,kill,0.0,3000.0,0.536310448191
438,2_7_12,7,12.0,2105.05894478,2_ND,test,02,7,19.0,10000,kill,1.0,3100.0,0.371564935318
439,2_7_12,7,12.0,2112.30936766,2_ND,test,02,7,20.0,00111,kill,1.0,3200.0,5.48321219481
440,2_7_12,7,12.0,2115.46577973,2_ND,test,02,7,21.0,10100,kill,0.0,3100.0,1.39676765072
441,2_7_12,7,12.0,2118.12215684,2_ND,test,02,7,22.0,01011,kill,0.0,3000.0,0.874654497005
442,2_7_12,7,12.0,2120.74847575,2_ND,test,02,7,23.0,11111,kill,0.0,2900.0,0.846626819563
443,2_7_12,7,12.0,2124.10805929,2_ND,test,02,7,24.0,11010,ignore,0.0,2800.0,1.62883661469
444,2_7_12,7,12.0,2128.4208119,2_ND,test,02,7,25.0,10111,ignore,1.0,2900.0,2.54615612085
445,2_7_12,7,12.0,2131.72409441,2_ND,test,02,7,26.0,01010,kill,0.0,2800.0,1.5808029589
446,2_7_12,7,12.0,2134.98992437,2_ND,test,02,7,27.0,10011,kill,1.0,2900.0,1.49116750344
447,2_7_12,7,12.0,2138.88072489,2_ND,test,02,7,28.0,11100,kill,0.0,2800.0,2.11842101043
448,2_7_12,7,12.0,2143.20909273,2_ND,test,02,7,29.0,10010,kill,1.0,2900.0,2.59335524539
449,2_7_12,7,12.0,2146.25612829,2_ND,test,02,7,30.0,00010,ignore,1.0,3000.0,1.26240779905
450,2_7_12,7,12.0,2149.52193451,2_ND,test,02,7,31.0,01000,kill,0.0,2900.0,1.54057932249
451,2_7_12,7,12.0,2152.44396389,2_ND,test,02,7,32.0,00101,kill,1.0,3000.0,1.14984614733
452,2_7_12,7,12.0,2155.31910557,2_ND,test,02,7,33.0,10011,kill,1.0,3100.0,1.08591342043
453,2_7_12,7,12.0,2158.69429344,2_ND,test,02,7,34.0,10101,kill,0.0,3000.0,1.63424631437
454,2_7_12,7,12.0,2161.56944185,2_ND,test,02,7,35.0,10111,kill,0.0,2900.0,1.13695421111
455,2_7_12,7,12.0,2166.02276776,2_ND,test,02,7,36.0,00100,kill,1.0,3000.0,2.64904016077
456,2_7_12,7,12.0,2169.22922636,2_ND,test,02,7,37.0,11001,kill,1.0,3100.0,1.45268637597
457,2_7_12,7,12.0,2172.72940276,2_ND,test,02,7,38.0,10110,kill,0.0,3000.0,1.7293094302
458,2_7_12,7,12.0,2175.4638714,2_ND,test,02,7,39.0,11100,kill,0.0,2900.0,1.01270783901
459,2_7_12,7,12.0,2178.76093663,2_ND,test,02,7,40.0,00110,ignore,0.0,2800.0,1.51462803063
460,2_7_12,7,12.0,2182.69865532,2_ND,test,02,7,41.0,11111,ignore,1.0,2900.0,2.16474102269
461,2_7_12,7,12.0,2186.30825153,2_ND,test,02,7,42.0,01100,kill,1.0,3000.0,1.85275270229
462,2_7_12,7,12.0,2190.3241118,2_ND,test,02,7,43.0,10001,kill,1.0,3100.0,2.21589246414
463,2_7_12,7,12.0,2193.82428723,2_ND,test,02,7,44.0,11110,kill,0.0,3000.0,1.78330892602
464,2_7_12,7,12.0,2197.01193842,2_ND,test,02,7,45.0,00011,kill,0.0,2900.0,1.3975200759
465,2_7_12,7,12.0,2200.35586856,2_ND,test,02,7,46.0,10100,kill,0.0,2800.0,1.55550530835
466,2_7_12,7,12.0,2203.48104376,2_ND,test,02,7,47.0,11000,kill,1.0,2900.0,1.38084131783
467,2_7_12,7,12.0,2207.6843926,2_ND,test,02,7,48.0,01011,kill,0.0,2800.0,2.43606053784
468,2_7_12,7,12.0,2211.7627003,2_ND,test,02,7,49.0,11010,ignore,0.0,2700.0,2.35488104562
469,2_7_12,7,12.0,2215.32540144,2_ND,test,02,7,50.0,01010,ignore,1.0,2800.0,1.80258364716
470,2_7_12,7,12.0,2218.62245511,2_ND,test,02,7,51.0,11101,kill,0.0,2700.0,1.50422782126
471,2_7_12,7,12.0,2221.93511439,2_ND,test,02,7,52.0,11011,ignore,0.0,2600.0,1.58830989141
472,2_7_12,7,12.0,2225.57593529,2_ND,test,02,7,53.0,01101,ignore,0.0,2500.0,1.88432793935
473,2_7_12,7,12.0,2229.18549269,2_ND,test,02,7,54.0,00111,ignore,0.0,2400.0,1.82178716695
474,2_7_12,7,12.0,2231.93561954,2_ND,test,02,7,55.0,01001,ignore,1.0,2500.0,0.987529178125
475,2_7_12,7,12.0,2235.38894673,2_ND,test,02,7,56.0,00000,kill,0.0,2400.0,1.67440484323
476,2_7_12,7,12.0,2238.12348946,2_ND,test,02,7,57.0,10000,kill,1.0,2500.0,1.00758102041
477,2_7_12,7,12.0,2242.81120254,2_ND,test,02,7,58.0,00001,kill,0.0,2400.0,2.94329741834
478,2_7_12,7,12.0,2246.03011272,2_ND,test,02,7,59.0,01110,kill,1.0,2500.0,1.46338550276
479,2_7_12,7,12.0,2250.23347375,2_ND,test,02,7,60.0,01111,kill,1.0,2600.0,2.47742499963
480,2_7_12,7,12.0,2253.37423916,2_ND,test,02,7,61.0,11101,ignore,1.0,2700.0,1.36857030878
481,2_7_12,7,12.0,2256.19003418,2_ND,test,02,7,62.0,00000,ignore,1.0,2800.0,1.06544623688
482,2_7_12,7,12.0,2259.06518003,2_ND,test,02,7,63.0,01101,kill,1.0,2900.0,1.08494514609
483,2_7_12,7,12.0,2263.26855677,2_ND,test,02,7,64.0,10110,kill,0.0,2800.0,2.41601671372
484,2_7_12,7,12.0,2266.23741452,2_ND,test,02,7,65.0,00101,kill,1.0,2900.0,1.19711198306
485,2_7_12,7,12.0,2269.58136391,2_ND,test,02,7,66.0,01011,ignore,1.0,3000.0,1.54741786025
486,2_7_12,7,12.0,2272.75339922,2_ND,test,02,8,0.0,00010,kill,0.0,2900.0,1.43670070861
487,2_7_12,7,12.0,2276.69111567,2_ND,test,02,8,1.0,11010,ignore,1.0,3000.0,2.17003622289
488,2_7_12,7,12.0,2279.69128566,2_ND,test,02,8,2.0,10011,kill,1.0,3100.0,1.22476697591
489,2_7_12,7,12.0,2285.69156565,2_ND,test,02,8,3.0,10100,kill,1.0,3200.0,4.24760914174
490,2_7_12,7,12.0,2288.47296529,2_ND,test,02,8,4.0,00011,ignore,0.0,3100.0,1.00197824317
491,2_7_12,7,12.0,2292.75444094,2_ND,test,02,8,5.0,10101,kill,0.0,3000.0,2.53770689287
492,2_7_12,7,12.0,2295.95775611,2_ND,test,02,8,6.0,10010,kill,0.0,2900.0,1.44199655026
493,2_7_12,7,12.0,2298.83290292,2_ND,test,02,8,7.0,01111,kill,1.0,3000.0,1.09461987134
494,2_7_12,7,12.0,2302.75494384,2_ND,test,02,8,8.0,11110,kill,0.0,2900.0,2.19561996178
495,2_7_12,7,12.0,2305.84885876,2_ND,test,02,8,9.0,10000,ignore,0.0,2800.0,1.35512543948
496,2_7_12,7,12.0,2309.03654009,2_ND,test,02,8,10.0,11011,ignore,0.0,2700.0,1.4277803329
497,2_7_12,7,12.0,2311.97419881,2_ND,test,02,8,11.0,11100,kill,1.0,2800.0,1.18642344026
498,2_7_12,7,12.0,2315.94312102,2_ND,test,02,8,12.0,01001,ignore,1.0,2900.0,2.18569218305
499,2_7_12,7,12.0,2319.63082031,2_ND,test,02,8,13.0,10001,ignore,1.0,3000.0,1.93683509316
500,2_7_12,7,12.0,2323.28730037,2_ND,test,02,8,14.0,10111,kill,1.0,3100.0,1.86498554484
501,2_7_12,7,12.0,2326.57356544,2_ND,test,02,8,15.0,11111,ignore,0.0,3000.0,1.52394033454
502,2_7_12,7,12.0,2330.15185133,2_ND,test,02,8,16.0,00100,ignore,0.0,2900.0,1.81470166951
503,2_7_12,7,12.0,2333.04280068,2_ND,test,02,8,17.0,01100,kill,1.0,3000.0,1.09952859569
504,2_7_12,7,12.0,2336.08984329,2_ND,test,02,8,18.0,00110,ignore,1.0,3100.0,1.30316897366
505,2_7_12,7,12.0,2340.2931825,2_ND,test,02,8,19.0,11000,kill,1.0,3200.0,2.44206037491
506,2_7_12,7,12.0,2343.21522824,2_ND,test,02,8,20.0,00001,kill,0.0,3100.0,1.14200116873
507,2_7_12,7,12.0,2346.54353322,2_ND,test,02,8,21.0,11001,ignore,1.0,3200.0,1.58471871294
508,2_7_12,7,12.0,2349.5749173,2_ND,test,02,8,22.0,00111,kill,1.0,3300.0,1.23896876056
509,2_7_12,7,12.0,2352.63758316,2_ND,test,02,8,23.0,01000,ignore,0.0,3200.0,1.33346451062
510,2_7_12,7,12.0,2355.30962296,2_ND,test,02,8,24.0,01110,ignore,1.0,3300.0,0.927709772997
511,2_7_12,7,12.0,2360.79426912,2_ND,test,02,8,25.0,01010,kill,0.0,3200.0,3.72223547893
512,2_7_12,7,12.0,2363.21625681,2_ND,test,02,8,26.0,00001,kill,0.0,3100.0,0.666791429408
513,2_7_12,7,12.0,2366.31016723,2_ND,test,02,8,27.0,00100,kill,1.0,3200.0,1.32744992011
514,2_7_12,7,12.0,2369.3103308,2_ND,test,02,8,28.0,11001,ignore,1.0,3300.0,1.22485774161
515,2_7_12,7,12.0,2372.26361566,2_ND,test,02,8,29.0,01010,ignore,1.0,3400.0,1.18320783292
516,2_7_12,7,12.0,2375.52940584,2_ND,test,02,8,30.0,10001,kill,0.0,3300.0,1.47735764699
517,2_7_12,7,12.0,2378.95146569,2_ND,test,02,8,31.0,01111,kill,1.0,3400.0,1.69058166379
518,2_7_12,7,12.0,2382.45164337,2_ND,test,02,8,32.0,10111,kill,1.0,3500.0,1.7585039119
519,2_7_12,7,12.0,2385.71742586,2_ND,test,02,8,33.0,11100,ignore,0.0,3400.0,1.49407713737
520,2_7_12,7,12.0,2388.39072484,2_ND,test,02,8,34.0,11111,ignore,0.0,3300.0,0.897344959041
521,2_7_12,7,12.0,2390.98459068,2_ND,test,02,8,35.0,11010,ignore,1.0,3400.0,0.827931651827
522,2_7_12,7,12.0,2393.87536972,2_ND,test,02,8,36.0,00000,ignore,0.0,3300.0,1.13095212895
523,2_7_12,7,12.0,2396.82868568,2_ND,test,02,8,37.0,01100,kill,1.0,3400.0,1.1640421589
524,2_7_12,7,12.0,2400.2976204,2_ND,test,02,8,38.0,00110,ignore,1.0,3500.0,1.69141876085
525,2_7_12,7,12.0,2404.46970158,2_ND,test,02,8,39.0,10110,kill,0.0,3400.0,2.41539482437
526,2_7_12,7,12.0,2409.32932681,2_ND,test,02,8,40.0,00010,ignore,1.0,3500.0,3.06779042938
527,2_7_12,7,12.0,2412.20445567,2_ND,test,02,8,41.0,01110,kill,0.0,3400.0,1.15162682277
528,2_7_12,7,12.0,2416.12653155,2_ND,test,02,8,42.0,10000,kill,1.0,3500.0,2.13619280558
529,2_7_12,7,12.0,2419.72048688,2_ND,test,02,8,43.0,11000,ignore,0.0,3400.0,1.80812292049
530,2_7_12,7,12.0,2425.17388238,2_ND,test,02,8,44.0,00011,kill,1.0,3500.0,3.70325999593
531,2_7_12,7,12.0,2428.12716338,2_ND,test,02,8,45.0,10010,ignore,1.0,3600.0,1.16733474068
532,2_7_12,7,12.0,2431.02916497,2_ND,test,02,8,46.0,01001,ignore,1.0,3700.0,1.1681115411
533,2_7_12,7,12.0,2433.77932806,2_ND,test,02,8,47.0,11101,kill,0.0,3600.0,0.976523436471
534,2_7_12,7,12.0,2437.34200354,2_ND,test,02,8,48.0,10100,kill,1.0,3700.0,1.77565927006
535,2_7_12,7,12.0,2440.27970299,2_ND,test,02,8,49.0,00111,ignore,0.0,3600.0,1.18396859699
536,2_7_12,7,12.0,2443.38263546,2_ND,test,02,8,50.0,01101,kill,0.0,3500.0,1.36018394326
537,2_7_12,7,12.0,2446.30465201,2_ND,test,02,8,51.0,01011,ignore,0.0,3400.0,1.13610685079
538,2_7_12,7,12.0,2450.11733118,2_ND,test,02,8,52.0,11110,kill,0.0,3300.0,2.066376024
539,2_7_12,7,12.0,2454.25820243,2_ND,test,02,8,53.0,11011,ignore,0.0,3200.0,2.37368109103
540,2_7_12,7,12.0,2456.80519982,2_ND,test,02,8,54.0,10101,kill,0.0,3100.0,0.79785549203
541,2_7_12,7,12.0,2459.78970486,2_ND,test,02,8,55.0,10011,kill,1.0,3200.0,1.20443578054
542,2_7_12,7,12.0,2463.0711308,2_ND,test,02,8,56.0,00101,kill,0.0,3100.0,1.49050712687
543,2_7_12,7,12.0,2465.58687111,2_ND,test,02,8,57.0,01000,ignore,0.0,3000.0,0.766913369753
544,2_7_12,7,12.0,2468.35263532,2_ND,test,02,8,58.0,01110,ignore,1.0,3100.0,0.990292239887
545,2_7_12,7,12.0,2471.54033204,2_ND,test,02,8,59.0,10100,kill,1.0,3200.0,1.44672278103
546,2_7_12,7,12.0,2474.46235437,2_ND,test,02,8,60.0,11011,kill,1.0,3300.0,1.14852507346
547,2_7_12,7,12.0,2477.49377181,2_ND,test,02,8,61.0,10010,ignore,1.0,3400.0,1.25227026497
548,2_7_12,7,12.0,2480.75958027,2_ND,test,02,8,62.0,11001,kill,0.0,3300.0,1.5220281611
549,2_7_12,7,12.0,2483.38469742,2_ND,test,02,8,63.0,11010,ignore,1.0,3400.0,0.859811258666
550,2_7_12,7,12.0,2486.93174516,2_ND,test,02,8,64.0,00011,kill,1.0,3500.0,1.80169779962
551,2_7_12,7,12.0,2490.96323604,2_ND,test,02,8,65.0,01100,kill,1.0,3600.0,2.28123157825
552,2_7_12,7,12.0,2493.77587352,2_ND,test,02,8,66.0,10000,ignore,0.0,3500.0,1.02667934179
553,2_7_12,7,12.0,2497.10414642,2_ND,test,02,8,67.0,01011,kill,1.0,3600.0,1.60233752138
554,2_7_12,7,12.0,2499.66679271,2_ND,test,02,9,0.0,10001,ignore,1.0,3700.0,0.818320109764
555,2_7_12,7,12.0,2502.99508101,2_ND,test,02,9,1.0,00101,kill,1.0,3800.0,1.58531013324
556,2_7_12,7,12.0,2507.18282072,2_ND,test,02,9,2.0,11110,ignore,1.0,3900.0,2.43317431696
557,2_7_12,7,12.0,2510.49550277,2_ND,test,02,9,3.0,00110,kill,1.0,4000.0,1.51717780904
558,2_7_12,7,12.0,2515.62074692,2_ND,test,02,9,4.0,10111,kill,1.0,4100.0,3.38381862512
559,2_7_12,7,12.0,2518.48337384,2_ND,test,02,9,5.0,00000,ignore,1.0,4200.0,1.11816539114
560,2_7_12,7,12.0,2521.31166984,2_ND,test,02,9,6.0,00111,ignore,0.0,4100.0,1.03172469577
561,2_7_12,7,12.0,2524.21805256,2_ND,test,02,9,7.0,01010,ignore,0.0,4000.0,1.14995872245
562,2_7_12,7,12.0,2526.9213504,2_ND,test,02,9,8.0,01101,ignore,1.0,4100.0,0.92635502281
563,2_7_12,7,12.0,2529.73399717,2_ND,test,02,9,9.0,01111,kill,0.0,4000.0,1.08208458337
564,2_7_12,7,12.0,2532.54660193,2_ND,test,02,9,10.0,10101,ignore,0.0,3900.0,1.02095661272
565,2_7_12,7,12.0,2535.4217805,2_ND,test,02,9,11.0,00001,kill,0.0,3800.0,1.082086187
566,2_7_12,7,12.0,2541.12518514,2_ND,test,02,9,12.0,11101,kill,0.0,3700.0,3.9583225088
567,2_7_12,7,12.0,2543.8440873,2_ND,test,02,9,13.0,10110,ignore,0.0,3600.0,0.940170010887
568,2_7_12,7,12.0,2548.0317959,2_ND,test,02,9,14.0,11000,ignore,0.0,3500.0,2.46344195069
569,2_7_12,7,12.0,2551.81637875,2_ND,test,02,9,15.0,10011,ignore,1.0,3600.0,2.01050957722
570,2_7_12,7,12.0,2554.92594642,2_ND,test,02,9,16.0,11100,ignore,1.0,3700.0,1.31991861236
571,2_7_12,7,12.0,2558.70738102,2_ND,test,02,9,17.0,00010,ignore,1.0,3800.0,2.04270060983
572,2_7_12,7,12.0,2561.73879268,2_ND,test,02,9,18.0,01001,ignore,0.0,3700.0,1.23103750644
573,2_7_12,7,12.0,2565.08270872,2_ND,test,02,9,19.0,00100,ignore,0.0,3600.0,1.59655321275
574,2_7_12,7,12.0,2567.94220727,2_ND,test,02,9,20.0,01000,ignore,0.0,3500.0,1.08355319158
575,2_7_12,7,12.0,2570.9736324,2_ND,test,02,9,21.0,11111,kill,0.0,3400.0,1.26271601755
576,2_7_12,7,12.0,2573.92691245,2_ND,test,02,9,22.0,00011,ignore,1.0,3500.0,1.21218261673
577,2_7_12,7,12.0,2577.16144748,2_ND,test,02,9,23.0,10001,ignore,1.0,3600.0,1.49176886628
578,2_7_12,7,12.0,2582.50546551,2_ND,test,02,9,24.0,11100,kill,0.0,3500.0,3.55008470396
579,2_7_12,7,12.0,2585.47437938,2_ND,test,02,9,25.0,00000,ignore,1.0,3600.0,1.19658599104
580,2_7_12,7,12.0,2588.80265741,2_ND,test,02,9,26.0,11101,kill,0.0,3500.0,1.53059028492
581,2_7_12,7,12.0,2592.61539367,2_ND,test,02,9,27.0,01110,ignore,1.0,3600.0,2.08537716515
582,2_7_12,7,12.0,2595.25615908,2_ND,test,02,9,28.0,01101,kill,0.0,3500.0,0.847491178407
583,2_7_12,7,12.0,2598.52194221,2_ND,test,02,9,29.0,00010,kill,0.0,3400.0,1.49200460051
584,2_7_12,7,12.0,2601.08455835,2_ND,test,02,9,30.0,00001,kill,0.0,3300.0,0.807879168085
585,2_7_12,7,12.0,2603.78782733,2_ND,test,02,9,31.0,11011,ignore,0.0,3200.0,0.926285745809
586,2_7_12,7,12.0,2606.35046816,2_ND,test,02,9,32.0,01111,kill,0.0,3100.0,0.825612796743
