,unique_id,pair_id,sbj_id,wall_time,condition,block,rule_id,rule_num,trial,stimulus,choice,correct,points,reaction_time
0,3_1_5,1,5.0,4.55978091791,3_D,training,01,1_A,1.0,10001,ignore,1.0,100.0,1.64817227393
1,3_1_5,1,5.0,11.7789024599,3_D,training,01,1_A,2.0,11100,ignore,0.0,0.0,5.40185630283
2,3_1_5,1,5.0,16.8885762871,3_D,training,01,1_A,3.0,10101,kill,0.0,0.0,3.29929395192
3,3_1_5,1,5.0,21.0762630704,3_D,training,01,1_A,4.0,10011,ignore,1.0,100.0,2.37140296826
4,3_1_5,1,5.0,24.7483160237,3_D,training,01,1_A,5.0,00000,kill,0.0,0.0,1.86427962506
5,3_1_5,1,5.0,27.9985179213,3_D,training,01,1_A,6.0,01000,ignore,1.0,100.0,1.44273261837
6,3_1_5,1,5.0,32.6081048315,3_D,training,01,1_A,7.0,11110,kill,1.0,200.0,2.82240328321
7,3_1_5,1,5.0,35.9364284115,3_D,training,01,1_A,8.0,01111,ignore,0.0,100.0,1.51409402043
8,3_1_5,1,5.0,40.7347945007,3_D,training,01,1_A,9.0,01010,kill,0.0,0.0,3.01052176485
9,3_1_5,1,5.0,43.7349648066,3_D,training,01,1_A,10.0,01110,kill,0.0,0.0,1.2070554774
10,3_1_5,1,5.0,48.2195651072,3_D,training,01,1_A,11.0,00101,ignore,0.0,0.0,2.67544335675
11,3_1_5,1,5.0,53.2042013292,3_D,training,01,1_A,12.0,11010,ignore,0.0,0.0,3.19781437485
12,3_1_5,1,5.0,57.7669011821,3_D,training,01,1_A,13.0,00010,kill,0.0,0.0,2.76164318626
13,3_1_5,1,5.0,61.017119116,3_D,training,01,1_A,14.0,11000,ignore,0.0,0.0,1.46367800564
14,3_1_5,1,5.0,63.939154269,3_D,training,01,1_A,15.0,00001,ignore,0.0,0.0,1.12306609731
15,3_1_5,1,5.0,67.2049396424,3_D,training,01,1_A,16.0,10000,kill,1.0,100.0,1.46789909164
16,3_1_5,1,5.0,69.9082018834,3_D,training,01,1_A,17.0,01001,kill,1.0,200.0,0.902521169573
17,3_1_5,1,5.0,72.5645934242,3_D,training,01,1_A,18.0,10010,kill,1.0,300.0,0.889629233356
18,3_1_5,1,5.0,76.7523164496,3_D,training,01,1_A,19.0,00011,kill,1.0,400.0,2.39628271173
19,3_1_5,1,5.0,80.6743782229,3_D,training,01,1_A,20.0,10111,ignore,1.0,500.0,2.12129247786
20,3_1_5,1,5.0,84.4089584781,3_D,training,01,1_A,21.0,00100,kill,0.0,400.0,1.9373325405
21,3_1_5,1,5.0,87.5184713004,3_D,training,01,1_A,22.0,10100,ignore,0.0,300.0,1.32133558355
22,3_1_5,1,5.0,92.2687209862,3_D,training,01,1_A,23.0,01101,kill,1.0,400.0,2.95428936874
23,3_1_5,1,5.0,97.0346577428,3_D,training,01,1_A,24.0,00111,ignore,0.0,300.0,2.96838787935
24,3_1_5,1,5.0,100.59727549,3_D,training,01,1_A,25.0,01011,kill,1.0,400.0,1.7825930637
25,3_1_5,1,5.0,103.53491689,3_D,training,01,1_A,26.0,11001,kill,0.0,300.0,1.1567886006
26,3_1_5,1,5.0,109.56647577,3_D,training,01,1_A,27.0,10110,kill,1.0,400.0,4.22842967647
27,3_1_5,1,5.0,112.222977641,3_D,training,01,1_A,28.0,01100,kill,0.0,300.0,0.895437275773
28,3_1_5,1,5.0,114.629261257,3_D,training,01,1_A,29.0,11111,kill,0.0,200.0,0.6352299836
29,3_1_5,1,5.0,117.379431403,3_D,training,01,1_A,30.0,11101,kill,0.0,100.0,0.968599879794
30,3_1_5,1,5.0,120.348318654,3_D,training,01,1_A,31.0,00110,kill,0.0,0.0,1.18440638914
31,3_1_5,1,5.0,122.989067063,3_D,training,01,1_A,32.0,11011,kill,0.0,0.0,0.871821516794
32,3_1_5,1,5.0,126.192379979,3_D,training,01,1_A,33.0,01000,kill,0.0,0.0,1.41956523552
33,3_1_5,1,5.0,129.348777935,3_D,training,01,1_A,34.0,10000,kill,1.0,100.0,1.37702755493
34,3_1_5,1,5.0,132.723942708,3_D,training,01,1_A,35.0,00111,ignore,0.0,0.0,1.59175129045
35,3_1_5,1,5.0,139.849324132,3_D,training,01,1_A,36.0,00010,kill,0.0,0.0,5.36693556405
36,3_1_5,1,5.0,142.771346456,3_D,training,01,1_A,37.0,01101,kill,1.0,100.0,1.13973619576
37,3_1_5,1,5.0,149.3966833,3_D,training,01,1_A,38.0,00110,ignore,1.0,200.0,4.83643732773
38,3_1_5,1,5.0,154.584490676,3_D,training,01,1_A,39.0,00001,kill,1.0,300.0,3.38958978395
39,3_1_5,1,5.0,159.615961036,3_D,training,01,1_A,40.0,00000,kill,0.0,200.0,3.2339009557
40,3_1_5,1,5.0,165.085011537,3_D,training,01,1_A,41.0,11111,ignore,1.0,300.0,3.68509242385
41,3_1_5,1,5.0,168.803957962,3_D,training,01,1_A,42.0,01110,kill,0.0,200.0,1.93393379813
42,3_1_5,1,5.0,171.897837595,3_D,training,01,1_A,43.0,00011,kill,1.0,300.0,1.29350162512
43,3_1_5,1,5.0,179.835762839,3_D,training,01,1_A,44.0,01100,kill,0.0,200.0,6.16029606936
44,3_1_5,1,5.0,190.664486045,3_D,training,01,1_A,45.0,11001,kill,0.0,100.0,9.0275815464
45,3_1_5,1,5.0,193.773996622,3_D,training,01,1_A,46.0,11011,kill,0.0,0.0,1.33896978689
46,3_1_5,1,5.0,197.930468986,3_D,training,01,1_A,47.0,10111,kill,0.0,0.0,2.37937399252
47,3_1_5,1,5.0,200.868107179,3_D,training,01,1_A,48.0,10001,ignore,1.0,100.0,1.16211779784
48,3_1_5,1,5.0,205.07145762,3_D,training,01,1_A,49.0,01001,kill,1.0,200.0,2.41819092099
49,3_1_5,1,5.0,212.478091791,3_D,training,01,1_A,50.0,00101,ignore,0.0,100.0,5.62287654775
50,3_1_5,1,5.0,216.743956704,3_D,training,01,1_A,51.0,01011,kill,1.0,200.0,2.49655795951
51,3_1_5,1,5.0,225.056866473,3_D,training,01,1_A,52.0,11101,kill,0.0,100.0,6.52251759026
52,3_1_5,1,5.0,240.354562243,3_D,training,01,1_A,53.0,11000,ignore,0.0,0.0,13.5193423945
53,3_1_5,1,5.0,245.933097984,3_D,training,01,1_A,54.0,11110,kill,1.0,100.0,3.83222554281
54,3_1_5,1,5.0,251.136362149,3_D,training,01,1_A,55.0,01111,ignore,0.0,0.0,3.42756961536
55,3_1_5,1,5.0,254.449039712,3_D,training,01,1_A,56.0,11100,kill,1.0,100.0,1.54375900841
56,3_1_5,1,5.0,260.699310886,3_D,training,01,1_A,57.0,00100,ignore,1.0,200.0,4.46378993931
57,3_1_5,1,5.0,268.434139384,3_D,training,01,1_A,58.0,10011,kill,0.0,100.0,5.95317965386
58,3_1_5,1,5.0,272.356208855,3_D,training,01,1_A,59.0,10100,kill,1.0,200.0,2.15021883192
59,3_1_5,1,5.0,276.418898124,3_D,training,01,1_A,60.0,10010,kill,1.0,300.0,2.27769973425
60,3_1_5,1,5.0,281.075420842,3_D,training,01,1_A,61.0,01010,kill,0.0,200.0,2.8804240522
61,3_1_5,1,5.0,283.903691823,3_D,training,01,1_A,62.0,11010,ignore,0.0,100.0,1.07509145526
62,3_1_5,1,5.0,295.357381432,3_D,training,01,1_A,63.0,10101,ignore,1.0,200.0,9.67878308538
63,3_1_5,1,5.0,298.857612997,3_D,training,01,1_A,64.0,10110,ignore,0.0,100.0,1.72388048692
64,3_1_5,1,5.0,301.201449814,3_D,training,01,1_A,65.0,10110,ignore,0.0,0.0,0.573052273987
65,3_1_5,1,5.0,309.686349673,3_D,training,01,1_A,66.0,01001,kill,1.0,100.0,6.70099534369
66,3_1_5,1,5.0,312.467716598,3_D,training,01,1_A,67.0,11110,kill,1.0,200.0,1.02793113866
67,3_1_5,1,5.0,315.28035407,3_D,training,01,1_A,68.0,00100,kill,0.0,100.0,1.01690102177
68,3_1_5,1,5.0,319.518079693,3_D,training,01,1_A,69.0,01011,ignore,0.0,0.0,2.47065060723
69,3_1_5,1,5.0,323.190150607,3_D,training,01,1_A,70.0,01101,ignore,0.0,0.0,1.89779461807
70,3_1_5,1,5.0,327.909131671,3_D,training,01,1_A,71.0,10111,ignore,1.0,100.0,2.92348612119
71,3_1_5,1,5.0,330.471804582,3_D,training,01,1_A,72.0,11100,kill,1.0,200.0,0.812190378325
72,3_1_5,1,5.0,342.194297284,3_D,training,01,1_A,73.0,01000,ignore,1.0,300.0,9.9553272408
73,3_1_5,1,5.0,345.053890769,3_D,training,01,1_A,74.0,10101,ignore,1.0,400.0,1.06842963798
74,3_1_5,1,5.0,347.975924639,3_D,training,01,1_A,75.0,01010,kill,0.0,300.0,1.16066041506
75,3_1_5,1,5.0,353.351197177,3_D,training,01,1_A,76.0,10100,kill,1.0,400.0,3.59277569198
76,3_1_5,1,5.0,358.538945861,3_D,training,01,1_A,77.0,00010,ignore,1.0,500.0,3.40568770571
77,3_1_5,1,5.0,362.164153451,3_D,training,01,1_A,78.0,11011,ignore,1.0,600.0,1.85798087057
78,3_1_5,1,5.0,366.070574338,3_D,training,01,1_A,79.0,01111,kill,1.0,700.0,2.14238892748
79,3_1_5,1,5.0,370.117691998,3_D,training,01,1_A,80.0,10011,ignore,1.0,800.0,2.29497311989
80,3_1_5,1,5.0,373.889843158,3_D,training,01,1_A,81.0,00111,kill,1.0,900.0,1.98512565116
81,3_1_5,1,5.0,378.81198351,3_D,training,01,1_A,82.0,11001,kill,0.0,800.0,3.15986565394
82,3_1_5,1,5.0,383.765372598,3_D,training,01,1_A,83.0,00110,ignore,1.0,900.0,3.16638121978
83,3_1_5,1,5.0,387.828062508,3_D,training,01,1_A,84.0,01100,kill,0.0,800.0,2.2685699239
84,3_1_5,1,5.0,392.73457352,3_D,training,01,1_A,85.0,11101,ignore,1.0,900.0,3.11894475737
85,3_1_5,1,5.0,396.687911613,3_D,training,01,1_A,86.0,11000,ignore,0.0,800.0,2.16689630708
86,3_1_5,1,5.0,399.781798303,3_D,training,01,1_A,87.0,00000,kill,0.0,700.0,1.32569522354
87,3_1_5,1,5.0,403.985162855,3_D,training,01,1_A,88.0,10000,kill,1.0,800.0,2.41505036374
88,3_1_5,1,5.0,408.266588473,3_D,training,01,1_A,89.0,11010,ignore,0.0,700.0,2.52410582959
89,3_1_5,1,5.0,411.844949739,3_D,training,01,1_A,90.0,00101,ignore,0.0,600.0,1.78863299163
90,3_1_5,1,5.0,415.329502893,3_D,training,01,1_A,91.0,11111,ignore,1.0,700.0,1.71570451821
91,3_1_5,1,5.0,423.126765361,3_D,training,01,1_A,92.0,00001,kill,1.0,800.0,6.00481699647
92,3_1_5,1,5.0,426.689453988,3_D,training,01,1_A,93.0,10010,kill,1.0,900.0,1.7908835319
93,3_1_5,1,5.0,431.142814532,3_D,training,01,1_A,94.0,10001,kill,0.0,800.0,2.67756336119
94,3_1_5,1,5.0,434.674240631,3_D,training,01,1_A,95.0,01110,ignore,1.0,900.0,1.76824278252
95,3_1_5,1,5.0,438.299454957,3_D,training,01,1_A,96.0,00011,ignore,0.0,800.0,1.83937229908
96,3_1_5,1,5.0,441.393360569,3_D,training,01,1_A,97.0,11111,ignore,1.0,900.0,1.32381448133
97,3_1_5,1,5.0,444.002853827,3_D,training,01,1_A,98.0,11110,ignore,0.0,800.0,0.846661778789
98,3_1_5,1,5.0,449.768784811,3_D,training,01,1_A,99.0,00101,kill,1.0,900.0,3.97818768807
99,3_1_5,1,5.0,452.690790136,3_D,training,01,1_A,100.0,01101,kill,1.0,1000.0,1.16056804573
100,3_1_5,1,5.0,455.425320679,3_D,training,01,1_A,101.0,00100,kill,0.0,900.0,0.935897608597
101,3_1_5,1,5.0,458.503839421,3_D,training,01,1_A,102.0,00000,kill,0.0,800.0,1.28098590149
102,3_1_5,1,5.0,461.738423525,3_D,training,01,1_A,103.0,01010,kill,0.0,700.0,1.47635473415
103,3_1_5,1,5.0,466.191747827,3_D,training,01,1_A,104.0,10100,ignore,0.0,600.0,2.65478726509
104,3_1_5,1,5.0,469.973221874,3_D,training,01,1_A,105.0,01110,ignore,1.0,700.0,2.01848220511
105,3_1_5,1,5.0,475.629757421,3_D,training,01,1_A,106.0,10000,kill,1.0,800.0,3.89600239647
106,3_1_5,1,5.0,477.848647078,3_D,training,01,1_A,107.0,01100,kill,0.0,700.0,0.440869195405
107,3_1_5,1,5.0,481.255049042,3_D,training,01,1_A,108.0,11011,kill,0.0,600.0,1.64691213816
108,3_1_5,1,5.0,484.145919489,3_D,training,01,1_A,109.0,10010,kill,1.0,700.0,1.1400700724
109,3_1_5,1,5.0,487.349103793,3_D,training,01,1_A,110.0,01011,ignore,0.0,600.0,1.44566758972
110,3_1_5,1,5.0,491.630585859,3_D,training,01,1_A,111.0,11001,ignore,1.0,700.0,2.50715605734
111,3_1_5,1,5.0,495.568296536,3_D,training,01,1_A,112.0,11010,kill,1.0,800.0,2.17267901208
112,3_1_5,1,5.0,500.881052677,3_D,training,01,1_A,113.0,10101,kill,0.0,700.0,3.54744544276
113,3_1_5,1,5.0,504.771862826,3_D,training,01,1_A,114.0,00001,kill,1.0,800.0,2.10652685542
114,3_1_5,1,5.0,508.537722288,3_D,training,01,1_A,115.0,10011,kill,0.0,700.0,1.99592676908
115,3_1_5,1,5.0,511.772278809,3_D,training,01,1_A,116.0,10110,ignore,0.0,600.0,1.47478253116
116,3_1_5,1,5.0,518.616370283,3_D,training,01,1_A,117.0,01000,kill,0.0,500.0,5.07074015417
117,3_1_5,1,5.0,522.663435664,3_D,training,01,1_A,118.0,01001,kill,1.0,600.0,2.28774682336
118,3_1_5,1,5.0,525.772984408,3_D,training,01,1_A,119.0,10111,ignore,1.0,700.0,1.32970206401
119,3_1_5,1,5.0,529.679451801,3_D,training,01,1_A,120.0,11000,kill,1.0,800.0,2.13159101683
120,3_1_5,1,5.0,533.070231161,3_D,training,01,1_A,121.0,00110,ignore,1.0,900.0,1.61968756074
121,3_1_5,1,5.0,537.13293807,3_D,training,01,1_A,122.0,00011,kill,1.0,1000.0,2.27287920978
122,3_1_5,1,5.0,540.211222681,3_D,training,01,1_A,123.0,00111,ignore,0.0,900.0,1.29081714144
123,3_1_5,1,5.0,544.070809752,3_D,training,01,1_A,124.0,11100,kill,1.0,1000.0,2.09447426135
124,3_1_5,1,5.0,547.39910158,3_D,training,01,1_A,125.0,01111,ignore,0.0,900.0,1.55255558357
125,3_1_5,1,5.0,550.758631561,3_D,training,01,1_A,126.0,00010,kill,0.0,800.0,1.59319873069
126,3_1_5,1,5.0,556.508953731,3_D,training,01,1_A,127.0,10001,kill,0.0,700.0,3.99234425023
127,3_1_5,1,5.0,560.993539278,3_D,training,01,1_A,128.0,11101,kill,0.0,600.0,2.71740052176
128,3_1_5,1,5.0,564.181237929,3_D,training,01,1_A,129.0,01101,kill,1.0,700.0,1.43035095856
129,3_1_5,1,5.0,570.540926349,3_D,training,01,1_A,130.0,01110,ignore,1.0,800.0,4.59634185376
130,3_1_5,1,5.0,573.650468678,3_D,training,01,1_A,131.0,10110,ignore,0.0,700.0,1.33715415223
131,3_1_5,1,5.0,580.541441116,3_D,training,01,1_A,132.0,00101,kill,1.0,800.0,5.12198813439
132,3_1_5,1,5.0,586.276119834,3_D,training,01,1_A,133.0,00001,ignore,0.0,700.0,3.94410436708
133,3_1_5,1,5.0,592.135807613,3_D,training,01,1_A,134.0,01000,ignore,1.0,800.0,4.09461570189
134,3_1_5,1,5.0,597.307962878,3_D,training,01,1_A,135.0,11011,kill,0.0,700.0,3.39979082195
135,3_1_5,1,5.0,605.105231119,3_D,training,01,1_A,136.0,11001,kill,0.0,600.0,6.02881762766
136,3_1_5,1,5.0,608.683531126,3_D,training,01,1_A,137.0,01010,ignore,1.0,700.0,1.81503522543
137,3_1_5,1,5.0,611.511815898,3_D,training,01,1_A,138.0,10001,ignore,1.0,800.0,1.0441339381
138,3_1_5,1,5.0,615.121363038,3_D,training,01,1_A,139.0,00111,ignore,0.0,700.0,1.84129313215
139,3_1_5,1,5.0,620.371636457,3_D,training,01,1_A,140.0,11100,ignore,0.0,600.0,3.47818127353
140,3_1_5,1,5.0,625.936507952,3_D,training,01,1_A,141.0,10011,kill,0.0,500.0,3.80851901814
141,3_1_5,1,5.0,629.327311687,3_D,training,01,1_A,142.0,10101,ignore,1.0,600.0,1.61240160903
142,3_1_5,1,5.0,636.265145844,3_D,training,01,1_A,143.0,10100,ignore,0.0,500.0,5.13771978609
143,3_1_5,1,5.0,640.48409708,3_D,training,01,1_A,144.0,10111,ignore,1.0,600.0,2.46406095349
144,3_1_5,1,5.0,645.921906862,3_D,training,01,1_A,145.0,00110,ignore,1.0,700.0,3.65102000758
145,3_1_5,1,5.0,650.14724409,3_D,training,01,1_A,146.0,00010,ignore,1.0,800.0,2.46998926848
146,3_1_5,1,5.0,653.33490714,3_D,training,01,1_A,147.0,01111,ignore,0.0,700.0,1.44186505226
147,3_1_5,1,5.0,656.288225669,3_D,training,01,1_A,148.0,11110,ignore,0.0,600.0,1.19152973234
148,3_1_5,1,5.0,662.366626063,3_D,training,01,1_A,149.0,01100,ignore,1.0,700.0,4.31065377601
149,3_1_5,1,5.0,668.804483954,3_D,training,01,1_A,150.0,11111,ignore,1.0,800.0,4.68765503134
150,3_1_5,1,5.0,672.617161516,3_D,training,01,1_A,151.0,01001,ignore,0.0,700.0,2.03951771663
151,3_1_5,1,5.0,677.123655593,3_D,training,01,1_A,152.0,11000,kill,1.0,800.0,2.74891610363
152,3_1_5,1,5.0,679.764413625,3_D,training,01,1_A,153.0,10000,kill,1.0,900.0,0.860035126007
153,3_1_5,1,5.0,683.51460141,3_D,training,01,1_A,154.0,11010,ignore,0.0,800.0,2.00183936845
154,3_1_5,1,5.0,687.936728291,3_D,training,01,1_A,155.0,01011,kill,1.0,900.0,2.6313780542
155,3_1_5,1,5.0,693.405748323,3_D,training,01,1_A,156.0,00100,kill,0.0,800.0,3.67440933341
156,3_1_5,1,5.0,696.734087298,3_D,training,01,1_A,157.0,10010,ignore,0.0,700.0,1.54855676127
157,3_1_5,1,5.0,702.453106528,3_D,training,01,1_A,158.0,11101,kill,0.0,600.0,3.94023640134
158,3_1_5,1,5.0,707.00022964,3_D,training,01,1_A,159.0,00000,kill,0.0,500.0,2.77078165622
159,3_1_5,1,5.0,710.187910971,3_D,training,01,1_A,160.0,00011,kill,1.0,600.0,1.40905084739
160,3_1_5,1,5.0,712.969294574,3_D,training,01,1_A,161.0,10110,ignore,0.0,500.0,0.999054176536
161,3_1_5,1,5.0,717.735132547,3_D,training,01,1_A,162.0,00111,ignore,0.0,400.0,2.98225835317
162,3_1_5,1,5.0,722.079169176,3_D,training,01,1_A,163.0,11101,kill,0.0,300.0,2.56272070016
163,3_1_5,1,5.0,725.563699879,3_D,training,01,1_A,164.0,01011,kill,1.0,400.0,1.71450467909
164,3_1_5,1,5.0,730.001444233,3_D,training,01,1_A,165.0,00100,kill,0.0,300.0,2.65169802413
165,3_1_5,1,5.0,732.814081063,3_D,training,01,1_A,166.0,00011,kill,1.0,400.0,1.02261412904
166,3_1_5,1,5.0,741.986395729,3_D,training,01,1_A,167.0,00010,ignore,1.0,500.0,7.40496639103
167,3_1_5,1,5.0,746.392918287,3_D,training,01,1_A,168.0,01101,kill,1.0,600.0,2.64673798349
168,3_1_5,1,5.0,752.268229633,3_D,training,01,1_A,169.0,10111,kill,0.0,500.0,4.09768088834
169,3_1_5,1,5.0,756.143409801,3_D,training,01,1_A,170.0,10010,ignore,0.0,400.0,2.10686490151
170,3_1_5,1,5.0,761.721813082,3_D,training,01,1_A,171.0,01100,kill,0.0,300.0,3.7882359318
171,3_1_5,1,5.0,766.440855404,3_D,training,01,1_A,172.0,10000,ignore,0.0,200.0,2.96156826446
172,3_1_5,1,5.0,775.456886935,3_D,training,01,1_A,173.0,01001,ignore,0.0,100.0,7.26504321153
173,3_1_5,1,5.0,785.285612707,3_D,training,01,1_A,174.0,00000,kill,0.0,0.0,8.04802756198
174,3_1_5,1,5.0,789.176429913,3_D,training,01,1_A,175.0,10011,ignore,1.0,100.0,2.12798412274
175,3_1_5,1,5.0,792.739150613,3_D,training,01,1_A,176.0,11001,kill,0.0,0.0,1.79303528829
176,3_1_5,1,5.0,796.833138011,3_D,training,01,1_A,177.0,01110,ignore,1.0,100.0,2.33666023289
177,3_1_5,1,5.0,800.130140049,3_D,training,01,1_A,178.0,01000,kill,0.0,0.0,1.52836828935
178,3_1_5,1,5.0,805.021014664,3_D,training,01,1_A,179.0,00001,kill,1.0,100.0,3.11365500953
179,3_1_5,1,5.0,808.224298394,3_D,training,01,1_A,180.0,00110,ignore,1.0,200.0,1.44331409614
180,3_1_5,1,5.0,811.47452595,3_D,training,01,1_A,181.0,11011,kill,0.0,100.0,1.49642485787
181,3_1_5,1,5.0,814.465053282,3_D,training,01,1_A,182.0,11111,ignore,1.0,200.0,1.26042538643
182,3_1_5,1,5.0,818.637147609,3_D,training,01,1_A,183.0,11010,ignore,0.0,100.0,2.42572351165
183,3_1_5,1,5.0,822.168566011,3_D,training,01,1_A,184.0,00101,kill,1.0,200.0,1.73427075375
184,3_1_5,1,5.0,837.356812783,3_D,training,01,1_A,185.0,10100,kill,1.0,300.0,13.4392918608
185,3_1_5,1,5.0,845.638608841,3_D,training,01,1_A,186.0,10001,kill,0.0,200.0,6.49066813174
186,3_1_5,1,5.0,851.107668322,3_D,training,01,1_A,187.0,10101,kill,0.0,100.0,3.69732398351
187,3_1_5,1,5.0,858.404890699,3_D,training,01,1_A,188.0,01010,ignore,1.0,200.0,5.55524712324
188,3_1_5,1,5.0,861.530052105,3_D,training,01,1_A,189.0,11110,ignore,0.0,100.0,1.35277483243
189,3_1_5,1,5.0,864.217690459,3_D,training,01,1_A,190.0,01111,ignore,0.0,0.0,0.921357457126
190,3_1_5,1,5.0,869.530462956,3_D,training,01,1_A,191.0,11100,kill,1.0,100.0,3.58059641081
191,3_1_5,1,5.0,872.077497869,3_D,training,01,1_A,192.0,11000,kill,1.0,200.0,0.77081629472
192,3_1_5,1,5.0,874.780774863,3_D,training,01,1_A,193.0,10000,kill,1.0,300.0,0.931417375312
193,3_1_5,1,5.0,878.5152852,3_D,training,01,1_A,194.0,10011,ignore,1.0,400.0,1.95644657749
194,3_1_5,1,5.0,882.999928478,3_D,training,01,1_A,195.0,01101,kill,1.0,500.0,2.72448505702
195,3_1_5,1,5.0,887.343885888,3_D,training,01,1_A,196.0,11000,kill,1.0,600.0,2.57274437622
196,3_1_5,1,5.0,893.875468181,3_D,training,01,1_A,197.0,10111,ignore,1.0,700.0,4.76384657967
197,3_1_5,1,5.0,897.391309842,3_D,training,01,1_A,198.0,00001,ignore,0.0,600.0,1.76182215184
198,3_1_5,1,5.0,901.469639676,3_D,training,01,1_A,199.0,01111,kill,1.0,700.0,2.31413141718
199,3_1_5,1,5.0,905.407350354,3_D,training,01,1_A,200.0,11010,ignore,0.0,600.0,2.19673833629
200,3_1_5,1,5.0,908.21998558,3_D,training,01,1_A,201.0,01010,ignore,1.0,700.0,1.04289529103
201,3_1_5,1,5.0,915.847647052,3_D,training,01,1_A,202.0,01100,kill,0.0,600.0,5.84780452853
202,3_1_5,1,5.0,919.925995167,3_D,training,01,1_A,203.0,00010,ignore,1.0,700.0,2.32961193976
203,3_1_5,1,5.0,924.41056981,3_D,training,01,1_A,204.0,10101,kill,0.0,600.0,2.70608303362
204,3_1_5,1,5.0,927.551384931,3_D,training,01,1_A,205.0,10100,kill,1.0,700.0,1.39638117488
205,3_1_5,1,5.0,930.707772302,3_D,training,01,1_A,206.0,00110,ignore,1.0,800.0,1.39572368484
206,3_1_5,1,5.0,934.301734042,3_D,training,01,1_A,207.0,10001,kill,0.0,700.0,1.81857348397
207,3_1_5,1,5.0,959.716510505,3_D,training,01,1_A,208.0,00100,ignore,1.0,800.0,22.9360287859
208,3_1_5,1,5.0,965.435550903,3_D,training,01,1_A,209.0,11111,ignore,1.0,900.0,3.93899133973
209,3_1_5,1,5.0,986.280388387,3_D,training,01,1_A,210.0,01001,kill,1.0,1000.0,19.0655774142
210,3_1_5,1,5.0,991.655658038,3_D,training,01,1_A,211.0,11101,kill,0.0,900.0,3.63222765961
211,3_1_5,1,5.0,998.781026634,3_D,training,01,1_A,212.0,00101,kill,1.0,1000.0,5.33973536187
212,3_1_5,1,5.0,1002.81247935,3_D,training,01,1_A,213.0,01000,kill,0.0,900.0,2.2907318281
213,3_1_5,1,5.0,1007.75024103,3_D,training,01,1_A,214.0,00011,ignore,0.0,800.0,3.14868415398
214,3_1_5,1,5.0,1010.20349284,3_D,training,01,1_A,215.0,11110,ignore,0.0,700.0,0.691990616819
215,3_1_5,1,5.0,1013.07867814,3_D,training,01,1_A,216.0,11011,ignore,1.0,800.0,1.13707769095
216,3_1_5,1,5.0,1015.68814446,3_D,training,01,1_A,217.0,10110,ignore,0.0,700.0,0.834196409272
217,3_1_5,1,5.0,1019.53210764,3_D,training,01,1_A,218.0,00111,ignore,0.0,600.0,2.08003321447
218,3_1_5,1,5.0,1021.76655897,3_D,training,01,1_A,219.0,01110,ignore,1.0,700.0,0.49210979891
219,3_1_5,1,5.0,1024.90736735,3_D,training,01,1_A,220.0,01011,ignore,0.0,600.0,1.38428464123
220,3_1_5,1,5.0,1026.92311408,3_D,training,01,1_A,221.0,10010,ignore,0.0,500.0,0.248416411207
221,3_1_5,1,5.0,1031.48584408,3_D,training,01,1_A,222.0,11001,kill,0.0,400.0,2.79711268866
222,3_1_5,1,5.0,1033.78509666,3_D,training,01,1_A,223.0,00000,kill,0.0,300.0,0.531549899642
223,3_1_5,1,5.0,1036.19147874,3_D,training,01,1_A,224.0,11100,kill,1.0,400.0,0.654183336446
224,3_1_5,1,5.0,1038.56659636,3_D,training,01,1_A,225.0,00100,kill,0.0,300.0,0.586975988463
225,3_1_5,1,5.0,1045.30136777,3_D,training,01,1_A,226.0,01101,ignore,0.0,200.0,4.97880540797
226,3_1_5,1,5.0,1047.70769372,3_D,training,01,1_A,227.0,10110,ignore,0.0,100.0,0.640113691254
227,3_1_5,1,5.0,1049.910955,3_D,training,01,1_A,228.0,11000,ignore,0.0,0.0,0.462131140073
228,3_1_5,1,5.0,1052.11423713,3_D,training,01,1_A,229.0,10100,ignore,0.0,0.0,0.452160704677
229,3_1_5,1,5.0,1056.67693249,3_D,training,01,1_A,230.0,00111,ignore,0.0,0.0,2.77706341218
230,3_1_5,1,5.0,1058.92703176,3_D,training,01,1_A,231.0,01010,ignore,1.0,100.0,0.496527490461
231,3_1_5,1,5.0,1061.94284968,3_D,training,01,1_A,232.0,00011,kill,1.0,200.0,1.23524351827
232,3_1_5,1,5.0,1065.17740075,3_D,training,01,1_A,233.0,11111,ignore,1.0,300.0,1.46484930008
233,3_1_5,1,5.0,1068.97442396,3_D,training,01,1_A,234.0,11001,kill,0.0,200.0,2.04535141719
234,3_1_5,1,5.0,1072.09962546,3_D,training,01,1_A,235.0,00000,kill,0.0,100.0,1.35356317902
235,3_1_5,1,5.0,1074.6934852,3_D,training,01,1_A,236.0,10000,kill,1.0,200.0,0.843077014855
236,3_1_5,1,5.0,1078.13118594,3_D,training,01,1_A,237.0,11101,ignore,1.0,300.0,1.64822455241
237,3_1_5,1,5.0,1080.70396399,3_D,training,01,1_A,238.0,11110,ignore,0.0,200.0,0.820667830263
238,3_1_5,1,5.0,1083.65717379,3_D,training,01,1_A,239.0,01011,kill,1.0,300.0,1.20395340737
239,3_1_5,1,5.0,1085.8916604,3_D,training,01,1_A,240.0,11100,kill,1.0,400.0,0.474655523336
240,3_1_5,1,5.0,1088.93870108,3_D,training,01,1_A,241.0,11010,ignore,0.0,300.0,1.31282990765
241,3_1_5,1,5.0,1092.73575604,3_D,training,01,1_A,242.0,00101,ignore,0.0,200.0,2.01916086311
242,3_1_5,1,5.0,1095.23585996,3_D,training,01,1_A,243.0,01110,ignore,1.0,300.0,0.7365748554
243,3_1_5,1,5.0,1097.47040589,3_D,training,01,1_A,244.0,00110,ignore,1.0,400.0,0.491338771579
244,3_1_5,1,5.0,1099.81424271,3_D,training,01,1_A,245.0,01000,ignore,1.0,500.0,0.584118633011
245,3_1_5,1,5.0,1104.50200101,3_D,training,01,1_A,246.0,10001,ignore,1.0,600.0,2.9034605785
246,3_1_5,1,5.0,1108.50220885,3_D,training,01,1_A,247.0,11011,ignore,1.0,700.0,2.24955402932
247,3_1_5,1,5.0,1111.09606154,3_D,training,01,1_A,248.0,00010,ignore,1.0,800.0,0.828781577966
248,3_1_5,1,5.0,1114.94003498,3_D,training,01,1_A,249.0,10101,kill,0.0,700.0,2.09199504284
249,3_1_5,1,5.0,1122.19040751,3_D,training,01,1_A,250.0,10010,kill,1.0,800.0,5.4699620067
250,3_1_5,1,5.0,1124.44139807,3_D,training,01,1_A,251.0,01100,kill,0.0,700.0,0.486718701388
251,3_1_5,1,5.0,1151.27091315,3_D,training,01,1_A,252.0,00001,ignore,0.0,600.0,24.3703346271
252,3_1_5,1,5.0,1157.77122233,3_D,training,01,1_A,253.0,10111,ignore,1.0,700.0,4.7085584034
253,3_1_5,1,5.0,1160.78699985,3_D,training,01,1_A,254.0,01111,kill,1.0,800.0,1.25113296758
254,3_1_5,1,5.0,1166.95921092,3_D,training,01,1_A,255.0,01001,ignore,0.0,700.0,4.43321504927
255,3_1_5,1,5.0,1172.28761148,3_D,training,01,1_A,256.0,10011,kill,0.0,600.0,3.58093573981
256,3_1_5,1,5.0,1174.75647435,3_D,training,01,1_A,257.0,00110,kill,0.0,500.0,0.682531740731
257,3_1_5,1,5.0,1176.94409314,3_D,training,01,1_A,258.0,11000,kill,1.0,600.0,0.439031751317
258,3_1_5,1,5.0,1180.78803612,3_D,training,01,1_A,259.0,11011,ignore,1.0,700.0,2.09314581076
259,3_1_5,1,5.0,1185.02264748,3_D,training,01,1_A,260.0,11001,ignore,1.0,800.0,2.51332363455
260,3_1_5,1,5.0,1187.99219255,3_D,training,01,1_A,261.0,10111,ignore,1.0,900.0,1.24460906284
261,3_1_5,1,5.0,1190.52358593,3_D,training,01,1_A,262.0,11111,ignore,1.0,1000.0,0.761914841893
262,3_1_5,1,5.0,1192.89868367,3_D,training,01,1_A,263.0,01100,ignore,1.0,1100.0,0.6360436676
263,3_1_5,1,5.0,1195.14879609,3_D,training,01,1_A,264.0,00100,ignore,1.0,1200.0,0.473213214718
264,3_1_5,1,5.0,1197.35203075,3_D,training,01,1_A,265.0,10110,ignore,0.0,1100.0,0.471409446945
265,3_1_5,1,5.0,1200.8834732,3_D,training,01,1_A,266.0,01101,kill,1.0,1200.0,1.69961301099
266,3_1_5,1,5.0,1203.75863765,3_D,training,01,1_A,267.0,00011,ignore,0.0,1100.0,1.10807275881
267,3_1_5,1,5.0,1207.07130111,3_D,training,01,1_A,268.0,00111,ignore,0.0,1000.0,1.55959457561
268,3_1_5,1,5.0,1209.3683442,3_D,training,01,1_A,269.0,11100,ignore,0.0,900.0,0.527603355829
269,3_1_5,1,5.0,1211.72782992,3_D,training,01,1_A,270.0,10000,ignore,0.0,800.0,0.618922947942
270,3_1_5,1,5.0,1220.7126621,3_D,training,01,1_A,271.0,00001,kill,1.0,900.0,7.19300315146
271,3_1_5,1,5.0,1223.04093148,3_D,training,01,1_A,272.0,10010,kill,1.0,1000.0,0.54679629163
272,3_1_5,1,5.0,1225.10661345,3_D,training,01,1_A,273.0,01000,kill,0.0,900.0,0.341729962111
273,3_1_5,1,5.0,1227.23169788,3_D,training,01,1_A,274.0,11110,kill,1.0,1000.0,0.376476866935
274,3_1_5,1,5.0,1229.2943182,3_D,training,01,1_A,275.0,10100,kill,1.0,1100.0,0.31429851587
275,3_1_5,1,5.0,1232.93512466,3_D,training,01,1_A,276.0,01111,kill,1.0,1200.0,1.88586293803
276,3_1_5,1,5.0,1237.1540807,3_D,training,01,1_A,277.0,10101,kill,0.0,1100.0,2.43212425728
277,3_1_5,1,5.0,1248.95157057,3_D,training,01,1_A,278.0,01010,ignore,1.0,1200.0,10.0697260159
278,3_1_5,1,5.0,1258.98338667,3_D,training,01,1_A,279.0,10001,kill,0.0,1100.0,8.29191402724
279,3_1_5,1,5.0,1261.29142588,3_D,training,01,1_A,280.0,01110,kill,0.0,1000.0,0.529787184911
280,3_1_5,1,5.0,1411.58045112,3_D,test,01,2,0.0,01001,ignore,0.0,0.0,29.3410657368
281,3_1_5,1,5.0,1426.83128645,3_D,test,01,2,1.0,00010,kill,1.0,100.0,13.5046710658
282,3_1_5,1,5.0,1437.73807489,3_D,test,01,2,2.0,00000,ignore,0.0,0.0,9.15541107881
283,3_1_5,1,5.0,1445.70722707,3_D,test,01,2,3.0,10011,kill,0.0,0.0,6.18864575656
284,3_1_5,1,5.0,1463.69256632,3_D,test,01,2,4.0,00101,ignore,1.0,100.0,16.2159229332
285,3_1_5,1,5.0,1471.98986118,3_D,test,01,2,5.0,11010,kill,0.0,0.0,6.53033338273
286,3_1_5,1,5.0,1479.80274177,3_D,test,01,2,6.0,11101,ignore,0.0,0.0,6.08044438629
287,3_1_5,1,5.0,1485.20930121,3_D,test,01,2,7.0,01011,ignore,0.0,0.0,3.67428553285
288,3_1_5,1,5.0,1499.99130959,3_D,test,01,2,8.0,11000,kill,0.0,0.0,13.0201374764
289,3_1_5,1,5.0,1505.21032336,3_D,test,01,2,9.0,11111,kill,1.0,100.0,3.47389026908
290,3_1_5,1,5.0,1515.49212295,3_D,test,01,2,10.0,11011,ignore,1.0,200.0,8.51612646645
291,3_1_5,1,5.0,1533.53990644,3_D,test,01,2,11.0,10010,kill,0.0,100.0,16.297647661
292,3_1_5,1,5.0,1545.90016639,3_D,test,01,2,12.0,00101,ignore,1.0,200.0,10.5593960457
293,3_1_5,1,5.0,1551.41608856,3_D,test,01,2,13.0,11100,kill,1.0,300.0,3.73568580059
294,3_1_5,1,5.0,1576.79240442,3_D,test,01,2,14.0,00011,kill,1.0,400.0,22.9194154561
295,3_1_5,1,5.0,1583.88650343,3_D,test,01,2,15.0,10110,kill,1.0,500.0,5.33167068537
296,3_1_5,1,5.0,1588.2304865,3_D,test,01,2,16.0,10111,kill,1.0,600.0,2.58688073259
297,3_1_5,1,5.0,1593.93393252,3_D,test,01,2,17.0,01101,ignore,1.0,700.0,3.93730848598
298,3_1_5,1,5.0,1599.62170942,3_D,test,01,3,0.0,01011,kill,0.0,600.0,3.91197715912
299,3_1_5,1,5.0,1605.75040011,3_D,test,01,3,1.0,00000,ignore,1.0,700.0,4.39358475752
300,3_1_5,1,5.0,1610.10997018,3_D,test,01,3,2.0,10011,kill,0.0,600.0,2.6313649044
301,3_1_5,1,5.0,1620.70427734,3_D,test,01,3,3.0,01111,ignore,1.0,700.0,8.8204866196
302,3_1_5,1,5.0,1626.03270516,3_D,test,01,3,4.0,00010,ignore,0.0,600.0,3.55637640246
303,3_1_5,1,5.0,1631.01753542,3_D,test,01,3,5.0,10100,kill,0.0,500.0,3.19380432712
304,3_1_5,1,5.0,1637.43976076,3_D,test,01,3,6.0,00001,kill,1.0,600.0,4.68044028098
305,3_1_5,1,5.0,1642.90877951,3_D,test,01,3,7.0,10101,kill,1.0,700.0,3.67243205242
306,3_1_5,1,5.0,1651.39360464,3_D,test,01,3,8.0,00110,ignore,0.0,600.0,6.71388792136
307,3_1_5,1,5.0,1659.87841566,3_D,test,01,3,9.0,01010,ignore,0.0,500.0,6.7454628377
308,3_1_5,1,5.0,1665.84746969,3_D,test,01,3,10.0,01001,ignore,0.0,400.0,4.19765625652
309,3_1_5,1,5.0,1670.64458623,3_D,test,01,3,11.0,11101,kill,1.0,500.0,3.05147537556
310,3_1_5,1,5.0,1680.00447574,3_D,test,01,3,12.0,01110,kill,1.0,600.0,7.58220645957
311,3_1_5,1,5.0,1685.27036375,3_D,test,01,3,13.0,01100,kill,0.0,500.0,3.48831880761
312,3_1_5,1,5.0,1695.13025262,3_D,test,01,3,14.0,11001,ignore,0.0,400.0,8.13119171191
313,3_1_5,1,5.0,1701.58373344,3_D,test,01,3,15.0,10000,kill,0.0,300.0,4.67098749871
314,3_1_5,1,5.0,1722.2722833,3_D,test,01,3,16.0,10001,ignore,0.0,200.0,18.9291341209
315,3_1_5,1,5.0,1727.06944506,3_D,test,01,3,17.0,01000,ignore,1.0,300.0,3.05315470131
316,3_1_5,1,5.0,1737.61684271,3_D,test,01,3,18.0,00111,ignore,1.0,400.0,8.76790088771
317,3_1_5,1,5.0,1742.33583885,3_D,test,01,3,19.0,00100,kill,0.0,300.0,2.97906840398
318,3_1_5,1,5.0,1752.24448783,3_D,test,01,3,20.0,11110,kill,1.0,400.0,8.17909290751
319,3_1_5,1,5.0,1760.02618799,3_D,test,01,3,21.0,11010,ignore,0.0,300.0,6.00555627184
320,3_1_5,1,5.0,1766.54209893,3_D,test,01,3,22.0,01100,kill,0.0,200.0,4.76044110204
321,3_1_5,1,5.0,1770.76106299,3_D,test,01,3,23.0,01110,kill,1.0,300.0,2.45439296351
322,3_1_5,1,5.0,1783.77742583,3_D,test,01,3,24.0,10011,kill,0.0,200.0,11.2587569654
323,3_1_5,1,5.0,1789.68404782,3_D,test,01,3,25.0,00010,ignore,0.0,100.0,4.12677722763
324,3_1_5,1,5.0,1795.5593582,3_D,test,01,3,26.0,11011,ignore,1.0,200.0,4.12656586863
325,3_1_5,1,5.0,1801.55968053,3_D,test,01,3,27.0,00101,kill,1.0,300.0,4.23921123006
326,3_1_5,1,5.0,1840.18670825,3_D,test,01,3,28.0,00100,kill,0.0,200.0,36.0800992842
327,3_1_5,1,5.0,1846.0307452,3_D,test,01,3,29.0,01000,ignore,1.0,300.0,4.10711987935
328,3_1_5,1,5.0,1852.76549415,3_D,test,01,3,30.0,01001,kill,1.0,400.0,4.95496674384
329,3_1_5,1,5.0,1857.17194102,3_D,test,01,3,31.0,10001,kill,1.0,500.0,2.6163930546
330,3_1_5,1,5.0,1864.42231643,3_D,test,01,3,32.0,11100,ignore,1.0,600.0,5.52644264538
331,3_1_5,1,5.0,1871.54770876,3_D,test,01,3,33.0,10010,ignore,0.0,500.0,5.36506668873
332,3_1_5,1,5.0,1878.54804232,3_D,test,01,3,34.0,00110,ignore,0.0,400.0,5.2514857671
333,3_1_5,1,5.0,1891.56432594,3_D,test,01,3,35.0,10111,kill,0.0,300.0,11.2444461336
334,3_1_5,1,5.0,1896.75214037,3_D,test,01,3,36.0,11111,ignore,1.0,400.0,3.4178576858
335,3_1_5,1,5.0,1907.54956064,3_D,test,01,3,37.0,11001,kill,1.0,500.0,9.05545367133
336,3_1_5,1,5.0,1915.15932202,3_D,test,01,3,38.0,10110,ignore,0.0,400.0,5.8785853252
337,3_1_5,1,5.0,1919.77858943,3_D,test,01,3,39.0,10000,kill,0.0,300.0,2.83820934354
338,3_1_5,1,5.0,1926.04451817,3_D,test,01,3,40.0,01011,ignore,1.0,400.0,4.51482046673
339,3_1_5,1,5.0,1929.38848039,3_D,test,01,3,41.0,01111,ignore,1.0,500.0,1.57048902505
340,3_1_5,1,5.0,1932.32614232,3_D,test,01,3,42.0,00111,ignore,1.0,600.0,1.18708991064
341,3_1_5,1,5.0,1935.65443254,3_D,test,01,3,43.0,10101,ignore,0.0,500.0,1.53795802199
342,3_1_5,1,5.0,1942.4985362,3_D,test,01,3,44.0,11010,kill,1.0,600.0,5.09921235901
343,3_1_5,1,5.0,1949.57701678,3_D,test,01,3,45.0,11000,kill,0.0,500.0,5.34087490434
344,3_1_5,1,5.0,1955.85865279,3_D,test,01,3,46.0,11101,ignore,0.0,400.0,4.51413571492
345,3_1_5,1,5.0,1962.78094613,3_D,test,01,3,47.0,10100,kill,0.0,300.0,5.17918303175
346,3_1_5,1,5.0,1966.90614699,3_D,test,01,3,48.0,00000,ignore,1.0,400.0,2.34321845539
347,3_1_5,1,5.0,1969.53130326,3_D,test,01,3,49.0,00001,ignore,0.0,300.0,0.839378392888
348,3_1_5,1,5.0,1974.281543,3_D,test,01,3,50.0,00011,kill,0.0,200.0,2.98904332955
349,3_1_5,1,5.0,1979.42243831,3_D,test,01,3,51.0,01010,ignore,0.0,100.0,3.37097896738
350,3_1_5,1,5.0,1994.6358121,3_D,test,01,3,52.0,01101,ignore,0.0,0.0,13.4734457417
351,3_1_5,1,5.0,1999.5112248,3_D,test,01,3,53.0,11110,kill,1.0,100.0,3.1414177666
352,3_1_5,1,5.0,2005.48016818,3_D,test,01,3,54.0,01100,ignore,1.0,200.0,4.19751353307
353,3_1_5,1,5.0,2009.18346441,3_D,test,01,3,55.0,00010,ignore,0.0,100.0,1.96331494286
354,3_1_5,1,5.0,2014.23196505,3_D,test,01,3,56.0,11101,ignore,0.0,0.0,3.30818706586
355,3_1_5,1,5.0,2016.96651034,3_D,test,01,4,0.0,10100,ignore,0.0,0.0,0.948556376403
356,3_1_5,1,5.0,2021.20111048,3_D,test,01,4,1.0,11000,kill,1.0,100.0,2.49420190012
357,3_1_5,1,5.0,2028.32643835,3_D,test,01,4,2.0,10111,ignore,0.0,0.0,5.33596072764
358,3_1_5,1,5.0,2032.48292033,3_D,test,01,4,3.0,11100,kill,0.0,0.0,2.42340465657
359,3_1_5,1,5.0,2034.87368879,3_D,test,01,4,4.0,10110,kill,1.0,100.0,0.661350298498
360,3_1_5,1,5.0,2038.28011128,3_D,test,01,4,5.0,10011,ignore,1.0,200.0,1.63457345575
361,3_1_5,1,5.0,2041.90526723,3_D,test,01,4,6.0,10101,kill,1.0,300.0,1.86407179406
362,3_1_5,1,5.0,2046.43678185,3_D,test,01,4,7.0,11010,ignore,0.0,200.0,2.77208124139
363,3_1_5,1,5.0,2048.968122,3_D,test,01,4,8.0,11001,ignore,0.0,100.0,0.812579740712
364,3_1_5,1,5.0,2051.51522747,3_D,test,01,4,9.0,00101,ignore,0.0,0.0,0.76310409703
365,3_1_5,1,5.0,2055.09350695,3_D,test,01,4,10.0,11011,kill,1.0,100.0,1.81158420459
366,3_1_5,1,5.0,2063.85968874,3_D,test,01,4,11.0,01111,ignore,1.0,200.0,7.01928722949
367,3_1_5,1,5.0,2068.25054315,3_D,test,01,4,12.0,00000,ignore,1.0,300.0,2.61126687745
368,3_1_5,1,5.0,2071.12571209,3_D,test,01,4,13.0,01101,ignore,1.0,400.0,1.13044666345
369,3_1_5,1,5.0,2074.39150067,3_D,test,01,4,14.0,11110,kill,0.0,300.0,1.49983450495
370,3_1_5,1,5.0,2082.15755065,3_D,test,01,4,15.0,01000,kill,1.0,400.0,5.99858495317
371,3_1_5,1,5.0,2087.76721421,3_D,test,01,4,16.0,00111,ignore,0.0,300.0,3.87461248179
372,3_1_5,1,5.0,2090.28296511,3_D,test,01,4,17.0,01001,ignore,0.0,200.0,0.732723567457
373,3_1_5,1,5.0,2092.62685581,3_D,test,01,4,18.0,00100,ignore,0.0,100.0,0.590649914462
374,3_1_5,1,5.0,2095.76761352,3_D,test,01,4,19.0,11111,ignore,1.0,200.0,1.38353061242
375,3_1_5,1,5.0,2099.17404435,3_D,test,01,4,20.0,10000,kill,0.0,100.0,1.61397509492
376,3_1_5,1,5.0,2102.40862011,3_D,test,01,4,21.0,00001,ignore,1.0,200.0,1.49264573347
377,3_1_5,1,5.0,2106.84632213,3_D,test,01,4,22.0,10001,kill,0.0,100.0,2.69663859024
378,3_1_5,1,5.0,2114.72173065,3_D,test,01,4,23.0,01110,kill,0.0,0.0,6.11404244756
379,3_1_5,1,5.0,2117.70628509,3_D,test,01,4,24.0,00011,ignore,1.0,100.0,1.20927907661
380,3_1_5,1,5.0,2121.01893475,3_D,test,01,4,25.0,01011,ignore,0.0,0.0,1.53527097249
381,3_1_5,1,5.0,2124.97225681,3_D,test,01,4,26.0,01010,ignore,0.0,0.0,2.22572402481
382,3_1_5,1,5.0,2127.40992258,3_D,test,01,4,27.0,00110,ignore,0.0,0.0,0.654628505305
383,3_1_5,1,5.0,2129.61311811,3_D,test,01,4,28.0,10010,ignore,1.0,100.0,0.427296997546
384,3_1_5,1,5.0,2133.20704329,3_D,test,01,4,29.0,11011,kill,1.0,200.0,1.87535560589
385,3_1_5,1,5.0,2136.61656849,3_D,test,01,4,30.0,10100,kill,1.0,300.0,1.64641340792
386,3_1_5,1,5.0,2139.50732925,3_D,test,01,4,31.0,00111,kill,1.0,400.0,1.13332646978
387,3_1_5,1,5.0,2147.21086956,3_D,test,01,4,32.0,01011,ignore,0.0,300.0,5.92561638889
388,3_1_5,1,5.0,2150.03912803,3_D,test,01,4,33.0,10110,kill,1.0,400.0,1.05135414081
389,3_1_5,1,5.0,2152.88820938,3_D,test,01,4,34.0,11001,kill,1.0,500.0,1.12179890555
390,3_1_5,1,5.0,2155.31022496,3_D,test,01,4,35.0,00101,kill,1.0,600.0,0.643395689047
391,3_1_5,1,5.0,2158.3260182,3_D,test,01,4,36.0,11010,ignore,0.0,500.0,1.30732110338
392,3_1_5,1,5.0,2161.5449271,3_D,test,01,4,37.0,00011,kill,0.0,400.0,1.47868289031
393,3_1_5,1,5.0,2164.90451,3_D,test,01,4,38.0,10010,ignore,1.0,500.0,1.58697117756
394,3_1_5,1,5.0,2168.26404832,3_D,test,01,4,39.0,10001,kill,0.0,400.0,1.61068123023
395,3_1_5,1,5.0,2184.71799868,3_D,test,01,4,40.0,01100,ignore,1.0,500.0,14.7217729908
396,3_1_5,1,5.0,2187.78066036,3_D,test,01,4,41.0,11111,kill,0.0,400.0,1.28154332475
397,3_1_5,1,5.0,2190.5308071,3_D,test,01,4,42.0,01010,kill,1.0,500.0,0.997603208296
398,3_1_5,1,5.0,2194.4217372,3_D,test,01,4,43.0,11100,ignore,1.0,600.0,2.12391121254
399,3_1_5,1,5.0,2196.90625924,3_D,test,01,4,44.0,01101,ignore,1.0,700.0,0.750935720567
400,3_1_5,1,5.0,2199.67206097,3_D,test,01,4,45.0,01001,kill,1.0,800.0,1.01730353396
401,3_1_5,1,5.0,2202.67859963,3_D,test,01,4,46.0,01111,ignore,1.0,900.0,1.23093230803
402,3_1_5,1,5.0,2205.50729108,3_D,test,01,4,47.0,00001,kill,0.0,800.0,1.09381612987
403,3_1_5,1,5.0,2210.4294093,3_D,test,01,4,48.0,11110,kill,0.0,700.0,3.16154594188
404,3_1_5,1,5.0,2213.44522402,3_D,test,01,4,49.0,01110,ignore,1.0,800.0,1.29003264358
405,3_1_5,1,5.0,2216.11722855,3_D,test,01,4,50.0,00100,ignore,0.0,700.0,0.876241132704
406,3_1_5,1,5.0,2221.28938285,3_D,test,01,4,51.0,00010,ignore,1.0,800.0,3.39200774363
407,3_1_5,1,5.0,2224.11763298,3_D,test,01,4,52.0,11101,kill,0.0,700.0,1.08648367276
408,3_1_5,1,5.0,2232.02441341,3_D,test,01,4,53.0,00000,ignore,1.0,800.0,6.11272297732
409,3_1_5,1,5.0,2234.85648147,3_D,test,01,4,54.0,10000,kill,0.0,700.0,1.10479717555
410,3_1_5,1,5.0,2245.37264611,3_D,test,01,4,55.0,10011,ignore,1.0,800.0,8.74780157785
411,3_1_5,1,5.0,2248.53217468,3_D,test,01,4,56.0,00110,kill,1.0,900.0,1.38247638328
412,3_1_5,1,5.0,2251.28238652,3_D,test,01,4,57.0,10101,ignore,0.0,800.0,0.982337572703
413,3_1_5,1,5.0,2254.75129782,3_D,test,01,4,58.0,01000,ignore,0.0,700.0,1.6856604311
414,3_1_5,1,5.0,2258.5641428,3_D,test,01,4,59.0,11000,kill,1.0,800.0,2.0900350811
415,3_1_5,1,5.0,2262.67371656,3_D,test,01,4,60.0,10111,ignore,0.0,700.0,2.3408505291
416,3_1_5,1,5.0,2265.83009303,3_D,test,01,4,61.0,11111,kill,0.0,600.0,1.3807669092
417,3_1_5,1,5.0,2273.33051639,3_D,test,01,4,62.0,11100,kill,0.0,500.0,5.75740574319
418,3_1_5,1,5.0,2280.69025003,3_D,test,01,4,63.0,10011,ignore,1.0,600.0,5.61127040544
419,3_1_5,1,5.0,2283.21952213,3_D,test,01,4,64.0,01001,ignore,0.0,500.0,0.757831026986
420,3_1_5,1,5.0,2287.53224042,3_D,test,01,4,65.0,10100,ignore,0.0,400.0,2.55885209297
421,3_1_5,1,5.0,2291.14183054,3_D,test,01,4,66.0,01101,kill,0.0,300.0,1.82187825337
422,3_1_5,1,5.0,2294.84512389,3_D,test,01,4,67.0,00101,ignore,0.0,200.0,1.95627402645
423,3_1_5,1,5.0,2301.28291539,3_D,test,01,4,68.0,00000,ignore,1.0,300.0,4.65985635286
424,3_1_5,1,5.0,2304.87688194,3_D,test,01,4,69.0,00001,ignore,1.0,400.0,1.81321862859
425,3_1_5,1,5.0,2308.87707759,3_D,test,01,4,70.0,11101,kill,0.0,300.0,2.25235076741
426,3_1_5,1,5.0,2311.76797081,3_D,test,01,4,71.0,00010,kill,0.0,200.0,1.12772144745
427,3_1_5,1,5.0,2314.65864593,3_D,test,01,4,72.0,10111,kill,1.0,300.0,1.1552019649
428,3_1_5,1,5.0,2318.44008887,3_D,test,01,4,73.0,10000,ignore,1.0,400.0,2.02822300009
429,3_1_5,1,5.0,2326.83116586,3_D,test,01,4,74.0,01011,kill,1.0,500.0,6.62566334329
430,3_1_5,1,5.0,2329.45630193,3_D,test,01,4,75.0,10101,ignore,0.0,400.0,0.867921478373
431,3_1_5,1,5.0,2332.45806272,3_D,test,01,4,76.0,01000,ignore,0.0,300.0,1.23248013578
432,3_1_5,1,5.0,2336.42703657,3_D,test,01,4,77.0,11001,ignore,0.0,200.0,2.24734550427
433,3_1_5,1,5.0,2339.8334241,3_D,test,01,4,78.0,00011,ignore,1.0,300.0,1.64416126402
434,3_1_5,1,5.0,2345.08372061,3_D,test,01,4,79.0,10010,ignore,1.0,400.0,3.48100623557
435,3_1_5,1,5.0,2347.61507551,3_D,test,01,4,80.0,10110,ignore,0.0,300.0,0.796235180016
436,3_1_5,1,5.0,2352.64658436,3_D,test,01,4,81.0,01111,ignore,1.0,400.0,3.28482403963
437,3_1_5,1,5.0,2355.92803627,3_D,test,01,4,82.0,11011,kill,1.0,500.0,1.51846456514
438,3_1_5,1,5.0,2358.97571168,3_D,test,01,4,83.0,01010,ignore,0.0,400.0,1.31325968162
439,3_1_5,1,5.0,2363.00720128,3_D,test,01,4,84.0,00111,ignore,0.0,300.0,2.24328798897
440,3_1_5,1,5.0,2369.49193789,3_D,test,01,4,85.0,01100,ignore,1.0,400.0,4.73663194478
441,3_1_5,1,5.0,2372.55454794,3_D,test,01,4,86.0,11110,kill,0.0,300.0,1.3448673121
442,3_1_5,1,5.0,2379.17991653,3_D,test,01,4,87.0,00110,ignore,0.0,200.0,4.8332230033
443,3_1_5,1,5.0,2381.96128635,3_D,test,01,4,88.0,11010,kill,1.0,300.0,1.06110006741
444,3_1_5,1,5.0,2384.49268005,3_D,test,01,4,89.0,00100,kill,1.0,400.0,0.745361167294
445,3_1_5,1,5.0,2386.63341531,3_D,test,01,4,90.0,11000,kill,1.0,500.0,0.42890640485
446,3_1_5,1,5.0,2389.75858538,3_D,test,01,4,91.0,10001,ignore,1.0,600.0,1.33084288939
447,3_1_5,1,5.0,2392.52437556,3_D,test,01,4,92.0,01110,kill,0.0,500.0,1.01242303358
448,3_1_5,1,5.0,2398.14966013,3_D,test,01,4,93.0,11111,kill,0.0,400.0,3.89282238981
449,3_1_5,1,5.0,2402.88423525,3_D,test,01,4,94.0,01110,ignore,1.0,500.0,2.96600070945
450,3_1_5,1,5.0,2406.33755121,3_D,test,01,4,95.0,11110,ignore,1.0,600.0,1.74289926804
451,3_1_5,1,5.0,2409.79085916,3_D,test,01,4,96.0,00011,kill,0.0,500.0,1.67914197872
452,3_1_5,1,5.0,2418.18190568,3_D,test,01,4,97.0,11000,kill,1.0,600.0,6.61893289048
453,3_1_5,1,5.0,2424.86976758,3_D,test,01,4,98.0,11001,kill,1.0,700.0,4.95017123607
454,3_1_5,1,5.0,2431.0106956,3_D,test,01,4,99.0,10011,ignore,1.0,800.0,4.35510747877
455,3_1_5,1,5.0,2436.62039091,3_D,test,01,4,100.0,01011,kill,1.0,900.0,3.89079154744
456,3_1_5,1,5.0,2449.38668015,3_D,test,01,5,0.0,10100,ignore,1.0,1000.0,11.0042611769
457,3_1_5,1,5.0,2454.3400609,3_D,test,01,5,1.0,10111,ignore,1.0,1100.0,3.17090026101
458,3_1_5,1,5.0,2460.82473753,3_D,test,01,5,2.0,11010,kill,1.0,1200.0,4.77938194654
459,3_1_5,1,5.0,2468.32515191,3_D,test,01,5,3.0,10000,kill,0.0,1100.0,5.75394926999
460,3_1_5,1,5.0,2481.93523948,3_D,test,01,5,4.0,01001,kill,1.0,1200.0,11.8224032832
461,3_1_5,1,5.0,2488.26370289,3_D,test,01,5,5.0,10110,ignore,0.0,1100.0,4.57214814501
462,3_1_5,1,5.0,2492.21708621,3_D,test,01,5,6.0,00101,ignore,0.0,1000.0,2.17645845721
463,3_1_5,1,5.0,2497.60788674,3_D,test,01,5,7.0,11011,kill,0.0,900.0,3.67393177114
464,3_1_5,1,5.0,2505.56462774,3_D,test,01,5,8.0,10101,ignore,0.0,800.0,6.18724065226
465,3_1_5,1,5.0,2510.25233024,3_D,test,01,5,9.0,10010,ignore,0.0,700.0,2.90277069506
466,3_1_5,1,5.0,2513.06498118,3_D,test,01,5,10.0,00000,ignore,1.0,800.0,1.04883290709
467,3_1_5,1,5.0,2515.75261056,3_D,test,01,5,11.0,00001,ignore,0.0,700.0,0.900595525603
468,3_1_5,1,5.0,2518.36213749,3_D,test,01,5,12.0,00100,ignore,1.0,800.0,0.856278773208
469,3_1_5,1,5.0,2523.243644,3_D,test,01,5,13.0,00110,kill,1.0,900.0,3.10880754401
470,3_1_5,1,5.0,2525.9625468,3_D,test,01,5,14.0,00111,kill,0.0,800.0,0.93350787288
471,3_1_5,1,5.0,2529.96273282,3_D,test,01,5,15.0,11100,ignore,1.0,900.0,2.26441394546
472,3_1_5,1,5.0,2533.49734983,3_D,test,01,5,16.0,01010,kill,1.0,1000.0,1.76391585667
473,3_1_5,1,5.0,2537.84129121,3_D,test,01,5,17.0,10001,kill,1.0,1100.0,2.60476478214
474,3_1_5,1,5.0,2541.82591107,3_D,test,01,5,18.0,00010,kill,1.0,1200.0,2.23522555757
475,3_1_5,1,5.0,2544.79477844,3_D,test,01,5,19.0,01000,ignore,1.0,1300.0,1.19994945345
476,3_1_5,1,5.0,2549.85756296,3_D,test,01,6,0.0,01111,kill,1.0,1400.0,3.32804069895
477,3_1_5,1,5.0,2553.65463716,3_D,test,01,6,1.0,01101,kill,1.0,1500.0,2.05726417436
478,3_1_5,1,5.0,2561.28004136,3_D,test,01,6,2.0,11101,kill,0.0,1400.0,5.83689051476
