,unique_id,pair_id,sbj_id,wall_time,condition,block,rule_id,rule_num,trial,stimulus,choice,correct,points,reaction_time
0,1_1_1,1,1.0,103.408683294,1_I,training,01,1_A,1.0,10100,kill,1.0,100.0,8.304611603
1,1_1_1,1,1.0,107.502579285,1_I,training,01,1_A,2.0,00100,kill,0.0,0.0,2.26611187337
2,1_1_1,1,1.0,112.784089254,1_I,training,01,1_A,3.0,11100,kill,1.0,100.0,3.46789107347
3,1_1_1,1,1.0,115.862457576,1_I,training,01,1_A,4.0,01101,ignore,0.0,0.0,1.25199604351
4,1_1_1,1,1.0,119.597024681,1_I,training,01,1_A,5.0,00000,ignore,1.0,100.0,1.90220172564
5,1_1_1,1,1.0,122.831508718,1_I,training,01,1_A,6.0,11011,ignore,1.0,200.0,1.41436849847
6,1_1_1,1,1.0,126.4098594,1_I,training,01,1_A,7.0,00111,ignore,0.0,100.0,1.77016457777
7,1_1_1,1,1.0,130.425682138,1_I,training,01,1_A,8.0,01000,ignore,1.0,200.0,2.19178438945
8,1_1_1,1,1.0,134.364756546,1_I,training,01,1_A,9.0,10110,kill,1.0,300.0,2.12380344833
9,1_1_1,1,1.0,137.568108911,1_I,training,01,1_A,10.0,00011,ignore,0.0,200.0,1.38737420291
10,1_1_1,1,1.0,141.662062312,1_I,training,01,1_A,11.0,10000,ignore,0.0,100.0,2.27273680706
11,1_1_1,1,1.0,144.601863487,1_I,training,01,1_A,12.0,11110,kill,1.0,200.0,1.13872109529
12,1_1_1,1,1.0,149.883588985,1_I,training,01,1_A,13.0,00101,ignore,0.0,100.0,3.45759477959
13,1_1_1,1,1.0,153.671052606,1_I,training,01,1_A,14.0,00110,kill,0.0,0.0,1.97849302002
14,1_1_1,1,1.0,157.30193642,1_I,training,01,1_A,15.0,01001,ignore,0.0,0.0,1.83274447885
15,1_1_1,1,1.0,161.161534075,1_I,training,01,1_A,16.0,10111,kill,0.0,0.0,2.06023538785
16,1_1_1,1,1.0,165.239937997,1_I,training,01,1_A,17.0,01010,kill,0.0,0.0,2.3038338404
17,1_1_1,1,1.0,168.333822121,1_I,training,01,1_A,18.0,11000,kill,1.0,100.0,1.32182084327
18,1_1_1,1,1.0,171.650837514,1_I,training,01,1_A,19.0,11010,ignore,0.0,0.0,1.54726326991
19,1_1_1,1,1.0,174.586809531,1_I,training,01,1_A,20.0,01011,kill,1.0,100.0,1.14784609473
20,1_1_1,1,1.0,181.509086833,1_I,training,01,1_A,21.0,11001,kill,0.0,0.0,5.14809594095
21,1_1_1,1,1.0,184.384233004,1_I,training,01,1_A,22.0,10001,kill,0.0,0.0,1.06506232685
22,1_1_1,1,1.0,187.024981093,1_I,training,01,1_A,23.0,10010,kill,1.0,100.0,0.868443300946
23,1_1_1,1,1.0,189.993865137,1_I,training,01,1_A,24.0,01111,kill,1.0,200.0,1.19240531662
24,1_1_1,1,1.0,192.994044423,1_I,training,01,1_A,25.0,01110,kill,0.0,100.0,1.2071497711
25,1_1_1,1,1.0,197.541113012,1_I,training,01,1_A,26.0,00001,ignore,0.0,0.0,2.76457366743
26,1_1_1,1,1.0,200.603800998,1_I,training,01,1_A,27.0,10011,kill,0.0,0.0,1.28363991612
27,1_1_1,1,1.0,203.44766219,1_I,training,01,1_A,28.0,11111,kill,0.0,0.0,1.05453286456
28,1_1_1,1,1.0,208.322936011,1_I,training,01,1_A,29.0,00010,kill,0.0,0.0,3.07399938036
29,1_1_1,1,1.0,212.448145525,1_I,training,01,1_A,30.0,01100,ignore,1.0,100.0,2.34734107825
30,1_1_1,1,1.0,215.323309016,1_I,training,01,1_A,31.0,11101,kill,0.0,0.0,1.09113132545
31,1_1_1,1,1.0,218.604725012,1_I,training,01,1_A,32.0,10101,ignore,1.0,100.0,1.49354537226
32,1_1_1,1,1.0,222.058019807,1_I,training,01,1_A,33.0,11111,kill,0.0,0.0,1.67216552841
33,1_1_1,1,1.0,227.980224945,1_I,training,01,1_A,34.0,11101,kill,0.0,0.0,4.1392002612
34,1_1_1,1,1.0,231.120997409,1_I,training,01,1_A,35.0,00101,ignore,0.0,0.0,1.34484999285
35,1_1_1,1,1.0,234.121226408,1_I,training,01,1_A,36.0,10000,kill,1.0,100.0,1.22560182789
36,1_1_1,1,1.0,237.028978953,1_I,training,01,1_A,37.0,11100,kill,1.0,200.0,1.11931359324
37,1_1_1,1,1.0,239.747881439,1_I,training,01,1_A,38.0,11001,ignore,1.0,300.0,0.92002964799
38,1_1_1,1,1.0,242.748217561,1_I,training,01,1_A,39.0,10001,kill,0.0,200.0,1.20126475424
39,1_1_1,1,1.0,245.435841802,1_I,training,01,1_A,40.0,00110,kill,0.0,100.0,0.894768239575
40,1_1_1,1,1.0,248.111373038,1_I,training,01,1_A,41.0,00010,kill,0.0,0.0,0.912951527269
41,1_1_1,1,1.0,250.617353952,1_I,training,01,1_A,42.0,01110,kill,0.0,0.0,0.757349615994
42,1_1_1,1,1.0,253.429924713,1_I,training,01,1_A,43.0,10101,kill,0.0,0.0,1.02197973135
43,1_1_1,1,1.0,257.180389927,1_I,training,01,1_A,44.0,01001,kill,1.0,100.0,1.96321327245
44,1_1_1,1,1.0,259.789866186,1_I,training,01,1_A,45.0,01010,kill,0.0,0.0,0.834851654213
45,1_1_1,1,1.0,262.268415975,1_I,training,01,1_A,46.0,10011,kill,0.0,0.0,0.711860606982
46,1_1_1,1,1.0,265.83737834,1_I,training,01,1_A,47.0,10100,kill,1.0,100.0,1.78655949258
47,1_1_1,1,1.0,269.150037301,1_I,training,01,1_A,48.0,10010,ignore,0.0,0.0,1.52122506108
48,1_1_1,1,1.0,272.290820669,1_I,training,01,1_A,49.0,10110,ignore,0.0,0.0,1.35400353698
49,1_1_1,1,1.0,275.322253504,1_I,training,01,1_A,50.0,00000,ignore,1.0,100.0,1.21675329499
50,1_1_1,1,1.0,280.119361061,1_I,training,01,1_A,51.0,11011,ignore,1.0,200.0,3.03022722214
51,1_1_1,1,1.0,284.088339398,1_I,training,01,1_A,52.0,11000,kill,1.0,300.0,2.21096032673
52,1_1_1,1,1.0,289.104213773,1_I,training,01,1_A,53.0,01101,ignore,0.0,200.0,3.22444047598
53,1_1_1,1,1.0,292.604381514,1_I,training,01,1_A,54.0,01000,ignore,1.0,300.0,1.72421500501
54,1_1_1,1,1.0,296.276446013,1_I,training,01,1_A,55.0,11010,ignore,0.0,200.0,1.89326114414
55,1_1_1,1,1.0,300.886097389,1_I,training,01,1_A,56.0,01011,ignore,0.0,100.0,2.83144906312
56,1_1_1,1,1.0,304.026857345,1_I,training,01,1_A,57.0,00100,ignore,1.0,200.0,1.35500644982
57,1_1_1,1,1.0,307.07388456,1_I,training,01,1_A,58.0,01111,kill,1.0,300.0,1.27521089394
58,1_1_1,1,1.0,313.636759209,1_I,training,01,1_A,59.0,01100,ignore,1.0,400.0,4.77450112543
59,1_1_1,1,1.0,318.683841589,1_I,training,01,1_A,60.0,10111,kill,0.0,300.0,3.25852957005
60,1_1_1,1,1.0,321.605869686,1_I,training,01,1_A,61.0,00001,kill,1.0,400.0,1.13302242073
61,1_1_1,1,1.0,324.699814427,1_I,training,01,1_A,62.0,00111,ignore,0.0,300.0,1.30196656872
62,1_1_1,1,1.0,328.215618243,1_I,training,01,1_A,63.0,00011,kill,1.0,400.0,1.7358878585
63,1_1_1,1,1.0,334.075273307,1_I,training,01,1_A,64.0,11110,kill,1.0,500.0,4.08045753609
64,1_1_1,1,1.0,338.669299513,1_I,training,01,1_A,65.0,01101,ignore,0.0,400.0,2.81759911582
65,1_1_1,1,1.0,342.466359603,1_I,training,01,1_A,66.0,10011,kill,0.0,300.0,2.00577051738
66,1_1_1,1,1.0,347.216619231,1_I,training,01,1_A,67.0,00100,ignore,1.0,400.0,2.96259202455
67,1_1_1,1,1.0,350.232376862,1_I,training,01,1_A,68.0,01010,kill,0.0,300.0,1.25786630694
68,1_1_1,1,1.0,354.998275772,1_I,training,01,1_A,69.0,11001,ignore,1.0,400.0,2.98228176623
69,1_1_1,1,1.0,357.62340286,1_I,training,01,1_A,70.0,00001,ignore,0.0,300.0,0.852144283461
70,1_1_1,1,1.0,361.279835134,1_I,training,01,1_A,71.0,11101,ignore,1.0,400.0,1.84795206288
71,1_1_1,1,1.0,363.983101865,1_I,training,01,1_A,72.0,01111,kill,1.0,500.0,0.915706250132
72,1_1_1,1,1.0,366.576976367,1_I,training,01,1_A,73.0,10111,kill,0.0,400.0,0.779844113925
73,1_1_1,1,1.0,368.967707938,1_I,training,01,1_A,74.0,11011,kill,0.0,300.0,0.611169697215
74,1_1_1,1,1.0,371.65924152,1_I,training,01,1_A,75.0,11110,kill,1.0,400.0,0.93068900465
75,1_1_1,1,1.0,376.259470262,1_I,training,01,1_A,76.0,11010,ignore,0.0,300.0,2.81969634865
76,1_1_1,1,1.0,380.447207079,1_I,training,01,1_A,77.0,11100,kill,1.0,400.0,2.40050796718
77,1_1_1,1,1.0,383.009790828,1_I,training,01,1_A,78.0,10110,kill,1.0,500.0,0.765143278303
78,1_1_1,1,1.0,387.947581046,1_I,training,01,1_A,79.0,01001,kill,1.0,600.0,3.1489137944
79,1_1_1,1,1.0,390.666518491,1_I,training,01,1_A,80.0,10010,kill,1.0,700.0,0.956128416462
80,1_1_1,1,1.0,394.557362958,1_I,training,01,1_A,81.0,11111,ignore,1.0,800.0,2.10060591715
81,1_1_1,1,1.0,400.02639165,1_I,training,01,1_A,82.0,00000,ignore,1.0,900.0,3.69402787373
82,1_1_1,1,1.0,403.635936545,1_I,training,01,1_A,83.0,10101,kill,0.0,800.0,1.83864777714
83,1_1_1,1,1.0,407.995556009,1_I,training,01,1_A,84.0,01011,ignore,0.0,700.0,2.59568147719
84,1_1_1,1,1.0,410.464422092,1_I,training,01,1_A,85.0,00011,kill,1.0,800.0,0.706206513449
85,1_1_1,1,1.0,412.855170662,1_I,training,01,1_A,86.0,00010,kill,0.0,700.0,0.621289270597
86,1_1_1,1,1.0,415.745975359,1_I,training,01,1_A,87.0,01100,ignore,1.0,800.0,1.12346444005
87,1_1_1,1,1.0,420.058682749,1_I,training,01,1_A,88.0,00110,kill,0.0,700.0,2.53362275724
88,1_1_1,1,1.0,423.450876514,1_I,training,01,1_A,89.0,11000,kill,1.0,800.0,1.62202181071
89,1_1_1,1,1.0,427.122945504,1_I,training,01,1_A,90.0,10001,kill,0.0,700.0,1.89937163197
90,1_1_1,1,1.0,430.107448945,1_I,training,01,1_A,91.0,10100,ignore,0.0,600.0,1.20483348183
91,1_1_1,1,1.0,432.733597227,1_I,training,01,1_A,92.0,01000,kill,0.0,500.0,0.859861933508
92,1_1_1,1,1.0,435.390004163,1_I,training,01,1_A,93.0,00111,kill,1.0,600.0,0.87227213801
93,1_1_1,1,1.0,438.530864506,1_I,training,01,1_A,94.0,01110,ignore,1.0,700.0,1.36411477146
94,1_1_1,1,1.0,442.734196666,1_I,training,01,1_A,95.0,00101,ignore,0.0,600.0,2.44422175311
95,1_1_1,1,1.0,446.833590877,1_I,training,01,1_A,96.0,10000,ignore,0.0,500.0,2.31992406471
96,1_1_1,1,1.0,449.380593396,1_I,training,01,1_A,97.0,01101,ignore,0.0,400.0,0.769119328988
97,1_1_1,1,1.0,452.19324081,1_I,training,01,1_A,98.0,10110,ignore,0.0,300.0,1.04982780176
98,1_1_1,1,1.0,454.818348975,1_I,training,01,1_A,99.0,10001,kill,0.0,200.0,0.846002043671
99,1_1_1,1,1.0,458.649810226,1_I,training,01,1_A,100.0,01100,ignore,1.0,300.0,2.07599301842
100,1_1_1,1,1.0,462.290628233,1_I,training,01,1_A,101.0,11111,ignore,1.0,400.0,1.87929701807
101,1_1_1,1,1.0,465.056389873,1_I,training,01,1_A,102.0,01111,ignore,0.0,300.0,0.994471952117
102,1_1_1,1,1.0,467.936903408,1_I,training,01,1_A,103.0,10011,ignore,1.0,400.0,1.13021606085
103,1_1_1,1,1.0,470.827731839,1_I,training,01,1_A,104.0,00001,kill,1.0,500.0,1.11651364789
104,1_1_1,1,1.0,474.296620373,1_I,training,01,1_A,105.0,11010,kill,1.0,600.0,1.71054113675
105,1_1_1,1,1.0,476.859289115,1_I,training,01,1_A,106.0,00110,kill,0.0,500.0,0.785295828819
106,1_1_1,1,1.0,480.093793679,1_I,training,01,1_A,107.0,00101,kill,1.0,600.0,1.43964818831
107,1_1_1,1,1.0,483.890892576,1_I,training,01,1_A,108.0,10111,ignore,1.0,700.0,2.02814859146
108,1_1_1,1,1.0,488.141084852,1_I,training,01,1_A,109.0,00011,ignore,0.0,600.0,2.46509818411
109,1_1_1,1,1.0,492.610082754,1_I,training,01,1_A,110.0,00100,ignore,1.0,700.0,2.68349776999
110,1_1_1,1,1.0,495.875862675,1_I,training,01,1_A,111.0,01011,ignore,0.0,600.0,1.48609328404
111,1_1_1,1,1.0,500.516763109,1_I,training,01,1_A,112.0,00010,ignore,1.0,700.0,2.87248221409
112,1_1_1,1,1.0,505.36725148,1_I,training,01,1_A,113.0,11000,ignore,0.0,600.0,3.10005587062
113,1_1_1,1,1.0,508.789316461,1_I,training,01,1_A,114.0,11101,kill,0.0,500.0,1.65351686606
114,1_1_1,1,1.0,511.508235624,1_I,training,01,1_A,115.0,01001,kill,1.0,600.0,0.937214833745
115,1_1_1,1,1.0,514.914651059,1_I,training,01,1_A,116.0,10101,kill,0.0,500.0,1.6428623203
116,1_1_1,1,1.0,518.352318117,1_I,training,01,1_A,117.0,00111,ignore,0.0,400.0,1.6635809537
117,1_1_1,1,1.0,521.446213467,1_I,training,01,1_A,118.0,11001,kill,0.0,300.0,1.31594384458
118,1_1_1,1,1.0,527.430908382,1_I,training,01,1_A,119.0,11100,ignore,0.0,200.0,4.221846758
119,1_1_1,1,1.0,531.152341723,1_I,training,01,1_A,120.0,10000,ignore,0.0,100.0,1.94477115819
120,1_1_1,1,1.0,534.324356189,1_I,training,01,1_A,121.0,00000,kill,0.0,0.0,1.38503065186
121,1_1_1,1,1.0,539.027743513,1_I,training,01,1_A,122.0,11011,ignore,1.0,100.0,2.93643001516
122,1_1_1,1,1.0,543.262353596,1_I,training,01,1_A,123.0,10100,ignore,0.0,0.0,2.4638698003
123,1_1_1,1,1.0,546.528152119,1_I,training,01,1_A,124.0,01010,ignore,1.0,100.0,1.50791329342
124,1_1_1,1,1.0,549.23140089,1_I,training,01,1_A,125.0,01000,ignore,1.0,200.0,0.917614895581
125,1_1_1,1,1.0,552.044010458,1_I,training,01,1_A,126.0,01110,kill,0.0,100.0,1.04802371326
126,1_1_1,1,1.0,555.684892611,1_I,training,01,1_A,127.0,10010,ignore,0.0,0.0,1.87703461092
127,1_1_1,1,1.0,562.669631786,1_I,training,01,1_A,128.0,11110,kill,1.0,100.0,5.22466081533
128,1_1_1,1,1.0,566.62290381,1_I,training,01,1_A,129.0,00001,kill,1.0,200.0,2.17905858974
129,1_1_1,1,1.0,570.232513812,1_I,training,01,1_A,130.0,10100,kill,1.0,300.0,1.8176562052
130,1_1_1,1,1.0,573.326418783,1_I,training,01,1_A,131.0,10110,kill,1.0,400.0,1.34331723926
131,1_1_1,1,1.0,576.498431325,1_I,training,01,1_A,132.0,00110,kill,0.0,300.0,1.38425866235
132,1_1_1,1,1.0,579.248591849,1_I,training,01,1_A,133.0,01010,kill,0.0,200.0,0.99146962813
133,1_1_1,1,1.0,582.811261874,1_I,training,01,1_A,134.0,00111,ignore,0.0,100.0,1.79126936629
134,1_1_1,1,1.0,585.1863702,1_I,training,01,1_A,135.0,11110,kill,1.0,200.0,0.622336443742
135,1_1_1,1,1.0,587.686530884,1_I,training,01,1_A,136.0,11001,kill,0.0,100.0,0.758136679669
136,1_1_1,1,1.0,591.486683421,1_I,training,01,1_A,137.0,01011,kill,1.0,200.0,2.03933201579
137,1_1_1,1,1.0,594.330618701,1_I,training,01,1_A,138.0,11011,kill,0.0,100.0,1.0757024399
138,1_1_1,1,1.0,600.112167478,1_I,training,01,1_A,139.0,01100,kill,0.0,0.0,4.00786358076
139,1_1_1,1,1.0,606.67499017,1_I,training,01,1_A,140.0,01001,kill,1.0,100.0,4.79605076208
140,1_1_1,1,1.0,610.831469269,1_I,training,01,1_A,141.0,10111,ignore,1.0,200.0,2.39252186876
141,1_1_1,1,1.0,617.659975663,1_I,training,01,1_A,142.0,01000,kill,0.0,100.0,5.05494980946
142,1_1_1,1,1.0,620.795183837,1_I,training,01,1_A,143.0,01111,ignore,0.0,0.0,1.3758969928
143,1_1_1,1,1.0,624.529735227,1_I,training,01,1_A,144.0,11000,kill,1.0,100.0,1.97660458036
144,1_1_1,1,1.0,629.248737459,1_I,training,01,1_A,145.0,11101,ignore,1.0,200.0,2.94364123752
145,1_1_1,1,1.0,633.327096158,1_I,training,01,1_A,146.0,11111,kill,0.0,100.0,2.3028851304
146,1_1_1,1,1.0,636.249138047,1_I,training,01,1_A,147.0,00010,kill,0.0,0.0,1.16083585264
147,1_1_1,1,1.0,640.030551477,1_I,training,01,1_A,148.0,10001,kill,0.0,0.0,2.00106064367
148,1_1_1,1,1.0,643.343223587,1_I,training,01,1_A,149.0,00011,ignore,0.0,0.0,1.53540824358
149,1_1_1,1,1.0,646.437116691,1_I,training,01,1_A,150.0,10011,kill,0.0,0.0,1.32005556272
150,1_1_1,1,1.0,650.568441505,1_I,training,01,1_A,151.0,01101,ignore,0.0,0.0,2.36130552503
151,1_1_1,1,1.0,653.631076571,1_I,training,01,1_A,152.0,00100,ignore,1.0,100.0,1.28132811703
152,1_1_1,1,1.0,658.006304848,1_I,training,01,1_A,153.0,10010,kill,1.0,200.0,2.59598520551
153,1_1_1,1,1.0,662.131514042,1_I,training,01,1_A,154.0,11100,kill,1.0,300.0,2.37057549301
154,1_1_1,1,1.0,666.678671793,1_I,training,01,1_A,155.0,10101,ignore,1.0,400.0,2.76092155086
155,1_1_1,1,1.0,669.96066157,1_I,training,01,1_A,156.0,00101,ignore,0.0,300.0,1.4871513619
156,1_1_1,1,1.0,673.992206338,1_I,training,01,1_A,157.0,00000,ignore,1.0,400.0,2.25777137179
157,1_1_1,1,1.0,676.648499415,1_I,training,01,1_A,158.0,01110,kill,0.0,300.0,0.885835034789
158,1_1_1,1,1.0,679.554915492,1_I,training,01,1_A,159.0,10000,kill,1.0,400.0,1.13760721097
159,1_1_1,1,1.0,682.055079704,1_I,training,01,1_A,160.0,11010,kill,1.0,500.0,0.731128272135
160,1_1_1,1,1.0,684.742651988,1_I,training,01,1_A,161.0,11010,kill,1.0,600.0,0.908342361794
161,1_1_1,1,1.0,690.64940611,1_I,training,01,1_A,162.0,11111,ignore,1.0,700.0,4.13546347274
162,1_1_1,1,1.0,694.790184989,1_I,training,01,1_A,163.0,11001,ignore,1.0,800.0,2.37474846997
163,1_1_1,1,1.0,697.665329877,1_I,training,01,1_A,164.0,00000,ignore,1.0,900.0,1.09253161886
164,1_1_1,1,1.0,700.79051213,1_I,training,01,1_A,165.0,10111,ignore,1.0,1000.0,1.34337015919
165,1_1_1,1,1.0,707.00958845,1_I,training,01,1_A,166.0,01101,ignore,0.0,900.0,4.43169095531
166,1_1_1,1,1.0,709.900347283,1_I,training,01,1_A,167.0,10010,kill,1.0,1000.0,1.11491386239
167,1_1_1,1,1.0,712.828755599,1_I,training,01,1_A,168.0,10001,ignore,1.0,1100.0,1.15658237324
168,1_1_1,1,1.0,716.21954426,1_I,training,01,1_A,169.0,10100,kill,1.0,1200.0,1.59672800888
169,1_1_1,1,1.0,719.407227836,1_I,training,01,1_A,170.0,00010,kill,0.0,1100.0,1.42729603537
170,1_1_1,1,1.0,722.751166323,1_I,training,01,1_A,171.0,11011,ignore,1.0,1200.0,1.56916602682
171,1_1_1,1,1.0,725.938842522,1_I,training,01,1_A,172.0,01010,ignore,1.0,1300.0,1.43323108562
172,1_1_1,1,1.0,728.970239115,1_I,training,01,1_A,173.0,10011,ignore,1.0,1400.0,1.26208803439
173,1_1_1,1,1.0,734.254170892,1_I,training,01,1_A,174.0,10110,kill,1.0,1500.0,3.49819559078
174,1_1_1,1,1.0,738.051217511,1_I,training,01,1_A,175.0,00100,ignore,1.0,1600.0,2.0271418299
175,1_1_1,1,1.0,742.676457495,1_I,training,01,1_A,176.0,11101,ignore,1.0,1700.0,2.83181725754
176,1_1_1,1,1.0,747.004784282,1_I,training,01,1_A,177.0,01110,kill,0.0,1600.0,2.58018780481
177,1_1_1,1,1.0,749.926868827,1_I,training,01,1_A,178.0,10101,ignore,1.0,1700.0,1.1304258162
178,1_1_1,1,1.0,753.473900532,1_I,training,01,1_A,179.0,11000,kill,1.0,1800.0,1.79599238979
179,1_1_1,1,1.0,757.48991282,1_I,training,01,1_A,180.0,00101,ignore,0.0,1700.0,2.23504883708
180,1_1_1,1,1.0,760.896317671,1_I,training,01,1_A,181.0,10000,kill,1.0,1800.0,1.63115771486
181,1_1_1,1,1.0,763.552702797,1_I,training,01,1_A,182.0,11100,kill,1.0,1900.0,0.908987022751
182,1_1_1,1,1.0,767.224758958,1_I,training,01,1_A,183.0,01100,ignore,1.0,2000.0,1.90418638335
183,1_1_1,1,1.0,771.068764798,1_I,training,01,1_A,184.0,01000,kill,0.0,1900.0,2.07442306052
184,1_1_1,1,1.0,774.090865443,1_I,training,01,1_A,185.0,00111,ignore,0.0,1800.0,1.25313109581
185,1_1_1,1,1.0,777.012895785,1_I,training,01,1_A,186.0,00110,kill,0.0,1700.0,1.16193498354
186,1_1_1,1,1.0,780.028695431,1_I,training,01,1_A,187.0,01011,ignore,0.0,1600.0,1.25100884629
187,1_1_1,1,1.0,782.919453623,1_I,training,01,1_A,188.0,11110,kill,1.0,1700.0,1.14446852034
188,1_1_1,1,1.0,787.15404831,1_I,training,01,1_A,189.0,00001,ignore,0.0,1600.0,2.43271567758
189,1_1_1,1,1.0,790.20107777,1_I,training,01,1_A,190.0,00011,ignore,0.0,1500.0,1.26915717476
190,1_1_1,1,1.0,797.201453021,1_I,training,01,1_A,191.0,01111,ignore,0.0,1400.0,5.22465247643
191,1_1_1,1,1.0,800.779759763,1_I,training,01,1_A,192.0,01001,ignore,0.0,1300.0,1.80286043443
192,1_1_1,1,1.0,803.63928814,1_I,training,01,1_A,193.0,01110,kill,0.0,1200.0,1.10593190713
193,1_1_1,1,1.0,807.623875291,1_I,training,01,1_A,194.0,01100,kill,0.0,1100.0,2.20419812195
194,1_1_1,1,1.0,810.518530314,1_I,training,01,1_A,195.0,01001,ignore,0.0,1000.0,1.13805270055
195,1_1_1,1,1.0,813.69063298,1_I,training,01,1_A,196.0,00111,kill,1.0,1100.0,1.39512617073
196,1_1_1,1,1.0,819.972154175,1_I,training,01,1_A,197.0,01101,kill,1.0,1200.0,4.49783124508
197,1_1_1,1,1.0,823.066090577,1_I,training,01,1_A,198.0,11010,ignore,0.0,1100.0,1.34730034594
198,1_1_1,1,1.0,827.503810556,1_I,training,01,1_A,199.0,11110,kill,1.0,1200.0,2.66805830044
199,1_1_1,1,1.0,830.14454357,1_I,training,01,1_A,200.0,11100,kill,1.0,1300.0,0.862900178901
200,1_1_1,1,1.0,833.426037824,1_I,training,01,1_A,201.0,00110,ignore,1.0,1400.0,1.5068173698
201,1_1_1,1,1.0,836.129312253,1_I,training,01,1_A,202.0,10110,ignore,0.0,1300.0,0.916792551953
202,1_1_1,1,1.0,839.723268861,1_I,training,01,1_A,203.0,00001,kill,1.0,1400.0,1.81520168266
203,1_1_1,1,1.0,843.848485432,1_I,training,01,1_A,204.0,11001,ignore,1.0,1500.0,2.38071302709
204,1_1_1,1,1.0,847.520546403,1_I,training,01,1_A,205.0,00100,ignore,1.0,1600.0,1.88332598869
205,1_1_1,1,1.0,851.801992868,1_I,training,01,1_A,206.0,10101,ignore,1.0,1700.0,2.48577223647
206,1_1_1,1,1.0,855.11467877,1_I,training,01,1_A,207.0,01011,ignore,0.0,1600.0,1.53551344198
207,1_1_1,1,1.0,858.005458771,1_I,training,01,1_A,208.0,10000,kill,1.0,1700.0,1.1129247145
208,1_1_1,1,1.0,860.864960528,1_I,training,01,1_A,209.0,11011,ignore,1.0,1800.0,1.08217278325
209,1_1_1,1,1.0,864.708944559,1_I,training,01,1_A,210.0,00101,ignore,0.0,1700.0,2.06131206786
210,1_1_1,1,1.0,868.427877834,1_I,training,01,1_A,211.0,01000,ignore,1.0,1800.0,1.96130590991
211,1_1_1,1,1.0,871.506162446,1_I,training,01,1_A,212.0,10111,ignore,1.0,1900.0,1.29695168378
212,1_1_1,1,1.0,875.131343416,1_I,training,01,1_A,213.0,11111,ignore,1.0,2000.0,1.87645152951
213,1_1_1,1,1.0,879.912918813,1_I,training,01,1_A,214.0,11000,kill,1.0,2100.0,3.00734656909
214,1_1_1,1,1.0,883.819376905,1_I,training,01,1_A,215.0,01111,kill,1.0,2200.0,2.1332645695
215,1_1_1,1,1.0,886.819508082,1_I,training,01,1_A,216.0,10001,ignore,1.0,2300.0,1.23743921424
216,1_1_1,1,1.0,891.679158977,1_I,training,01,1_A,217.0,00010,ignore,1.0,2400.0,3.07422100261
217,1_1_1,1,1.0,894.851216421,1_I,training,01,1_A,218.0,00000,kill,0.0,2300.0,1.40488139842
218,1_1_1,1,1.0,899.492050785,1_I,training,01,1_A,219.0,10011,ignore,1.0,2400.0,2.87558364267
219,1_1_1,1,1.0,903.085958964,1_I,training,01,1_A,220.0,11101,ignore,1.0,2500.0,1.81368849341
220,1_1_1,1,1.0,907.445567844,1_I,training,01,1_A,221.0,00011,kill,1.0,2600.0,2.59538929504
221,1_1_1,1,1.0,911.617684301,1_I,training,01,1_A,222.0,01010,ignore,1.0,2700.0,2.41847123625
222,1_1_1,1,1.0,915.340346667,1_I,training,01,1_A,223.0,10010,kill,1.0,2800.0,1.96800813876
223,1_1_1,1,1.0,920.371860966,1_I,training,01,1_A,224.0,10100,ignore,0.0,2700.0,3.23073153303
224,1_1_1,1,1.0,924.200191602,1_I,training,01,1_A,225.0,00001,kill,1.0,2800.0,2.03334532852
225,1_1_1,1,1.0,927.262870608,1_I,training,01,1_A,226.0,10111,ignore,1.0,2900.0,1.28622689885
226,1_1_1,1,1.0,930.544248117,1_I,training,01,1_A,227.0,00110,kill,0.0,2800.0,1.50483624008
227,1_1_1,1,1.0,933.263174657,1_I,training,01,1_A,228.0,11010,kill,1.0,2900.0,0.947316446423
228,1_1_1,1,1.0,936.278947362,1_I,training,01,1_A,229.0,11011,ignore,1.0,3000.0,1.26052449102
229,1_1_1,1,1.0,939.482227563,1_I,training,01,1_A,230.0,11111,ignore,1.0,3100.0,1.44136728419
230,1_1_1,1,1.0,942.591778231,1_I,training,01,1_A,231.0,11110,kill,1.0,3200.0,1.35126003955
231,1_1_1,1,1.0,945.670088181,1_I,training,01,1_A,232.0,01000,ignore,1.0,3300.0,1.31128817371
232,1_1_1,1,1.0,950.779721596,1_I,training,01,1_A,233.0,10011,ignore,1.0,3400.0,3.32934605721
233,1_1_1,1,1.0,954.076758273,1_I,training,01,1_A,234.0,00011,kill,1.0,3500.0,1.53796700234
234,1_1_1,1,1.0,957.561289938,1_I,training,01,1_A,235.0,10001,ignore,1.0,3600.0,1.69837949555
235,1_1_1,1,1.0,962.530326968,1_I,training,01,1_A,236.0,01110,ignore,1.0,3700.0,3.2295615215
236,1_1_1,1,1.0,965.686731979,1_I,training,01,1_A,237.0,01100,ignore,1.0,3800.0,1.37744610346
237,1_1_1,1,1.0,968.827506047,1_I,training,01,1_A,238.0,10000,kill,1.0,3900.0,1.36076926975
238,1_1_1,1,1.0,971.624534385,1_I,training,01,1_A,239.0,11000,kill,1.0,4000.0,1.03362692669
239,1_1_1,1,1.0,975.937231191,1_I,training,01,1_A,240.0,11100,kill,1.0,4100.0,2.53545891842
240,1_1_1,1,1.0,981.968818936,1_I,training,01,1_A,241.0,01111,kill,1.0,4200.0,4.27994321852
241,1_1_1,1,1.0,985.031482226,1_I,training,01,1_A,242.0,00101,kill,1.0,4300.0,1.28059750128
242,1_1_1,1,1.0,988.109749839,1_I,training,01,1_A,243.0,11101,ignore,1.0,4400.0,1.30003483094
243,1_1_1,1,1.0,991.297396211,1_I,training,01,1_A,244.0,10110,kill,1.0,4500.0,1.4149650504
244,1_1_1,1,1.0,994.985110898,1_I,training,01,1_A,245.0,11001,ignore,1.0,4600.0,1.916823021
245,1_1_1,1,1.0,997.969674315,1_I,training,01,1_A,246.0,10101,ignore,1.0,4700.0,1.1979583812
246,1_1_1,1,1.0,1001.83153726,1_I,training,01,1_A,247.0,01010,ignore,1.0,4800.0,2.10082850158
247,1_1_1,1,1.0,1004.67545971,1_I,training,01,1_A,248.0,10010,kill,1.0,4900.0,1.0708803118
248,1_1_1,1,1.0,1007.84746392,1_I,training,01,1_A,249.0,00010,ignore,1.0,5000.0,1.41104961708
249,1_1_1,1,1.0,1010.84760247,1_I,training,01,1_A,250.0,00000,ignore,1.0,5100.0,1.20856161066
250,1_1_1,1,1.0,1013.62902167,1_I,training,01,1_A,251.0,10100,kill,1.0,5200.0,0.998723827888
251,1_1_1,1,1.0,1017.39484906,1_I,training,01,1_A,252.0,01101,kill,1.0,5300.0,2.01383391096
252,1_1_1,1,1.0,1020.25435948,1_I,training,01,1_A,253.0,01001,kill,1.0,5400.0,1.07512994248
253,1_1_1,1,1.0,1023.37953692,1_I,training,01,1_A,254.0,00111,kill,1.0,5500.0,1.37561988481
254,1_1_1,1,1.0,1027.23910122,1_I,training,01,1_A,255.0,00100,ignore,1.0,5600.0,2.07120264228
255,1_1_1,1,1.0,1030.44240291,1_I,training,01,1_A,256.0,01011,kill,1.0,5700.0,1.44248437579
256,1_1_1,1,1.0,1033.81760232,1_I,training,01,1_A,257.0,01000,ignore,1.0,5800.0,1.58349225348
257,1_1_1,1,1.0,1037.33967474,1_I,training,01,1_A,258.0,01001,kill,1.0,5900.0,1.74969001751
258,1_1_1,1,1.0,1040.35549748,1_I,training,01,1_A,259.0,00001,kill,1.0,6000.0,1.21322113025
259,1_1_1,1,1.0,1043.35563219,1_I,training,01,1_A,260.0,00110,ignore,1.0,6100.0,1.23557996073
260,1_1_1,1,1.0,1047.44967475,1_I,training,01,1_A,261.0,00011,kill,1.0,6200.0,2.3284271748
261,1_1_1,1,1.0,1050.37162363,1_I,training,01,1_A,262.0,11010,kill,1.0,6300.0,1.18701806783
262,1_1_1,1,1.0,1052.84050382,1_I,training,01,1_A,263.0,11100,kill,1.0,6400.0,0.715290459852
263,1_1_1,1,1.0,1056.51257827,1_I,training,01,1_A,264.0,01010,ignore,1.0,6500.0,1.90167092271
264,1_1_1,1,1.0,1063.98168842,1_I,training,01,1_A,265.0,00101,kill,1.0,6600.0,5.68732564487
265,1_1_1,1,1.0,1068.78988575,1_I,training,01,1_A,266.0,11111,ignore,1.0,6700.0,3.04730207786
266,1_1_1,1,1.0,1072.02561421,1_I,training,01,1_A,267.0,10101,ignore,1.0,6800.0,1.46717264534
267,1_1_1,1,1.0,1076.93529111,1_I,training,01,1_A,268.0,01101,kill,1.0,6900.0,3.15926268747
268,1_1_1,1,1.0,1080.73231368,1_I,training,01,1_A,269.0,11011,ignore,1.0,7000.0,2.03105533885
269,1_1_1,1,1.0,1084.65443222,1_I,training,01,1_A,270.0,10001,ignore,1.0,7100.0,2.14805200137
270,1_1_1,1,1.0,1089.73908101,1_I,training,01,1_A,271.0,01100,ignore,1.0,7200.0,3.29941390377
271,1_1_1,1,1.0,1092.39546165,1_I,training,01,1_A,272.0,10110,kill,1.0,7300.0,0.884588690274
272,1_1_1,1,1.0,1096.42692784,1_I,training,01,1_A,273.0,00111,kill,1.0,7400.0,2.19100726831
273,1_1_1,1,1.0,1100.78653576,1_I,training,01,1_A,274.0,00010,ignore,1.0,7500.0,2.57081231771
274,1_1_1,1,1.0,1104.05229676,1_I,training,01,1_A,275.0,01110,ignore,1.0,7600.0,1.52246851906
275,1_1_1,1,1.0,1106.70872326,1_I,training,01,1_A,276.0,01011,kill,1.0,7700.0,0.88450979147
276,1_1_1,1,1.0,1109.75575304,1_I,training,01,1_A,277.0,10111,ignore,1.0,7800.0,1.28845691259
277,1_1_1,1,1.0,1113.45908327,1_I,training,01,1_A,278.0,00000,ignore,1.0,7900.0,1.92309451371
278,1_1_1,1,1.0,1116.22479969,1_I,training,01,1_A,279.0,11101,kill,0.0,7800.0,1.01289931294
279,1_1_1,1,1.0,1118.88120117,1_I,training,01,1_A,280.0,10100,kill,1.0,7900.0,0.891908959761
280,1_1_1,1,1.0,1121.94387409,1_I,training,01,1_A,281.0,11001,ignore,1.0,8000.0,1.31165733031
281,1_1_1,1,1.0,1124.91279148,1_I,training,01,1_A,282.0,10011,ignore,1.0,8100.0,1.21896214076
282,1_1_1,1,1.0,1128.116174,1_I,training,01,1_A,283.0,10000,kill,1.0,8200.0,1.45805213607
283,1_1_1,1,1.0,1133.28821733,1_I,training,01,1_A,284.0,00100,ignore,1.0,8300.0,3.38204179841
284,1_1_1,1,1.0,1136.46024495,1_I,training,01,1_A,285.0,11110,kill,1.0,8400.0,1.43710033426
285,1_1_1,1,1.0,1138.78848065,1_I,training,01,1_A,286.0,10010,kill,1.0,8500.0,0.571580137771
286,1_1_1,1,1.0,1142.10117809,1_I,training,01,1_A,287.0,01111,kill,1.0,8600.0,1.53117080051
287,1_1_1,1,1.0,1144.6012772,1_I,training,01,1_A,288.0,11000,kill,1.0,8700.0,0.749175571648
288,1_1_1,1,1.0,1147.05454409,1_I,training,01,1_A,289.0,10100,kill,1.0,8800.0,0.677876711318
289,1_1_1,1,1.0,1149.28903294,1_I,training,01,1_A,290.0,01011,kill,1.0,8900.0,0.483110524395
290,1_1_1,1,1.0,1152.2423117,1_I,training,01,1_A,291.0,01001,kill,1.0,9000.0,1.16637544669
291,1_1_1,1,1.0,1155.24249002,1_I,training,01,1_A,292.0,01100,ignore,1.0,9100.0,1.21381447492
292,1_1_1,1,1.0,1159.61769841,1_I,training,01,1_A,293.0,01110,ignore,1.0,9200.0,2.61211070977
293,1_1_1,1,1.0,1163.32102287,1_I,training,01,1_A,294.0,00101,kill,1.0,9300.0,1.91253041292
294,1_1_1,1,1.0,1165.77427213,1_I,training,01,1_A,295.0,00011,kill,1.0,9400.0,0.690849149978
295,1_1_1,1,1.0,1167.97748081,1_I,training,01,1_A,296.0,11000,kill,1.0,9500.0,0.421971969757
296,1_1_1,1,1.0,1170.32138979,1_I,training,01,1_A,297.0,11110,kill,1.0,9600.0,0.54902373956
297,1_1_1,1,1.0,1174.58723129,1_I,training,01,1_A,298.0,10001,ignore,1.0,9700.0,2.51766595529
298,1_1_1,1,1.0,1177.72799541,1_I,training,01,1_A,299.0,11001,ignore,1.0,9800.0,1.36658757543
299,1_1_1,1,1.0,1180.49376732,1_I,training,01,1_A,300.0,11011,ignore,1.0,9900.0,1.01537660708
300,1_1_1,1,1.0,1183.65021274,1_I,training,01,1_A,301.0,00111,kill,1.0,10000.0,1.3817108083
301,1_1_1,1,1.0,1186.49409221,1_I,training,01,1_A,302.0,10010,kill,1.0,10100.0,1.07706552898
302,1_1_1,1,1.0,1190.36931087,1_I,training,01,1_A,303.0,00010,ignore,1.0,10200.0,2.12131332511
303,1_1_1,1,1.0,1193.85387076,1_I,training,01,1_A,304.0,10000,kill,1.0,10300.0,1.73947037735
304,1_1_1,1,1.0,1197.68217766,1_I,training,01,1_A,305.0,11111,ignore,1.0,10400.0,2.05247283604
305,1_1_1,1,1.0,1200.74610686,1_I,training,01,1_A,306.0,10101,ignore,1.0,10500.0,1.30494932837
306,1_1_1,1,1.0,1204.81264453,1_I,training,01,1_A,307.0,10110,kill,1.0,10600.0,2.29959800097
307,1_1_1,1,1.0,1211.57854953,1_I,training,01,1_A,308.0,11100,kill,1.0,10700.0,5.0064052358
308,1_1_1,1,1.0,1221.92281837,1_I,training,01,1_A,309.0,01000,ignore,1.0,10800.0,8.55311044101
309,1_1_1,1,1.0,1227.53249508,1_I,training,01,1_A,310.0,01010,ignore,1.0,10900.0,3.85191592595
310,1_1_1,1,1.0,1232.95709156,1_I,training,01,1_A,311.0,01101,kill,1.0,11000.0,3.67145736354
311,1_1_1,1,1.0,1237.89479775,1_I,training,01,1_A,312.0,01111,kill,1.0,11100.0,3.17763648691
312,1_1_1,1,1.0,1240.8168701,1_I,training,01,1_A,313.0,11010,kill,1.0,11200.0,1.19363466262
313,1_1_1,1,1.0,1244.09825948,1_I,training,01,1_A,314.0,00001,kill,1.0,11300.0,1.50449915617
314,1_1_1,1,1.0,1247.98910619,1_I,training,01,1_A,315.0,00100,ignore,1.0,11400.0,2.09837526195
315,1_1_1,1,1.0,1253.08309487,1_I,training,01,1_A,316.0,00000,ignore,1.0,11500.0,3.32447229209
316,1_1_1,1,1.0,1256.44267008,1_I,training,01,1_A,317.0,00110,ignore,1.0,11600.0,1.58805747938
317,1_1_1,1,1.0,1259.58342811,1_I,training,01,1_A,318.0,10111,ignore,1.0,11700.0,1.37998626006
318,1_1_1,1,1.0,1263.88051193,1_I,training,01,1_A,319.0,11101,ignore,1.0,11800.0,2.52267410496
319,1_1_1,1,1.0,1411.48193474,1_I,test,01,2,0.0,10011,kill,0.0,0.0,6.13671815615
320,1_1_1,1,1.0,1418.13855688,1_I,test,01,2,1.0,01000,ignore,0.0,0.0,4.919139631
321,1_1_1,1,1.0,1422.23254268,1_I,test,01,2,2.0,00010,ignore,0.0,0.0,2.31831946831
322,1_1_1,1,1.0,1426.12336918,1_I,test,01,2,3.0,10001,ignore,1.0,100.0,2.12782760804
323,1_1_1,1,1.0,1434.31126604,1_I,test,01,2,4.0,00110,kill,0.0,0.0,6.42519751963
324,1_1_1,1,1.0,1437.4208289,1_I,test,01,2,5.0,10000,kill,0.0,0.0,1.33837163133
325,1_1_1,1,1.0,1440.98351143,1_I,test,01,2,6.0,10110,kill,1.0,100.0,1.81244567689
326,1_1_1,1,1.0,1444.24927917,1_I,test,01,2,7.0,01010,ignore,0.0,0.0,1.52356251832
327,1_1_1,1,1.0,1447.76510928,1_I,test,01,2,8.0,00101,ignore,1.0,100.0,1.7326966264
328,1_1_1,1,1.0,1451.29653859,1_I,test,01,2,9.0,01011,kill,1.0,200.0,1.77442094372
329,1_1_1,1,1.0,1456.73428038,1_I,test,01,2,10.0,11100,ignore,0.0,100.0,3.6534719643
330,1_1_1,1,1.0,1459.81262176,1_I,test,01,2,11.0,01100,ignore,1.0,200.0,1.3203301049
331,1_1_1,1,1.0,1465.3003934,1_I,test,01,2,12.0,01110,kill,0.0,100.0,3.73854347677
332,1_1_1,1,1.0,1469.2693634,1_I,test,01,2,13.0,00111,kill,0.0,0.0,2.19397655743
333,1_1_1,1,1.0,1472.14448424,1_I,test,01,2,14.0,11000,ignore,1.0,100.0,1.12125912227
334,1_1_1,1,1.0,1475.30090176,1_I,test,01,2,15.0,11010,kill,0.0,0.0,1.41179979717
335,1_1_1,1,1.0,1478.81670044,1_I,test,01,2,16.0,11101,kill,1.0,100.0,1.77959811644
336,1_1_1,1,1.0,1481.62934817,1_I,test,01,2,17.0,01111,kill,0.0,0.0,1.04321345205
337,1_1_1,1,1.0,1484.12949026,1_I,test,01,2,18.0,10011,kill,0.0,0.0,0.728451806622
338,1_1_1,1,1.0,1491.44388788,1_I,test,01,2,19.0,11110,kill,1.0,100.0,5.57975899302
339,1_1_1,1,1.0,1496.97545028,1_I,test,01,2,20.0,01101,ignore,1.0,200.0,3.75940034343
340,1_1_1,1,1.0,1500.17872984,1_I,test,01,2,21.0,10010,kill,0.0,100.0,1.45489233521
341,1_1_1,1,1.0,1505.86651926,1_I,test,01,2,22.0,01001,ignore,0.0,0.0,3.94048817191
342,1_1_1,1,1.0,1508.97604748,1_I,test,01,2,23.0,00000,ignore,0.0,0.0,1.31499449312
343,1_1_1,1,1.0,1512.07307825,1_I,test,01,2,24.0,10111,kill,1.0,100.0,1.34123219405
344,1_1_1,1,1.0,1515.54196005,1_I,test,01,2,25.0,00100,ignore,1.0,200.0,1.70247389444
345,1_1_1,1,1.0,1518.30776242,1_I,test,01,2,26.0,11111,kill,1.0,300.0,1.00896078729
346,1_1_1,1,1.0,1521.66733314,1_I,test,01,2,27.0,10101,ignore,0.0,200.0,1.58435885742
347,1_1_1,1,1.0,1524.6206119,1_I,test,01,2,28.0,11001,ignore,1.0,300.0,1.19100983413
348,1_1_1,1,1.0,1527.32661571,1_I,test,01,2,29.0,00001,ignore,0.0,200.0,0.959291424598
349,1_1_1,1,1.0,1530.18613607,1_I,test,01,2,30.0,00011,ignore,0.0,100.0,1.07136268497
350,1_1_1,1,1.0,1534.20196426,1_I,test,01,2,31.0,10100,kill,1.0,200.0,2.24274788497
351,1_1_1,1,1.0,1537.71777032,1_I,test,01,2,32.0,11011,ignore,1.0,300.0,1.77679752963
352,1_1_1,1,1.0,1540.79605429,1_I,test,01,2,33.0,11110,kill,1.0,400.0,1.32035961177
353,1_1_1,1,1.0,1544.51500039,1_I,test,01,2,34.0,11101,ignore,0.0,300.0,1.97929964803
354,1_1_1,1,1.0,1547.62453791,1_I,test,01,2,35.0,00000,ignore,0.0,200.0,1.32220731911
355,1_1_1,1,1.0,1551.34989471,1_I,test,01,2,36.0,10110,kill,1.0,300.0,1.95563449712
356,1_1_1,1,1.0,1554.49065562,1_I,test,01,2,37.0,10001,kill,0.0,200.0,1.38840790553
357,1_1_1,1,1.0,1557.31895322,1_I,test,01,2,38.0,11000,ignore,1.0,300.0,1.07592406215
358,1_1_1,1,1.0,1560.42846188,1_I,test,01,2,39.0,10011,kill,0.0,200.0,1.37766804643
359,1_1_1,1,1.0,1563.33483818,1_I,test,01,2,40.0,00111,kill,0.0,100.0,1.15418975098
360,1_1_1,1,1.0,1566.35064873,1_I,test,01,2,41.0,00101,ignore,1.0,200.0,1.24242459231
361,1_1_1,1,1.0,1568.99142665,1_I,test,01,2,42.0,00001,ignore,0.0,100.0,0.880686086036
362,1_1_1,1,1.0,1572.30879613,1_I,test,01,2,43.0,01110,kill,0.0,0.0,1.56439681865
363,1_1_1,1,1.0,1576.66839442,1_I,test,01,2,44.0,10101,ignore,0.0,0.0,2.62981226575
364,1_1_1,1,1.0,1580.71544345,1_I,test,01,2,45.0,00100,kill,0.0,0.0,2.25811230443
365,1_1_1,1,1.0,1584.17106928,1_I,test,01,2,46.0,01011,ignore,0.0,0.0,1.6939845756
366,1_1_1,1,1.0,1586.95248304,1_I,test,01,2,47.0,10100,ignore,0.0,0.0,1.03400217709
367,1_1_1,1,1.0,1589.37447938,1_I,test,01,2,48.0,11010,kill,0.0,0.0,0.696972146156
368,1_1_1,1,1.0,1591.74958995,1_I,test,01,2,49.0,11011,kill,0.0,0.0,0.62087938169
369,1_1_1,1,1.0,1594.74974967,1_I,test,01,2,50.0,01000,ignore,0.0,0.0,1.26015180643
370,1_1_1,1,1.0,1598.20315287,1_I,test,01,2,51.0,11100,ignore,0.0,0.0,1.68912460174
371,1_1_1,1,1.0,1602.03139884,1_I,test,01,2,52.0,10111,kill,1.0,100.0,2.08566229131
372,1_1_1,1,1.0,1605.25030164,1_I,test,01,2,53.0,01001,ignore,0.0,0.0,1.4476076664
373,1_1_1,1,1.0,1609.7661664,1_I,test,01,2,54.0,00011,kill,1.0,100.0,2.73274954633
374,1_1_1,1,1.0,1612.92259386,1_I,test,01,2,55.0,00010,kill,1.0,200.0,1.42195753705
375,1_1_1,1,1.0,1619.51664252,1_I,test,01,2,56.0,11001,ignore,1.0,300.0,4.82786109192
376,1_1_1,1,1.0,1622.00116777,1_I,test,01,2,57.0,11111,kill,1.0,400.0,0.760638028326
377,1_1_1,1,1.0,1624.28253052,1_I,test,01,2,58.0,01010,ignore,0.0,300.0,0.513757257247
378,1_1_1,1,1.0,1627.92335302,1_I,test,01,2,59.0,10010,kill,0.0,200.0,1.86851578521
379,1_1_1,1,1.0,1629.90784812,1_I,test,01,2,60.0,01100,kill,0.0,100.0,0.241454714332
380,1_1_1,1,1.0,1632.67359918,1_I,test,01,2,61.0,10000,ignore,1.0,200.0,0.98245656236
381,1_1_1,1,1.0,1636.31441879,1_I,test,01,2,62.0,00110,kill,0.0,100.0,1.89484553474
382,1_1_1,1,1.0,1638.89267806,1_I,test,01,2,63.0,01101,ignore,1.0,200.0,0.834682310439
383,1_1_1,1,1.0,1642.86166249,1_I,test,01,2,64.0,01111,kill,0.0,100.0,2.20840092652
384,1_1_1,1,1.0,1646.08056402,1_I,test,01,2,65.0,00111,ignore,1.0,200.0,1.47104317689
385,1_1_1,1,1.0,1649.12735742,1_I,test,01,2,66.0,11111,ignore,0.0,100.0,1.31647015733
386,1_1_1,1,1.0,1652.50253182,1_I,test,01,2,67.0,00100,kill,0.0,0.0,1.59781559361
387,1_1_1,1,1.0,1654.92987917,1_I,test,01,2,68.0,00010,ignore,0.0,0.0,0.685697956136
388,1_1_1,1,1.0,1657.85193902,1_I,test,01,2,69.0,00000,kill,1.0,100.0,1.15368588911
389,1_1_1,1,1.0,1660.4457792,1_I,test,01,2,70.0,01111,ignore,1.0,200.0,0.851996428386
390,1_1_1,1,1.0,1664.58664756,1_I,test,01,2,71.0,01100,kill,0.0,100.0,2.35229694944
391,1_1_1,1,1.0,1667.52428287,1_I,test,01,2,72.0,10100,kill,1.0,200.0,1.15983935434
392,1_1_1,1,1.0,1670.04004018,1_I,test,01,2,73.0,11101,ignore,0.0,100.0,0.777302032959
393,1_1_1,1,1.0,1673.05582604,1_I,test,01,2,74.0,10010,ignore,1.0,200.0,1.24982408133
394,1_1_1,1,1.0,1675.60282759,1_I,test,01,2,75.0,10110,ignore,0.0,100.0,0.816107094542
395,1_1_1,1,1.0,1680.16558389,1_I,test,01,2,76.0,10101,kill,1.0,200.0,2.76598005464
396,1_1_1,1,1.0,1682.90326333,1_I,test,01,2,77.0,10000,ignore,1.0,300.0,0.964197262404
397,1_1_1,1,1.0,1686.60657047,1_I,test,01,2,78.0,01000,kill,1.0,400.0,1.94982677543
398,1_1_1,1,1.0,1689.12233324,1_I,test,01,2,79.0,10001,ignore,1.0,500.0,0.741385437334
399,1_1_1,1,1.0,1691.57558473,1_I,test,01,2,80.0,11011,kill,0.0,400.0,0.720639221429
400,1_1_1,1,1.0,1693.95071134,1_I,test,01,2,81.0,11001,ignore,1.0,500.0,0.652788816127
401,1_1_1,1,1.0,1696.43517597,1_I,test,01,2,82.0,10111,kill,1.0,600.0,0.722320792272
402,1_1_1,1,1.0,1699.7478282,1_I,test,01,2,83.0,01010,ignore,0.0,500.0,1.59077563938
403,1_1_1,1,1.0,1702.95109365,1_I,test,01,2,84.0,01101,kill,0.0,400.0,1.42934323481
404,1_1_1,1,1.0,1705.43560446,1_I,test,01,2,85.0,11110,ignore,0.0,300.0,0.748505893997
405,1_1_1,1,1.0,1707.68570245,1_I,test,01,2,86.0,00110,ignore,1.0,400.0,0.510500596873
406,1_1_1,1,1.0,1711.65468624,1_I,test,01,2,87.0,01001,kill,1.0,500.0,2.2100064851
407,1_1_1,1,1.0,1715.77989543,1_I,test,01,2,88.0,10011,ignore,1.0,600.0,2.38529910023
408,1_1_1,1,1.0,1718.84257796,1_I,test,01,2,89.0,00011,kill,1.0,700.0,1.32066911317
409,1_1_1,1,1.0,1724.85849628,1_I,test,01,2,90.0,11100,kill,1.0,800.0,4.25059927811
410,1_1_1,1,1.0,1728.06176846,1_I,test,01,2,91.0,01011,kill,1.0,900.0,1.45359563658
411,1_1_1,1,1.0,1731.28071008,1_I,test,01,2,92.0,11010,kill,0.0,800.0,1.47507759986
412,1_1_1,1,1.0,1734.87461537,1_I,test,01,2,93.0,00001,kill,1.0,900.0,1.84850114724
413,1_1_1,1,1.0,1737.73417646,1_I,test,01,2,94.0,11000,ignore,1.0,1000.0,1.10860773118
414,1_1_1,1,1.0,1741.34369057,1_I,test,01,3,0.0,00101,kill,1.0,1100.0,1.82293408614
415,1_1_1,1,1.0,1745.71896086,1_I,test,01,3,1.0,01110,kill,1.0,1200.0,2.63821434688
416,1_1_1,1,1.0,1751.75050915,1_I,test,01,3,2.0,01010,kill,1.0,1300.0,4.26652593173
417,1_1_1,1,1.0,1754.32875464,1_I,test,01,3,3.0,10100,ignore,1.0,1400.0,0.820767576312
418,1_1_1,1,1.0,1757.0585907,1_I,test,01,3,4.0,11010,ignore,0.0,1300.0,0.963635348973
419,1_1_1,1,1.0,1759.69934232,1_I,test,01,3,5.0,01110,kill,1.0,1400.0,0.875711612685
420,1_1_1,1,1.0,1762.54326765,1_I,test,01,3,6.0,11000,ignore,1.0,1500.0,1.11351196536
421,1_1_1,1,1.0,1766.01220366,1_I,test,01,3,7.0,00011,kill,0.0,1400.0,1.70782874983
422,1_1_1,1,1.0,1769.12173316,1_I,test,01,3,8.0,10101,ignore,0.0,1300.0,1.36798947246
423,1_1_1,1,1.0,1771.6531368,1_I,test,01,3,9.0,11111,kill,0.0,1200.0,0.784191566295
424,1_1_1,1,1.0,1774.62201989,1_I,test,01,3,10.0,10011,ignore,1.0,1300.0,1.20806480478
425,1_1_1,1,1.0,1778.5753134,1_I,test,01,3,11.0,10110,kill,1.0,1400.0,2.22433303249
426,1_1_1,1,1.0,1786.46636794,1_I,test,01,3,12.0,00100,kill,0.0,1300.0,6.15051999443
427,1_1_1,1,1.0,1790.29467901,1_I,test,01,3,13.0,11101,kill,1.0,1400.0,2.07571334461
428,1_1_1,1,1.0,1793.66987426,1_I,test,01,3,14.0,10111,kill,0.0,1300.0,1.62394392668
429,1_1_1,1,1.0,1796.57627782,1_I,test,01,3,15.0,11001,ignore,0.0,1200.0,1.14193958917
430,1_1_1,1,1.0,1799.84203978,1_I,test,01,3,16.0,10000,kill,0.0,1100.0,1.486672196
431,1_1_1,1,1.0,1804.87356755,1_I,test,01,3,17.0,11100,kill,0.0,1000.0,3.26598069609
432,1_1_1,1,1.0,1810.87799615,1_I,test,01,3,18.0,11110,kill,1.0,1100.0,4.25339601619
433,1_1_1,1,1.0,1814.50318353,1_I,test,01,3,19.0,10010,ignore,0.0,1000.0,1.88890342851
434,1_1_1,1,1.0,1818.05025309,1_I,test,01,3,20.0,00010,ignore,0.0,900.0,1.78798191614
435,1_1_1,1,1.0,1822.11293305,1_I,test,01,3,21.0,00110,kill,1.0,1000.0,2.32426798909
436,1_1_1,1,1.0,1827.00858971,1_I,test,01,3,22.0,00000,kill,0.0,900.0,3.10831843557
437,1_1_1,1,1.0,1830.75881309,1_I,test,01,3,23.0,01011,ignore,1.0,1000.0,1.96560332889
438,1_1_1,1,1.0,1834.4309504,1_I,test,01,3,24.0,01000,ignore,1.0,1100.0,1.94175183568
439,1_1_1,1,1.0,1837.79043387,1_I,test,01,3,25.0,01101,kill,1.0,1200.0,1.59078750628
440,1_1_1,1,1.0,1843.52507539,1_I,test,01,3,26.0,10001,kill,1.0,1300.0,3.99917060038
441,1_1_1,1,1.0,1849.36917167,1_I,test,01,3,27.0,11011,ignore,1.0,1400.0,4.10922256454
442,1_1_1,1,1.0,1853.27560571,1_I,test,01,3,28.0,00101,kill,1.0,1500.0,2.12489199523
443,1_1_1,1,1.0,1855.90069848,1_I,test,01,3,29.0,01111,ignore,1.0,1600.0,0.886988689247
444,1_1_1,1,1.0,1859.51031971,1_I,test,01,4,0.0,01100,kill,0.0,1500.0,1.84277841816
445,1_1_1,1,1.0,1864.02613186,1_I,test,01,4,1.0,00001,kill,0.0,1400.0,2.76846408405
446,1_1_1,1,1.0,1866.44815386,1_I,test,01,4,2.0,00111,ignore,0.0,1300.0,0.647892920853
447,1_1_1,1,1.0,1875.66740081,1_I,test,01,4,3.0,01001,kill,1.0,1400.0,7.45283647614
448,1_1_1,1,1.0,1879.87070924,1_I,test,01,4,4.0,10000,ignore,1.0,1500.0,2.42771233881
449,1_1_1,1,1.0,1882.73027065,1_I,test,01,4,5.0,01101,kill,0.0,1400.0,1.11444912919
450,1_1_1,1,1.0,1886.23045026,1_I,test,01,4,6.0,11110,ignore,1.0,1500.0,1.74063814379
451,1_1_1,1,1.0,1889.68372324,1_I,test,01,4,7.0,00101,kill,1.0,1600.0,1.685592437
452,1_1_1,1,1.0,1895.92118394,1_I,test,01,4,8.0,00110,ignore,0.0,1500.0,4.46425371033
453,1_1_1,1,1.0,1901.04646658,1_I,test,01,4,9.0,00100,ignore,0.0,1400.0,3.37107229889
454,1_1_1,1,1.0,1903.82789445,1_I,test,01,4,10.0,01000,kill,1.0,1500.0,1.00875937084
455,1_1_1,1,1.0,1907.72110395,1_I,test,01,4,11.0,10001,ignore,1.0,1600.0,2.11097501602
456,1_1_1,1,1.0,1910.2525849,1_I,test,01,4,12.0,11001,ignore,0.0,1500.0,0.793923380923
457,1_1_1,1,1.0,1913.48712538,1_I,test,01,4,13.0,01111,ignore,1.0,1600.0,1.44905542737
458,1_1_1,1,1.0,1917.23729681,1_I,test,01,4,14.0,10010,kill,0.0,1500.0,2.01498147161
459,1_1_1,1,1.0,1921.92505512,1_I,test,01,4,15.0,11101,kill,0.0,1400.0,2.924510202
460,1_1_1,1,1.0,1925.45646229,1_I,test,01,4,16.0,00001,ignore,1.0,1500.0,1.75680085236
461,1_1_1,1,1.0,1931.23800626,1_I,test,01,4,17.0,01110,kill,0.0,1400.0,4.05504538606
462,1_1_1,1,1.0,1934.78510468,1_I,test,01,4,18.0,10101,kill,1.0,1500.0,1.77702813223
463,1_1_1,1,1.0,1939.20721937,1_I,test,01,4,19.0,01010,ignore,0.0,1400.0,2.69865211337
464,1_1_1,1,1.0,1941.78542155,1_I,test,01,4,20.0,10011,ignore,1.0,1500.0,0.844954549799
465,1_1_1,1,1.0,1951.6453146,1_I,test,01,4,21.0,00010,ignore,1.0,1600.0,8.09878033996
466,1_1_1,1,1.0,1955.23929045,1_I,test,01,4,22.0,01100,kill,0.0,1500.0,1.85000118669
467,1_1_1,1,1.0,1958.6769341,1_I,test,01,4,23.0,00011,ignore,1.0,1600.0,1.69527582188
468,1_1_1,1,1.0,1964.9428994,1_I,test,01,4,24.0,00111,kill,1.0,1700.0,4.49758877559
469,1_1_1,1,1.0,1968.52421905,1_I,test,01,4,25.0,10110,ignore,0.0,1600.0,1.81894328202
470,1_1_1,1,1.0,1973.43072749,1_I,test,01,4,26.0,11100,ignore,1.0,1700.0,3.13589773689
471,1_1_1,1,1.0,1977.53673573,1_I,test,01,4,27.0,10100,ignore,0.0,1600.0,2.37733352834
472,1_1_1,1,1.0,1981.55256072,1_I,test,01,4,28.0,00000,ignore,1.0,1700.0,2.23979046274
473,1_1_1,1,1.0,1984.89646681,1_I,test,01,4,29.0,11010,kill,1.0,1800.0,1.58128918079
474,1_1_1,1,1.0,1987.97476393,1_I,test,01,4,30.0,01011,ignore,0.0,1700.0,1.35022794057
475,1_1_1,1,1.0,1991.50618907,1_I,test,01,4,31.0,10111,ignore,0.0,1600.0,1.7506028061
476,1_1_1,1,1.0,1994.77195937,1_I,test,01,4,32.0,01001,ignore,0.0,1500.0,1.54426415319
477,1_1_1,1,1.0,1998.45971158,1_I,test,01,4,33.0,11111,ignore,1.0,1600.0,1.92154893105
478,1_1_1,1,1.0,2001.92859145,1_I,test,01,4,34.0,11011,kill,1.0,1700.0,1.68241852416
479,1_1_1,1,1.0,2006.33510118,1_I,test,01,4,35.0,11000,ignore,0.0,1600.0,2.67887224744
480,1_1_1,1,1.0,2008.86646345,1_I,test,01,4,36.0,11101,ignore,1.0,1700.0,0.761222392635
481,1_1_1,1,1.0,2014.5542673,1_I,test,01,4,37.0,00110,kill,1.0,1800.0,3.96396441472
482,1_1_1,1,1.0,2017.60129869,1_I,test,01,4,38.0,00100,ignore,0.0,1700.0,1.30705810737
483,1_1_1,1,1.0,2020.96081071,1_I,test,01,4,39.0,11100,kill,0.0,1600.0,1.58218112215
484,1_1_1,1,1.0,2024.57044124,1_I,test,01,4,40.0,01100,kill,0.0,1500.0,1.88657847961
485,1_1_1,1,1.0,2028.4768525,1_I,test,01,4,41.0,10111,ignore,0.0,1400.0,2.13746416679
486,1_1_1,1,1.0,2034.83658518,1_I,test,01,4,42.0,10110,ignore,0.0,1300.0,4.61940532112
487,1_1_1,1,1.0,2038.91489032,1_I,test,01,4,43.0,01101,kill,0.0,1200.0,2.31915592392
488,1_1_1,1,1.0,2045.27462781,1_I,test,01,4,44.0,01110,ignore,1.0,1300.0,4.58423024595
489,1_1_1,1,1.0,2048.57165519,1_I,test,01,4,45.0,00111,ignore,0.0,1200.0,1.55834791037
490,1_1_1,1,1.0,2051.79053715,1_I,test,01,4,46.0,10000,kill,0.0,1100.0,1.4719190819
491,1_1_1,1,1.0,2054.58757639,1_I,test,01,4,47.0,00011,ignore,1.0,1200.0,1.01900114115
492,1_1_1,1,1.0,2058.41590735,1_I,test,01,4,48.0,10100,ignore,0.0,1100.0,2.06539716567
493,1_1_1,1,1.0,2060.94726609,1_I,test,01,4,49.0,00000,ignore,1.0,1200.0,0.732055814168
494,1_1_1,1,1.0,2063.83806053,1_I,test,01,4,50.0,01000,ignore,0.0,1100.0,1.16736168174
495,1_1_1,1,1.0,2066.69762964,1_I,test,01,4,51.0,11111,kill,0.0,1000.0,1.09558333478
496,1_1_1,1,1.0,2069.91649235,1_I,test,01,4,52.0,11001,kill,1.0,1100.0,1.45929495259
497,1_1_1,1,1.0,2072.88542322,1_I,test,01,4,53.0,00010,kill,0.0,1000.0,1.24134630866
498,1_1_1,1,1.0,2075.44803423,1_I,test,01,4,54.0,11011,kill,1.0,1100.0,0.806683498412
499,1_1_1,1,1.0,2077.82318169,1_I,test,01,4,55.0,10001,kill,0.0,1000.0,0.639253501856
500,1_1_1,1,1.0,2080.54207359,1_I,test,01,4,56.0,01010,ignore,0.0,900.0,0.957173665247
501,1_1_1,1,1.0,2083.26093085,1_I,test,01,4,57.0,10011,kill,0.0,800.0,0.94174574187
502,1_1_1,1,1.0,2085.6204743,1_I,test,01,4,58.0,11110,ignore,1.0,900.0,0.657408565588
503,1_1_1,1,1.0,2088.77685526,1_I,test,01,4,59.0,10010,kill,0.0,800.0,1.38271789059
504,1_1_1,1,1.0,2091.58952673,1_I,test,01,4,60.0,11000,ignore,0.0,700.0,1.08011756563
505,1_1_1,1,1.0,2096.02727012,1_I,test,01,4,61.0,01111,kill,0.0,600.0,2.68464308555
506,1_1_1,1,1.0,2100.69934937,1_I,test,01,4,62.0,11010,ignore,0.0,500.0,2.9267803066
507,1_1_1,1,1.0,2103.40260103,1_I,test,01,4,63.0,00001,kill,0.0,400.0,0.976891310163
508,1_1_1,1,1.0,2106.51217319,1_I,test,01,4,64.0,01011,kill,1.0,500.0,1.37900515665
509,1_1_1,1,1.0,2112.02806103,1_I,test,01,4,65.0,10101,ignore,0.0,400.0,3.74636311795
510,1_1_1,1,1.0,2115.10639568,1_I,test,01,4,66.0,01001,ignore,0.0,300.0,1.31409357142
511,1_1_1,1,1.0,2117.82525583,1_I,test,01,4,67.0,00101,kill,1.0,400.0,0.931573890013
512,1_1_1,1,1.0,2121.01291888,1_I,test,01,4,68.0,01101,kill,0.0,300.0,1.46264526521
513,1_1_1,1,1.0,2123.9193295,1_I,test,01,4,69.0,00111,kill,1.0,400.0,1.13066443697
514,1_1_1,1,1.0,2128.27894319,1_I,test,01,4,70.0,00101,kill,1.0,500.0,2.57160836173
515,1_1_1,1,1.0,2132.85731119,1_I,test,01,4,71.0,11111,ignore,1.0,600.0,2.83609190492
516,1_1_1,1,1.0,2135.76375004,1_I,test,01,4,72.0,10111,ignore,0.0,500.0,1.13552120357
517,1_1_1,1,1.0,2140.9358232,1_I,test,01,4,73.0,10001,kill,0.0,400.0,3.43439981423
518,1_1_1,1,1.0,2145.90480699,1_I,test,01,4,74.0,01010,kill,1.0,500.0,3.20612152084
519,1_1_1,1,1.0,2149.56125979,1_I,test,01,4,75.0,01111,ignore,1.0,600.0,1.88332470578
520,1_1_1,1,1.0,2152.53017655,1_I,test,01,4,76.0,10011,kill,0.0,500.0,1.2396179117
521,1_1_1,1,1.0,2155.24906845,1_I,test,01,4,77.0,11010,ignore,0.0,400.0,0.949135288356
522,1_1_1,1,1.0,2157.85861463,1_I,test,01,4,78.0,00011,kill,0.0,300.0,0.86373567233
523,1_1_1,1,1.0,2160.71810837,1_I,test,01,4,79.0,11110,ignore,1.0,400.0,1.10022489366
524,1_1_1,1,1.0,2163.57760948,1_I,test,01,4,80.0,11001,kill,1.0,500.0,1.09516671061
525,1_1_1,1,1.0,2166.28087268,1_I,test,01,4,81.0,00100,kill,1.0,600.0,0.955561050675
526,1_1_1,1,1.0,2168.89553157,1_I,test,01,4,82.0,01100,ignore,1.0,700.0,0.851861723111
527,1_1_1,1,1.0,2171.78627918,1_I,test,01,4,83.0,10000,kill,0.0,600.0,1.16287439246
528,1_1_1,1,1.0,2175.72404213,1_I,test,01,4,84.0,11101,kill,0.0,500.0,2.17986361412
529,1_1_1,1,1.0,2178.72418742,1_I,test,01,4,85.0,10010,kill,0.0,400.0,1.22650563613
530,1_1_1,1,1.0,2183.72446293,1_I,test,01,4,86.0,01011,kill,1.0,500.0,3.27419418984
531,1_1_1,1,1.0,2186.47463339,1_I,test,01,4,87.0,01001,kill,1.0,600.0,1.02216030056
532,1_1_1,1,1.0,2189.5998134,1_I,test,01,4,88.0,10110,kill,1.0,700.0,1.34846682947
533,1_1_1,1,1.0,2194.94384618,1_I,test,01,4,89.0,10101,ignore,0.0,600.0,3.59715425486
534,1_1_1,1,1.0,2198.20961969,1_I,test,01,4,90.0,01110,ignore,1.0,700.0,1.49059404385
535,1_1_1,1,1.0,2201.27229549,1_I,test,01,4,91.0,00001,ignore,1.0,800.0,1.33535006373
536,1_1_1,1,1.0,2204.14743556,1_I,test,01,4,92.0,00000,kill,0.0,700.0,1.08814022691
537,1_1_1,1,1.0,2206.52257468,1_I,test,01,4,93.0,10100,kill,1.0,800.0,0.61105936718
538,1_1_1,1,1.0,2211.17902299,1_I,test,01,4,94.0,00110,kill,1.0,900.0,2.91588778153
539,1_1_1,1,1.0,2214.08546216,1_I,test,01,4,95.0,11100,ignore,1.0,1000.0,1.14043185228
540,1_1_1,1,1.0,2216.74182868,1_I,test,01,5,0.0,00010,kill,1.0,1100.0,0.919563952612
541,1_1_1,1,1.0,2219.61695785,1_I,test,01,5,1.0,01000,ignore,1.0,1200.0,1.10515286162
542,1_1_1,1,1.0,2223.85332263,1_I,test,01,5,2.0,11011,kill,0.0,1100.0,2.46807998158
543,1_1_1,1,1.0,2226.25971241,1_I,test,01,5,3.0,11000,ignore,1.0,1200.0,0.68149130285
544,1_1_1,1,1.0,2229.13485666,1_I,test,01,5,4.0,00010,kill,1.0,1300.0,1.08477644377
545,1_1_1,1,1.0,2234.54140006,1_I,test,01,5,5.0,11111,kill,0.0,1200.0,3.66567850726
546,1_1_1,1,1.0,2237.54154118,1_I,test,01,5,6.0,00110,kill,1.0,1300.0,1.23587663306
547,1_1_1,1,1.0,2240.04165857,1_I,test,01,5,7.0,10010,kill,1.0,1400.0,0.720605545111
548,1_1_1,1,1.0,2244.32313582,1_I,test,01,5,8.0,10001,ignore,0.0,1300.0,2.54869371164
549,1_1_1,1,1.0,2248.19831824,1_I,test,01,5,9.0,00101,kill,1.0,1400.0,2.11696330692
550,1_1_1,1,1.0,2252.60480616,1_I,test,01,5,10.0,01011,kill,0.0,1300.0,2.6465660739
551,1_1_1,1,1.0,2255.1361726,1_I,test,01,5,11.0,11000,ignore,1.0,1400.0,0.79552733587
552,1_1_1,1,1.0,2258.10508391,1_I,test,01,5,12.0,10110,kill,1.0,1500.0,1.18660048148
553,1_1_1,1,1.0,2261.58965374,1_I,test,01,5,13.0,01110,ignore,0.0,1400.0,1.77221209794
554,1_1_1,1,1.0,2264.41791574,1_I,test,01,5,14.0,00100,kill,0.0,1300.0,1.08479664956
555,1_1_1,1,1.0,2266.88984604,1_I,test,01,5,15.0,11010,ignore,0.0,1200.0,0.721279071483
556,1_1_1,1,1.0,2269.64002806,1_I,test,01,5,16.0,01000,ignore,1.0,1300.0,1.02083634015
557,1_1_1,1,1.0,2272.54641399,1_I,test,01,5,17.0,11100,ignore,1.0,1400.0,1.1394308638
558,1_1_1,1,1.0,2276.64036995,1_I,test,01,5,18.0,00011,ignore,1.0,1500.0,2.35829582433
559,1_1_1,1,1.0,2282.17191729,1_I,test,01,5,19.0,01111,ignore,1.0,1600.0,3.7574166479
560,1_1_1,1,1.0,2286.85969163,1_I,test,01,5,20.0,11110,ignore,0.0,1500.0,2.92418498498
561,1_1_1,1,1.0,2290.14107812,1_I,test,01,5,21.0,11011,kill,0.0,1400.0,1.55048561251
562,1_1_1,1,1.0,2292.84436121,1_I,test,01,5,22.0,01101,ignore,0.0,1300.0,0.935046078826
563,1_1_1,1,1.0,2295.82886208,1_I,test,01,5,23.0,01001,ignore,0.0,1200.0,1.258232577
564,1_1_1,1,1.0,2299.26654389,1_I,test,01,5,24.0,00000,kill,0.0,1100.0,1.66213351345
565,1_1_1,1,1.0,2303.43864528,1_I,test,01,5,25.0,10101,ignore,0.0,1000.0,2.37771807982
566,1_1_1,1,1.0,2306.09504451,1_I,test,01,5,26.0,10011,kill,0.0,900.0,0.922006608256
567,1_1_1,1,1.0,2309.78273707,1_I,test,01,5,27.0,10100,kill,0.0,800.0,1.90759699261
568,1_1_1,1,1.0,2313.03291588,1_I,test,01,5,28.0,01100,ignore,1.0,900.0,1.51928113568
569,1_1_1,1,1.0,2316.31433123,1_I,test,01,5,29.0,01010,ignore,0.0,800.0,1.53790349842
570,1_1_1,1,1.0,2319.72074185,1_I,test,01,5,30.0,00111,ignore,1.0,900.0,1.62657516971
571,1_1_1,1,1.0,2322.76779569,1_I,test,01,5,31.0,10000,kill,0.0,800.0,1.32164091551
572,1_1_1,1,1.0,2326.54923959,1_I,test,01,5,32.0,11101,kill,1.0,900.0,2.0373165683
573,1_1_1,1,1.0,2329.62750496,1_I,test,01,5,33.0,10111,kill,0.0,800.0,1.29736606287
574,1_1_1,1,1.0,2336.22159723,1_I,test,01,5,34.0,00001,ignore,0.0,700.0,4.82822896561
575,1_1_1,1,1.0,2342.42506474,1_I,test,01,5,35.0,11001,kill,1.0,800.0,4.4225746155
576,1_1_1,1,1.0,2345.05016906,1_I,test,01,5,36.0,11001,kill,1.0,900.0,0.907606935141
577,1_1_1,1,1.0,2348.06598506,1_I,test,01,5,37.0,00100,kill,0.0,800.0,1.22211937581
578,1_1_1,1,1.0,2351.61304082,1_I,test,01,5,38.0,01010,ignore,0.0,700.0,1.7962804025
579,1_1_1,1,1.0,2356.12891583,1_I,test,01,5,39.0,01111,ignore,1.0,800.0,2.78851175688
580,1_1_1,1,1.0,2359.50408542,1_I,test,01,5,40.0,11011,kill,0.0,700.0,1.61076461921
581,1_1_1,1,1.0,2362.48860265,1_I,test,01,5,41.0,10011,kill,0.0,600.0,1.24195472748
582,1_1_1,1,1.0,2364.70896605,1_I,test,01,5,42.0,00111,ignore,1.0,700.0,0.430945265398
583,1_1_1,1,1.0,2368.58414237,1_I,test,01,5,43.0,10010,kill,1.0,800.0,2.08441017371
584,1_1_1,1,1.0,2371.95930137,1_I,test,01,5,44.0,01000,ignore,1.0,900.0,1.64853886472
585,1_1_1,1,1.0,2375.072245,1_I,test,01,5,45.0,00000,kill,0.0,800.0,1.33228519801
586,1_1_1,1,1.0,2379.63498206,1_I,test,01,5,46.0,01110,ignore,0.0,700.0,2.83969174302
587,1_1_1,1,1.0,2382.24449456,1_I,test,01,5,47.0,00010,ignore,0.0,600.0,0.86073366907
588,1_1_1,1,1.0,2384.91649492,1_I,test,01,5,48.0,00011,ignore,1.0,700.0,0.905112321748
589,1_1_1,1,1.0,2387.9791441,1_I,test,01,5,49.0,10001,kill,1.0,800.0,1.32571286352
590,1_1_1,1,1.0,2391.30747345,1_I,test,01,5,50.0,01001,kill,1.0,900.0,1.60922352673
591,1_1_1,1,1.0,2394.04194883,1_I,test,01,5,51.0,00110,kill,1.0,1000.0,0.967542443387
592,1_1_1,1,1.0,2397.44842167,1_I,test,01,5,52.0,10101,kill,1.0,1100.0,1.64011144616
593,1_1_1,1,1.0,2401.65173042,1_I,test,01,5,53.0,11111,ignore,1.0,1200.0,2.44522434522
594,1_1_1,1,1.0,2405.46441696,1_I,test,01,5,54.0,01100,ignore,1.0,1300.0,2.06698636719
595,1_1_1,1,1.0,2408.66775393,1_I,test,01,5,55.0,11100,ignore,1.0,1400.0,1.46383676543
596,1_1_1,1,1.0,2413.8086348,1_I,test,01,6,0.0,11101,kill,0.0,1300.0,3.37094304597
597,1_1_1,1,1.0,2416.96324535,1_I,test,01,6,1.0,10110,kill,1.0,1400.0,1.41034979111
598,1_1_1,1,1.0,2419.65090775,1_I,test,01,6,2.0,10100,kill,1.0,1500.0,0.912370690955
599,1_1_1,1,1.0,2423.07328544,1_I,test,01,6,3.0,10000,ignore,0.0,1400.0,1.69285754147
600,1_1_1,1,1.0,2426.9953764,1_I,test,01,6,4.0,11000,ignore,1.0,1500.0,2.15216436096
601,1_1_1,1,1.0,2431.98001198,1_I,test,01,6,5.0,00101,ignore,1.0,1600.0,3.1904492036
602,1_1_1,1,1.0,2436.41796417,1_I,test,01,6,6.0,11110,ignore,1.0,1700.0,2.70196778748
603,1_1_1,1,1.0,2440.46507413,1_I,test,01,6,7.0,10111,ignore,0.0,1600.0,2.27089166553
604,1_1_1,1,1.0,2444.12150961,1_I,test,01,6,8.0,01011,ignore,0.0,1500.0,1.9154179167
605,1_1_1,1,1.0,2446.76228977,1_I,test,01,6,9.0,01101,ignore,0.0,1400.0,0.860351683399
606,1_1_1,1,1.0,2450.71559355,1_I,test,01,6,10.0,00001,kill,0.0,1300.0,2.16879501
607,1_1_1,1,1.0,2454.52828682,1_I,test,01,6,11.0,11010,ignore,1.0,1400.0,2.08965662343
608,1_1_1,1,1.0,2457.88783829,1_I,test,01,6,12.0,10011,ignore,0.0,1300.0,1.59636109737
609,1_1_1,1,1.0,2460.7317213,1_I,test,01,6,13.0,00011,ignore,1.0,1400.0,1.12494876389
610,1_1_1,1,1.0,2463.76315798,1_I,test,01,6,14.0,11011,kill,0.0,1300.0,1.27207129886
611,1_1_1,1,1.0,2467.46647988,1_I,test,01,6,15.0,00000,kill,0.0,1200.0,1.89884916794
612,1_1_1,1,1.0,2470.63849691,1_I,test,01,6,16.0,01011,ignore,0.0,1100.0,1.44661886554
613,1_1_1,1,1.0,2474.48243604,1_I,test,01,6,17.0,11010,ignore,1.0,1200.0,2.12502509688
614,1_1_1,1,1.0,2476.96694878,1_I,test,01,6,18.0,11000,ignore,1.0,1300.0,0.701971315474
615,1_1_1,1,1.0,2480.02960245,1_I,test,01,6,19.0,11101,ignore,1.0,1400.0,1.3219908285
616,1_1_1,1,1.0,2482.54567695,1_I,test,01,6,20.0,01001,ignore,0.0,1300.0,0.715416184775
617,1_1_1,1,1.0,2484.95205262,1_I,test,01,6,21.0,01101,ignore,0.0,1200.0,0.670494862276
618,1_1_1,1,1.0,2488.60845122,1_I,test,01,6,22.0,11100,ignore,1.0,1300.0,1.89112574481
619,1_1_1,1,1.0,2491.99929985,1_I,test,01,6,23.0,10001,kill,1.0,1400.0,1.59752501509
620,1_1_1,1,1.0,2495.53074006,1_I,test,01,6,24.0,11001,ignore,1.0,1500.0,1.79717811694
621,1_1_1,1,1.0,2499.03092384,1_I,test,01,6,25.0,01100,ignore,0.0,1400.0,1.7230129208
622,1_1_1,1,1.0,2501.56228932,1_I,test,01,6,26.0,10010,ignore,0.0,1300.0,0.798346845555
623,1_1_1,1,1.0,2505.32811062,1_I,test,01,6,27.0,01111,ignore,0.0,1200.0,1.99737517151
624,1_1_1,1,1.0,2509.68771437,1_I,test,01,6,28.0,01000,kill,1.0,1300.0,2.59554548901
625,1_1_1,1,1.0,2512.59409741,1_I,test,01,6,29.0,10101,kill,1.0,1400.0,1.1628509794
626,1_1_1,1,1.0,2515.32861191,1_I,test,01,6,30.0,11111,ignore,1.0,1500.0,0.963695324893
627,1_1_1,1,1.0,2519.21946119,1_I,test,01,6,31.0,00111,kill,0.0,1400.0,2.14925889648
628,1_1_1,1,1.0,2523.76656538,1_I,test,01,6,32.0,10110,ignore,0.0,1300.0,2.83069086487
629,1_1_1,1,1.0,2527.54801249,1_I,test,01,6,33.0,01010,ignore,0.0,1200.0,2.00355846433
630,1_1_1,1,1.0,2532.01696677,1_I,test,01,6,34.0,10100,kill,1.0,1300.0,2.71458806806
631,1_1_1,1,1.0,2535.12967756,1_I,test,01,6,35.0,00101,kill,0.0,1200.0,1.34628716984
632,1_1_1,1,1.0,2538.84867851,1_I,test,01,6,36.0,00001,ignore,1.0,1300.0,1.98963571204
633,1_1_1,1,1.0,2543.50512714,1_I,test,01,6,37.0,00110,kill,0.0,1200.0,2.89236695769
634,1_1_1,1,1.0,2547.1771461,1_I,test,01,6,38.0,11110,ignore,1.0,1300.0,1.90273926383
635,1_1_1,1,1.0,2550.50544017,1_I,test,01,6,39.0,00100,kill,0.0,1200.0,1.5936301083
636,1_1_1,1,1.0,2553.95874523,1_I,test,01,6,40.0,10111,kill,1.0,1300.0,1.72207062533
637,1_1_1,1,1.0,2563.1937126,1_I,test,01,6,41.0,00010,kill,0.0,1200.0,7.46779677977
638,1_1_1,1,1.0,2566.78762302,1_I,test,01,6,42.0,01110,kill,1.0,1300.0,1.85234217192
639,1_1_1,1,1.0,2569.97530852,1_I,test,01,6,43.0,10000,kill,1.0,1400.0,1.40795075432
