,unique_id,pair_id,sbj_id,wall_time,condition,block,rule_id,rule_num,trial,stimulus,choice,correct,points,reaction_time
0,3_18_1,18,1.0,29.3954678119,3_D,training,03,1_A,1.0,01100,ignore,0.0,0.0,5.3285639144
1,3_18_1,18,1.0,34.5051909606,3_D,training,03,1_A,2.0,01001,kill,1.0,100.0,2.99085832863
2,3_18_1,18,1.0,40.4117440473,3_D,training,03,1_A,3.0,11000,kill,1.0,200.0,3.80725066711
3,3_18_1,18,1.0,45.1307458177,3_D,training,03,1_A,4.0,00000,ignore,1.0,300.0,2.60573940319
4,3_18_1,18,1.0,50.2319719557,3_D,training,03,1_A,5.0,01101,ignore,0.0,200.0,2.98924667727
5,3_18_1,18,1.0,53.9352683841,3_D,training,03,1_A,6.0,10001,kill,0.0,100.0,1.59692711808
6,3_18_1,18,1.0,57.9511494843,3_D,training,03,1_A,7.0,00101,ignore,1.0,200.0,1.90973309129
7,3_18_1,18,1.0,62.1388460897,3_D,training,03,1_A,8.0,11110,kill,1.0,300.0,2.10720544466
8,3_18_1,18,1.0,66.0765173577,3_D,training,03,1_A,9.0,00001,ignore,1.0,400.0,1.83172627906
9,3_18_1,18,1.0,69.6235855955,3_D,training,03,1_A,10.0,10110,kill,0.0,300.0,1.43101747319
10,3_18_1,18,1.0,74.2488370452,3_D,training,03,1_A,11.0,01111,ignore,0.0,200.0,2.54288852825
11,3_18_1,18,1.0,77.7333886052,3_D,training,03,1_A,12.0,00010,kill,0.0,100.0,1.41022797249
12,3_18_1,18,1.0,82.1555043106,3_D,training,03,1_A,13.0,00110,ignore,1.0,200.0,2.3401969903
13,3_18_1,18,1.0,85.6400177041,3_D,training,03,1_A,14.0,10100,kill,0.0,100.0,1.39114249243
14,3_18_1,18,1.0,92.4276382973,3_D,training,03,1_A,15.0,11001,kill,0.0,0.0,4.69759294658
15,3_18_1,18,1.0,96.5841009391,3_D,training,03,1_A,16.0,10010,kill,0.0,0.0,2.0852677426
16,3_18_1,18,1.0,100.318667253,3_D,training,03,1_A,17.0,10111,kill,0.0,0.0,1.68466124852
17,3_18_1,18,1.0,103.771979717,3_D,training,03,1_A,18.0,00100,ignore,1.0,100.0,1.4042236491
18,3_18_1,18,1.0,106.928405796,3_D,training,03,1_A,19.0,01110,ignore,0.0,0.0,1.07002200185
19,3_18_1,18,1.0,111.897395058,3_D,training,03,1_A,20.0,10000,kill,0.0,0.0,2.91860984246
20,3_18_1,18,1.0,116.773370067,3_D,training,03,1_A,21.0,11010,ignore,0.0,0.0,2.8445675322
21,3_18_1,18,1.0,119.976632819,3_D,training,03,1_A,22.0,01000,ignore,0.0,0.0,1.14943520039
22,3_18_1,18,1.0,124.851890042,3_D,training,03,1_A,23.0,10011,kill,0.0,0.0,2.83509583312
23,3_18_1,18,1.0,130.711577269,3_D,training,03,1_A,24.0,11111,kill,0.0,0.0,3.82006048904
24,3_18_1,18,1.0,138.868226574,3_D,training,03,1_A,25.0,11101,ignore,1.0,100.0,6.13312689229
25,3_18_1,18,1.0,142.160707459,3_D,training,03,1_A,26.0,11100,ignore,0.0,0.0,1.26415815672
26,3_18_1,18,1.0,145.33269776,3_D,training,03,1_A,27.0,00111,ignore,1.0,100.0,1.11287525017
27,3_18_1,18,1.0,149.445038038,3_D,training,03,1_A,28.0,10101,kill,0.0,0.0,2.07208555704
28,3_18_1,18,1.0,152.945220852,3_D,training,03,1_A,29.0,01011,ignore,0.0,0.0,1.47289603325
29,3_18_1,18,1.0,160.023744997,3_D,training,03,1_A,30.0,11011,kill,0.0,0.0,5.04198023041
30,3_18_1,18,1.0,163.477015767,3_D,training,03,1_A,31.0,01010,ignore,0.0,0.0,1.44207227896
31,3_18_1,18,1.0,167.930352286,3_D,training,03,1_A,32.0,00011,ignore,1.0,100.0,2.42860368451
32,3_18_1,18,1.0,174.290091151,3_D,training,03,1_A,33.0,10000,ignore,1.0,200.0,4.32699171242
33,3_18_1,18,1.0,177.546502476,3_D,training,03,1_A,34.0,11000,ignore,0.0,100.0,1.24356526146
34,3_18_1,18,1.0,182.90617046,3_D,training,03,1_A,35.0,01010,kill,1.0,200.0,3.34300495202
35,3_18_1,18,1.0,186.562613217,3_D,training,03,1_A,36.0,11101,ignore,1.0,300.0,1.66101567712
36,3_18_1,18,1.0,190.765939793,3_D,training,03,1_A,37.0,01110,kill,1.0,400.0,2.16659086827
37,3_18_1,18,1.0,196.438130869,3_D,training,03,1_A,38.0,11110,ignore,0.0,300.0,3.65203404834
38,3_18_1,18,1.0,206.469870619,3_D,training,03,1_A,39.0,10111,ignore,1.0,400.0,8.00465213989
39,3_18_1,18,1.0,210.454430839,3_D,training,03,1_A,40.0,01011,ignore,0.0,300.0,1.95505433109
40,3_18_1,18,1.0,214.423370709,3_D,training,03,1_A,41.0,01100,ignore,0.0,200.0,1.95309982296
41,3_18_1,18,1.0,222.283192321,3_D,training,03,1_A,42.0,01101,ignore,0.0,100.0,5.81357411351
42,3_18_1,18,1.0,226.830278519,3_D,training,03,1_A,43.0,01111,kill,1.0,200.0,2.52590348694
43,3_18_1,18,1.0,231.518224008,3_D,training,03,1_A,44.0,11111,ignore,1.0,300.0,2.67693462308
44,3_18_1,18,1.0,236.002811169,3_D,training,03,1_A,45.0,01001,ignore,0.0,200.0,2.45313317853
45,3_18_1,18,1.0,239.721743021,3_D,training,03,1_A,46.0,00100,kill,0.0,100.0,1.70260750757
46,3_18_1,18,1.0,243.534442513,3_D,training,03,1_A,47.0,00111,ignore,1.0,200.0,1.76613094627
47,3_18_1,18,1.0,247.394027108,3_D,training,03,1_A,48.0,00000,ignore,1.0,300.0,1.82623094884
48,3_18_1,18,1.0,256.175766216,3_D,training,03,1_A,49.0,00110,ignore,1.0,400.0,6.76583555704
49,3_18_1,18,1.0,265.379350657,3_D,training,03,1_A,50.0,11001,ignore,1.0,500.0,7.19194847847
50,3_18_1,18,1.0,273.786097783,3_D,training,03,1_A,51.0,00010,ignore,1.0,600.0,6.37550193719
51,3_18_1,18,1.0,279.633316121,3_D,training,03,1_A,52.0,11010,kill,1.0,700.0,3.85792547596
52,3_18_1,18,1.0,284.511662583,3_D,training,03,1_A,53.0,00011,ignore,1.0,800.0,2.87439190229
53,3_18_1,18,1.0,289.933821265,3_D,training,03,1_A,54.0,11011,kill,0.0,700.0,3.42039693129
54,3_18_1,18,1.0,293.527773965,3_D,training,03,1_A,55.0,00101,ignore,1.0,800.0,1.54923634987
55,3_18_1,18,1.0,298.934275735,3_D,training,03,1_A,56.0,11100,ignore,0.0,700.0,3.38744611792
56,3_18_1,18,1.0,303.700171589,3_D,training,03,1_A,57.0,10011,ignore,1.0,800.0,2.7516783625
57,3_18_1,18,1.0,307.653510674,3_D,training,03,1_A,58.0,10101,kill,0.0,700.0,1.91652768512
58,3_18_1,18,1.0,311.138035934,3_D,training,03,1_A,59.0,10110,ignore,1.0,800.0,1.48466188998
59,3_18_1,18,1.0,314.013182186,3_D,training,03,1_A,60.0,10010,ignore,1.0,900.0,0.853206624929
60,3_18_1,18,1.0,317.044602812,3_D,training,03,1_A,61.0,10001,ignore,1.0,1000.0,1.00004714682
61,3_18_1,18,1.0,323.326182519,3_D,training,03,1_A,62.0,00001,ignore,1.0,1100.0,4.26869868374
62,3_18_1,18,1.0,327.341991456,3_D,training,03,1_A,63.0,10100,ignore,1.0,1200.0,1.98766774003
63,3_18_1,18,1.0,330.670295582,3_D,training,03,1_A,64.0,01000,ignore,0.0,1100.0,1.33771135885
64,3_18_1,18,1.0,335.092397496,3_D,training,03,1_A,65.0,00111,ignore,1.0,1200.0,2.39210146508
65,3_18_1,18,1.0,338.467541181,3_D,training,03,1_A,66.0,00010,ignore,1.0,1300.0,1.34788577
66,3_18_1,18,1.0,343.70220692,3_D,training,03,1_A,67.0,10111,kill,0.0,1200.0,3.24303862832
67,3_18_1,18,1.0,348.108706125,3_D,training,03,1_A,68.0,11010,kill,1.0,1300.0,2.41407156053
68,3_18_1,18,1.0,353.546450518,3_D,training,03,1_A,69.0,11101,ignore,1.0,1400.0,3.44159086827
69,3_18_1,18,1.0,358.374837071,3_D,training,03,1_A,70.0,11111,kill,0.0,1300.0,2.81989435265
70,3_18_1,18,1.0,362.515756658,3_D,training,03,1_A,71.0,01110,ignore,0.0,1200.0,2.14327821112
71,3_18_1,18,1.0,365.984664456,3_D,training,03,1_A,72.0,11001,ignore,1.0,1300.0,1.47849367527
72,3_18_1,18,1.0,369.453572895,3_D,training,03,1_A,73.0,10010,ignore,1.0,1400.0,1.47303619079
73,3_18_1,18,1.0,373.531945335,3_D,training,03,1_A,74.0,10110,ignore,1.0,1500.0,2.07481558218
74,3_18_1,18,1.0,377.547755555,3_D,training,03,1_A,75.0,11000,ignore,0.0,1400.0,2.03727260481
75,3_18_1,18,1.0,380.673017589,3_D,training,03,1_A,76.0,10000,kill,0.0,1300.0,1.12082959152
76,3_18_1,18,1.0,383.657563376,3_D,training,03,1_A,77.0,01011,ignore,0.0,1200.0,1.00217452661
77,3_18_1,18,1.0,387.860901178,3_D,training,03,1_A,78.0,00011,ignore,1.0,1300.0,2.17417220455
78,3_18_1,18,1.0,393.017402627,3_D,training,03,1_A,79.0,00100,ignore,1.0,1400.0,3.13161530764
79,3_18_1,18,1.0,396.533274106,3_D,training,03,1_A,80.0,10100,kill,0.0,1300.0,1.52189761123
80,3_18_1,18,1.0,400.611527878,3_D,training,03,1_A,81.0,10001,kill,0.0,1200.0,2.04965521886
81,3_18_1,18,1.0,404.002331041,3_D,training,03,1_A,82.0,01111,ignore,0.0,1100.0,1.42907066249
82,3_18_1,18,1.0,410.846433199,3_D,training,03,1_A,83.0,01100,kill,1.0,1200.0,4.82502758249
83,3_18_1,18,1.0,416.065485324,3_D,training,03,1_A,84.0,01001,ignore,0.0,1100.0,3.20192179402
84,3_18_1,18,1.0,419.753161723,3_D,training,03,1_A,85.0,10011,kill,0.0,1000.0,1.70226882024
85,3_18_1,18,1.0,423.128332991,3_D,training,03,1_A,86.0,01010,ignore,0.0,900.0,1.36708190075
86,3_18_1,18,1.0,427.95770674,3_D,training,03,1_A,87.0,10101,kill,0.0,800.0,2.84579687741
87,3_18_1,18,1.0,432.989171948,3_D,training,03,1_A,88.0,00000,ignore,1.0,900.0,2.99970942167
88,3_18_1,18,1.0,437.227630921,3_D,training,03,1_A,89.0,11100,kill,1.0,1000.0,2.23484342126
89,3_18_1,18,1.0,443.149742457,3_D,training,03,1_A,90.0,11110,kill,1.0,1100.0,3.95925873659
90,3_18_1,18,1.0,446.821827372,3_D,training,03,1_A,91.0,00101,ignore,1.0,1200.0,1.67630086724
91,3_18_1,18,1.0,450.540864743,3_D,training,03,1_A,92.0,01000,ignore,0.0,1100.0,1.72662768769
92,3_18_1,18,1.0,453.806575217,3_D,training,03,1_A,93.0,00001,ignore,1.0,1200.0,1.24696785036
93,3_18_1,18,1.0,456.884872607,3_D,training,03,1_A,94.0,11011,kill,0.0,1100.0,1.08229877611
94,3_18_1,18,1.0,461.275682186,3_D,training,03,1_A,95.0,01101,ignore,0.0,1000.0,2.41382107302
95,3_18_1,18,1.0,466.432222443,3_D,training,03,1_A,96.0,00110,kill,0.0,900.0,3.12820566275
96,3_18_1,18,1.0,469.666731026,3_D,training,03,1_A,97.0,00001,ignore,1.0,1000.0,1.222470429
97,3_18_1,18,1.0,473.88573023,3_D,training,03,1_A,98.0,01100,kill,1.0,1100.0,2.21914000359
98,3_18_1,18,1.0,476.948420742,3_D,training,03,1_A,99.0,01010,ignore,0.0,1000.0,1.06228062298
99,3_18_1,18,1.0,482.058055691,3_D,training,03,1_A,100.0,11001,ignore,1.0,1100.0,3.12226772977
100,3_18_1,18,1.0,485.776953546,3_D,training,03,1_A,101.0,10100,kill,0.0,1000.0,1.69622504747
101,3_18_1,18,1.0,489.24589053,3_D,training,03,1_A,102.0,01110,kill,1.0,1100.0,1.46575056448
102,3_18_1,18,1.0,493.214840342,3_D,training,03,1_A,103.0,11101,ignore,1.0,1200.0,1.97235368451
103,3_18_1,18,1.0,496.871289514,3_D,training,03,1_A,104.0,00101,ignore,1.0,1300.0,1.63375744086
104,3_18_1,18,1.0,500.871460461,3_D,training,03,1_A,105.0,01111,kill,1.0,1400.0,2.02199414995
105,3_18_1,18,1.0,503.902889426,3_D,training,03,1_A,106.0,00110,kill,0.0,1300.0,1.02510167034
106,3_18_1,18,1.0,507.231169498,3_D,training,03,1_A,107.0,11100,ignore,0.0,1200.0,1.32618797147
107,3_18_1,18,1.0,510.403228755,3_D,training,03,1_A,108.0,01001,ignore,0.0,1100.0,1.19147155796
108,3_18_1,18,1.0,513.778404193,3_D,training,03,1_A,109.0,00000,ignore,1.0,1200.0,1.38941088931
109,3_18_1,18,1.0,519.091166547,3_D,training,03,1_A,110.0,10011,kill,0.0,1100.0,3.2992113332
110,3_18_1,18,1.0,522.356979974,3_D,training,03,1_A,111.0,00010,ignore,1.0,1200.0,1.266773041
111,3_18_1,18,1.0,525.482143224,3_D,training,03,1_A,112.0,11110,kill,1.0,1300.0,1.11746067891
112,3_18_1,18,1.0,529.216713707,3_D,training,03,1_A,113.0,10010,ignore,1.0,1400.0,1.75075627341
113,3_18_1,18,1.0,532.82626238,3_D,training,03,1_A,114.0,00100,ignore,1.0,1500.0,1.58031379894
114,3_18_1,18,1.0,540.061020167,3_D,training,03,1_A,115.0,10101,kill,0.0,1400.0,5.21799597167
115,3_18_1,18,1.0,543.123668343,3_D,training,03,1_A,116.0,00111,ignore,1.0,1500.0,1.06733944424
116,3_18_1,18,1.0,546.373828065,3_D,training,03,1_A,117.0,01011,ignore,0.0,1400.0,1.26227773644
117,3_18_1,18,1.0,550.983440563,3_D,training,03,1_A,118.0,10000,ignore,1.0,1500.0,2.63510834146
118,3_18_1,18,1.0,555.108636848,3_D,training,03,1_A,119.0,11011,kill,0.0,1400.0,2.1250975009
119,3_18_1,18,1.0,558.733844037,3_D,training,03,1_A,120.0,10001,ignore,1.0,1500.0,1.62897701031
120,3_18_1,18,1.0,562.155902012,3_D,training,03,1_A,121.0,01000,ignore,0.0,1400.0,1.4339758557
121,3_18_1,18,1.0,567.562380369,3_D,training,03,1_A,122.0,11010,kill,1.0,1500.0,3.43053061015
122,3_18_1,18,1.0,575.609700056,3_D,training,03,1_A,123.0,10110,kill,0.0,1400.0,6.090993996
123,3_18_1,18,1.0,579.141099515,3_D,training,03,1_A,124.0,10111,kill,0.0,1300.0,1.53734059886
124,3_18_1,18,1.0,582.453834928,3_D,training,03,1_A,125.0,11000,ignore,0.0,1200.0,1.33778608816
125,3_18_1,18,1.0,586.750902204,3_D,training,03,1_A,126.0,11111,kill,0.0,1100.0,2.35553894904
126,3_18_1,18,1.0,590.094801021,3_D,training,03,1_A,127.0,01101,ignore,0.0,1000.0,1.3633367758
127,3_18_1,18,1.0,593.360591677,3_D,training,03,1_A,128.0,00011,ignore,1.0,1100.0,1.26609694925
128,3_18_1,18,1.0,596.93893461,3_D,training,03,1_A,129.0,00000,ignore,1.0,1200.0,1.58928099502
129,3_18_1,18,1.0,600.329727511,3_D,training,03,1_A,130.0,11011,ignore,1.0,1300.0,1.4196506004
130,3_18_1,18,1.0,604.126753092,3_D,training,03,1_A,131.0,10011,kill,0.0,1200.0,1.8178192513
131,3_18_1,18,1.0,607.986387079,3_D,training,03,1_A,132.0,11110,ignore,0.0,1100.0,1.9029570996
132,3_18_1,18,1.0,611.4396803,3_D,training,03,1_A,133.0,00110,ignore,1.0,1200.0,1.47251885873
133,3_18_1,18,1.0,614.799212616,3_D,training,03,1_A,134.0,11010,ignore,0.0,1100.0,1.38816646995
134,3_18_1,18,1.0,619.643222405,3_D,training,03,1_A,135.0,01011,ignore,0.0,1000.0,2.85087109355
135,3_18_1,18,1.0,622.752742213,3_D,training,03,1_A,136.0,10100,ignore,1.0,1100.0,1.14154372146
136,3_18_1,18,1.0,625.40909709,3_D,training,03,1_A,137.0,11101,ignore,1.0,1200.0,0.645618874121
137,3_18_1,18,1.0,628.378004888,3_D,training,03,1_A,138.0,10001,ignore,1.0,1300.0,0.977393903628
138,3_18_1,18,1.0,631.409442192,3_D,training,03,1_A,139.0,01100,ignore,0.0,1200.0,1.05679812182
139,3_18_1,18,1.0,636.06594717,3_D,training,03,1_A,140.0,00011,ignore,1.0,1300.0,2.65252636373
140,3_18_1,18,1.0,639.112957677,3_D,training,03,1_A,141.0,10000,ignore,1.0,1400.0,1.07978684508
141,3_18_1,18,1.0,642.69127367,3_D,training,03,1_A,142.0,00101,ignore,1.0,1500.0,1.56122030071
142,3_18_1,18,1.0,647.238348001,3_D,training,03,1_A,143.0,00010,ignore,1.0,1600.0,2.56025138554
143,3_18_1,18,1.0,650.097892185,3_D,training,03,1_A,144.0,00001,ignore,1.0,1700.0,0.807309360086
144,3_18_1,18,1.0,653.504317622,3_D,training,03,1_A,145.0,00100,ignore,1.0,1800.0,1.41040469287
145,3_18_1,18,1.0,657.113852825,3_D,training,03,1_A,146.0,11000,ignore,0.0,1700.0,1.64869752912
146,3_18_1,18,1.0,660.567152461,3_D,training,03,1_A,147.0,11100,kill,1.0,1800.0,1.47661325499
147,3_18_1,18,1.0,664.05175662,3_D,training,03,1_A,148.0,10010,ignore,1.0,1900.0,1.49492610458
148,3_18_1,18,1.0,670.270828309,3_D,training,03,1_A,149.0,10111,ignore,1.0,2000.0,4.25017768256
149,3_18_1,18,1.0,678.411850849,3_D,training,03,1_A,150.0,01101,ignore,0.0,1900.0,6.15539622569
150,3_18_1,18,1.0,683.271447311,3_D,training,03,1_A,151.0,11111,kill,0.0,1800.0,2.85481025812
151,3_18_1,18,1.0,687.13105564,3_D,training,03,1_A,152.0,10101,kill,0.0,1700.0,1.84879984092
152,3_18_1,18,1.0,690.334364897,3_D,training,03,1_A,153.0,11001,ignore,1.0,1800.0,1.21155225278
153,3_18_1,18,1.0,694.006388233,3_D,training,03,1_A,154.0,01010,ignore,0.0,1700.0,1.71429703135
154,3_18_1,18,1.0,698.11597828,3_D,training,03,1_A,155.0,01001,ignore,0.0,1600.0,2.10641485349
155,3_18_1,18,1.0,703.69439017,3_D,training,03,1_A,156.0,00111,ignore,1.0,1700.0,3.57115865705
156,3_18_1,18,1.0,707.741495612,3_D,training,03,1_A,157.0,10110,kill,0.0,1600.0,2.07248550316
157,3_18_1,18,1.0,710.679128714,3_D,training,03,1_A,158.0,01111,ignore,0.0,1500.0,0.938384884795
158,3_18_1,18,1.0,714.773092318,3_D,training,03,1_A,159.0,01110,kill,1.0,1600.0,2.13191646995
159,3_18_1,18,1.0,718.570135539,3_D,training,03,1_A,160.0,01000,ignore,0.0,1500.0,1.77050341253
160,3_18_1,18,1.0,724.336064428,3_D,training,03,1_A,161.0,10010,kill,0.0,1400.0,3.77667515523
161,3_18_1,18,1.0,727.304971904,3_D,training,03,1_A,162.0,10000,ignore,1.0,1500.0,0.982001141787
162,3_18_1,18,1.0,731.727080554,3_D,training,03,1_A,163.0,01000,kill,1.0,1600.0,2.42022181454
163,3_18_1,18,1.0,735.836667394,3_D,training,03,1_A,164.0,11010,ignore,0.0,1500.0,2.16209556371
164,3_18_1,18,1.0,740.336892544,3_D,training,03,1_A,165.0,00000,kill,0.0,1400.0,2.504547583
165,3_18_1,18,1.0,748.118553715,3_D,training,03,1_A,166.0,10111,kill,0.0,1300.0,5.79275927541
166,3_18_1,18,1.0,752.556278865,3_D,training,03,1_A,167.0,00100,kill,0.0,1200.0,2.4763749551
167,3_18_1,18,1.0,755.431433135,3_D,training,03,1_A,168.0,11000,ignore,0.0,1100.0,0.927946194899
168,3_18_1,18,1.0,759.337887438,3_D,training,03,1_A,169.0,11111,ignore,1.0,1200.0,1.92962872684
169,3_18_1,18,1.0,764.244556627,3_D,training,03,1_A,170.0,01101,ignore,0.0,1100.0,2.93067910658
170,3_18_1,18,1.0,767.963526967,3_D,training,03,1_A,171.0,01001,ignore,0.0,1000.0,1.73029487607
171,3_18_1,18,1.0,772.463741212,3_D,training,03,1_A,172.0,00111,ignore,1.0,1100.0,2.53925822343
172,3_18_1,18,1.0,779.120357803,3_D,training,03,1_A,173.0,11110,kill,1.0,1200.0,4.66671242367
173,3_18_1,18,1.0,782.870504375,3_D,training,03,1_A,174.0,11011,kill,0.0,1100.0,1.77133954688
174,3_18_1,18,1.0,786.845083902,3_D,training,03,1_A,175.0,00001,ignore,1.0,1200.0,2.02675084672
175,3_18_1,18,1.0,790.001487851,3_D,training,03,1_A,176.0,01110,kill,1.0,1300.0,1.19225188587
176,3_18_1,18,1.0,793.17353909,3_D,training,03,1_A,177.0,01011,kill,1.0,1400.0,1.24125667111
177,3_18_1,18,1.0,796.845595461,3_D,training,03,1_A,178.0,11101,ignore,1.0,1500.0,1.66899888387
178,3_18_1,18,1.0,801.941926028,3_D,training,03,1_A,179.0,00101,kill,0.0,1400.0,3.10385609637
179,3_18_1,18,1.0,806.426571561,3_D,training,03,1_A,180.0,11001,ignore,1.0,1500.0,2.53766292913
180,3_18_1,18,1.0,811.004892364,3_D,training,03,1_A,181.0,01100,ignore,0.0,1400.0,2.60924943552
181,3_18_1,18,1.0,814.81761559,3_D,training,03,1_A,182.0,10100,ignore,1.0,1500.0,1.85556717299
182,3_18_1,18,1.0,821.364810194,3_D,training,03,1_A,183.0,10001,ignore,1.0,1600.0,4.58759365218
183,3_18_1,18,1.0,826.115113601,3_D,training,03,1_A,184.0,10110,ignore,1.0,1700.0,2.7754791656
184,3_18_1,18,1.0,829.787113204,3_D,training,03,1_A,185.0,00010,kill,0.0,1600.0,1.71915764356
185,3_18_1,18,1.0,833.099813658,3_D,training,03,1_A,186.0,11100,ignore,0.0,1500.0,1.34463841279
186,3_18_1,18,1.0,836.287476266,3_D,training,03,1_A,187.0,01010,ignore,0.0,1400.0,1.25126590804
187,3_18_1,18,1.0,841.615848707,3_D,training,03,1_A,188.0,00011,kill,0.0,1300.0,3.37594421922
188,3_18_1,18,1.0,948.80884083,3_D,test,03,2,0.0,10101,kill,0.0,0.0,12.6951724226
189,3_18_1,18,1.0,975.185195579,3_D,test,03,2,1.0,01111,ignore,0.0,0.0,24.4422656771
190,3_18_1,18,1.0,1008.65569514,3_D,test,03,2,2.0,10011,,,0.0,
191,3_18_1,18,1.0,1025.10964746,3_D,test,03,2,3.0,00110,kill,0.0,0.0,14.479856122
192,3_18_1,18,1.0,1031.43810457,3_D,test,03,2,4.0,00000,kill,0.0,0.0,4.37650709447
193,3_18_1,18,1.0,1036.33209736,3_D,test,03,2,5.0,01000,ignore,1.0,100.0,2.94194751629
194,3_18_1,18,1.0,1046.31699017,3_D,test,03,2,6.0,00011,kill,1.0,200.0,8.03907989942
195,3_18_1,18,1.0,1056.86440864,3_D,test,03,2,7.0,01100,ignore,1.0,300.0,8.54167810592
196,3_18_1,18,1.0,1063.83356372,3_D,test,03,2,8.0,11000,ignore,1.0,400.0,5.00098334787
197,3_18_1,18,1.0,1069.27131357,3_D,test,03,2,9.0,00111,kill,1.0,500.0,3.49311015036
198,3_18_1,18,1.0,1080.67819925,3_D,test,03,2,10.0,10100,ignore,1.0,600.0,9.42196047365
199,3_18_1,18,1.0,1084.58464329,3_D,test,03,2,11.0,10010,kill,0.0,500.0,1.9911168343
200,3_18_1,18,1.0,1100.00734111,3_D,test,03,2,12.0,00110,ignore,1.0,600.0,13.4285465952
201,3_18_1,18,1.0,1106.16389709,3_D,test,03,2,13.0,00001,ignore,0.0,500.0,4.18448292451
202,3_18_1,18,1.0,1111.96105705,3_D,test,03,2,14.0,10000,kill,0.0,400.0,3.83781110484
203,3_18_1,18,1.0,1121.77405835,3_D,test,03,2,15.0,11011,kill,1.0,500.0,7.86513669369
204,3_18_1,18,1.0,1133.71533939,3_D,test,03,2,16.0,10101,kill,0.0,400.0,10.0176053266
205,3_18_1,18,1.0,1141.51261193,3_D,test,03,2,17.0,01110,kill,0.0,300.0,5.85856308052
206,3_18_1,18,1.0,1148.106691,3_D,test,03,2,18.0,11001,ignore,0.0,200.0,4.61930966798
207,3_18_1,18,1.0,1152.82566551,3_D,test,03,2,19.0,00101,ignore,1.0,300.0,2.7751228383
208,3_18_1,18,1.0,1167.27955817,3_D,test,03,2,20.0,11100,kill,0.0,200.0,12.5353068712
209,3_18_1,18,1.0,1174.21739685,3_D,test,03,2,21.0,01101,ignore,1.0,300.0,4.96782342074
210,3_18_1,18,1.0,1181.06154071,3_D,test,03,2,22.0,01011,kill,1.0,400.0,4.91013977267
211,3_18_1,18,1.0,1186.32740577,3_D,test,03,2,23.0,01111,kill,1.0,500.0,3.30183070765
212,3_18_1,18,1.0,1195.57784805,3_D,test,03,2,24.0,11111,ignore,0.0,400.0,7.3289009981
213,3_18_1,18,1.0,1202.29694091,3_D,test,03,2,25.0,01001,ignore,0.0,300.0,4.71639233848
214,3_18_1,18,1.0,1208.26601933,3_D,test,03,2,26.0,10110,kill,0.0,200.0,4.01147976856
215,3_18_1,18,1.0,1212.37561355,3_D,test,03,2,27.0,00010,ignore,1.0,300.0,2.16928400985
216,3_18_1,18,1.0,1223.37617097,3_D,test,03,2,28.0,10001,kill,1.0,400.0,9.04846532304
217,3_18_1,18,1.0,1227.95452962,3_D,test,03,2,29.0,10011,kill,1.0,500.0,2.6495833761
218,3_18_1,18,1.0,1231.93912865,3_D,test,03,2,30.0,10111,kill,1.0,600.0,1.98742559142
219,3_18_1,18,1.0,1235.73618887,3_D,test,03,2,31.0,00100,ignore,1.0,700.0,1.82554619746
220,3_18_1,18,1.0,1243.54903493,3_D,test,03,2,32.0,11010,ignore,1.0,800.0,5.9058141325
221,3_18_1,18,1.0,1247.65867694,3_D,test,03,2,33.0,01010,ignore,1.0,900.0,2.16135757171
222,3_18_1,18,1.0,1251.06645648,3_D,test,03,2,34.0,11101,kill,0.0,800.0,1.4825659414
223,3_18_1,18,1.0,1259.94190486,3_D,test,03,2,35.0,11110,kill,0.0,700.0,6.95173673475
224,3_18_1,18,1.0,1263.91085403,3_D,test,03,2,36.0,11010,ignore,1.0,800.0,2.02821432237
225,3_18_1,18,1.0,1268.14543317,3_D,test,03,2,37.0,01001,ignore,0.0,700.0,2.34046223123
226,3_18_1,18,1.0,1271.5831208,3_D,test,03,2,38.0,10110,ignore,1.0,800.0,1.5189510956
227,3_18_1,18,1.0,1276.0364942,3_D,test,03,2,39.0,10011,kill,1.0,900.0,2.54668015857
228,3_18_1,18,1.0,1279.72415296,3_D,test,03,2,40.0,10001,kill,1.0,1000.0,1.73166694463
229,3_18_1,18,1.0,1283.46503727,3_D,test,03,2,41.0,00010,ignore,1.0,1100.0,1.81307730795
230,3_18_1,18,1.0,1287.32462058,3_D,test,03,2,42.0,10101,kill,0.0,1000.0,1.94210178581
231,3_18_1,18,1.0,1294.51246504,3_D,test,03,2,43.0,01011,kill,1.0,1100.0,5.26409850157
232,3_18_1,18,1.0,1298.13765395,3_D,test,03,2,44.0,11110,ignore,1.0,1200.0,1.68229236157
233,3_18_1,18,1.0,1301.93473373,3_D,test,03,2,45.0,11111,kill,1.0,1300.0,1.8626420819
234,3_18_1,18,1.0,1306.40370343,3_D,test,03,2,46.0,10111,kill,1.0,1400.0,2.50659959204
235,3_18_1,18,1.0,1311.15396322,3_D,test,03,2,47.0,01101,ignore,1.0,1500.0,2.84666572587
236,3_18_1,18,1.0,1317.57928812,3_D,test,03,2,48.0,01010,ignore,1.0,1600.0,4.44977420845
237,3_18_1,18,1.0,1323.6733582,3_D,test,03,2,49.0,10000,ignore,1.0,1700.0,4.13239563555
238,3_18_1,18,1.0,1331.45501937,3_D,test,03,2,50.0,11001,ignore,0.0,1600.0,5.85340419254
239,3_18_1,18,1.0,1336.18966555,3_D,test,03,2,51.0,11101,kill,0.0,1500.0,2.79082561451
240,3_18_1,18,1.0,1341.40863845,3_D,test,03,2,52.0,00100,ignore,1.0,1600.0,3.30293689383
241,3_18_1,18,1.0,1348.95591067,3_D,test,03,2,53.0,10010,ignore,1.0,1700.0,5.559421345
242,3_18_1,18,1.0,1352.47169876,3_D,test,03,2,54.0,01100,ignore,1.0,1800.0,1.55659991276
243,3_18_1,18,1.0,1356.67508756,3_D,test,03,2,55.0,11011,kill,1.0,1900.0,2.29477375943
244,3_18_1,18,1.0,1362.78475554,3_D,test,03,3,0.0,11000,ignore,0.0,1800.0,4.17853504901
245,3_18_1,18,1.0,1367.4412602,3_D,test,03,3,1.0,01000,ignore,1.0,1900.0,2.74623274491
246,3_18_1,18,1.0,1370.94144814,3_D,test,03,3,2.0,00000,ignore,1.0,2000.0,1.54697137836
247,3_18_1,18,1.0,1374.95722084,3_D,test,03,3,3.0,00011,kill,0.0,1900.0,2.05953424078
248,3_18_1,18,1.0,1385.81719063,3_D,test,03,3,4.0,01111,kill,0.0,1800.0,8.95432531944
249,3_18_1,18,1.0,1393.53635533,3_D,test,03,3,5.0,00001,ignore,1.0,1900.0,5.814384269
250,3_18_1,18,1.0,1399.45853325,3_D,test,03,3,6.0,00101,ignore,1.0,2000.0,3.96144897881
251,3_18_1,18,1.0,1405.28693263,3_D,test,03,3,7.0,00111,ignore,1.0,2100.0,3.88902826243
252,3_18_1,18,1.0,1412.14667182,3_D,test,03,3,8.0,10100,kill,1.0,2200.0,4.90641902294
253,3_18_1,18,1.0,1417.162551,3_D,test,03,3,9.0,01110,ignore,1.0,2300.0,3.11722911428
254,3_18_1,18,1.0,1420.53771425,3_D,test,03,3,10.0,00110,ignore,1.0,2400.0,1.4050761405
255,3_18_1,18,1.0,1423.97538936,3_D,test,03,3,11.0,11100,kill,1.0,2500.0,1.50102151434
256,3_18_1,18,1.0,1430.64759904,3_D,test,03,3,12.0,00011,kill,0.0,2400.0,4.76166129984
257,3_18_1,18,1.0,1436.13226702,3_D,test,03,3,13.0,10010,kill,1.0,2500.0,3.53589251809
258,3_18_1,18,1.0,1441.55450878,3_D,test,03,3,14.0,11001,ignore,0.0,2400.0,3.53890574486
259,3_18_1,18,1.0,1446.35155135,3_D,test,03,3,15.0,00000,ignore,1.0,2500.0,2.8094598322
260,3_18_1,18,1.0,1449.52356828,3_D,test,03,3,16.0,00010,ignore,1.0,2600.0,1.22346115359
261,3_18_1,18,1.0,1452.83624307,3_D,test,03,3,17.0,01111,ignore,1.0,2700.0,1.39965297378
262,3_18_1,18,1.0,1456.19577795,3_D,test,03,3,18.0,10001,kill,0.0,2600.0,1.40686611587
263,3_18_1,18,1.0,1462.4617418,3_D,test,03,3,19.0,11011,kill,1.0,2700.0,4.39278493355
264,3_18_1,18,1.0,1466.72759147,3_D,test,03,3,20.0,11010,ignore,0.0,2600.0,2.35139387797
265,3_18_1,18,1.0,1471.69658554,3_D,test,03,3,21.0,10100,ignore,0.0,2500.0,3.02404936624
266,3_18_1,18,1.0,1478.22813125,3_D,test,03,3,22.0,11101,ignore,0.0,2400.0,4.59184263868
267,3_18_1,18,1.0,1482.47838848,3_D,test,03,3,23.0,00110,ignore,1.0,2500.0,2.33247966593
268,3_18_1,18,1.0,1486.5254875,3_D,test,03,3,24.0,00100,ignore,1.0,2600.0,2.08490371786
269,3_18_1,18,1.0,1489.54127207,3_D,test,03,3,25.0,00001,ignore,1.0,2700.0,1.08182634577
270,3_18_1,18,1.0,1497.26042394,3_D,test,03,3,26.0,11100,ignore,0.0,2600.0,5.77375333556
271,3_18_1,18,1.0,1501.46374891,3_D,test,03,3,27.0,11000,kill,1.0,2700.0,2.32531591574
272,3_18_1,18,1.0,1507.02652185,3_D,test,03,3,28.0,01010,ignore,1.0,2800.0,3.68122626623
273,3_18_1,18,1.0,1520.71472681,3_D,test,03,3,29.0,00111,kill,0.0,2700.0,11.731829553
274,3_18_1,18,1.0,1524.43366603,3_D,test,03,3,30.0,11111,kill,1.0,2800.0,1.80724104531
275,3_18_1,18,1.0,1527.74634789,3_D,test,03,3,31.0,01110,ignore,1.0,2900.0,1.36614345461
276,3_18_1,18,1.0,1530.90276883,3_D,test,03,3,32.0,11110,kill,1.0,3000.0,1.20682891158
277,3_18_1,18,1.0,1534.30920389,3_D,test,03,3,33.0,10111,kill,0.0,2900.0,1.42055697388
278,3_18_1,18,1.0,1538.54376828,3_D,test,03,3,34.0,00101,ignore,1.0,3000.0,2.26656071997
279,3_18_1,18,1.0,1541.85644725,3_D,test,03,3,35.0,01101,ignore,1.0,3100.0,1.40776767845
280,3_18_1,18,1.0,1546.60670255,3_D,test,03,3,36.0,10000,kill,1.0,3200.0,2.80712847026
281,3_18_1,18,1.0,1551.48468178,3_D,test,03,3,37.0,10110,ignore,0.0,3100.0,2.99174225124
282,3_18_1,18,1.0,1561.59456817,3_D,test,03,3,38.0,10011,ignore,1.0,3200.0,8.1250939729
283,3_18_1,18,1.0,1566.65734849,3_D,test,03,3,39.0,01001,ignore,1.0,3300.0,3.12214553292
284,3_18_1,18,1.0,1571.28260796,3_D,test,03,3,40.0,10101,kill,0.0,3200.0,2.72520686868
285,3_18_1,18,1.0,1578.47050149,3_D,test,03,3,41.0,01100,ignore,1.0,3300.0,5.2550796685
286,3_18_1,18,1.0,1582.83008095,3_D,test,03,3,42.0,01000,ignore,1.0,3400.0,2.46791546929
287,3_18_1,18,1.0,1590.97110028,3_D,test,03,3,43.0,01011,ignore,1.0,3500.0,6.23283022015
288,3_18_1,18,1.0,1597.23708273,3_D,test,03,3,44.0,00111,ignore,1.0,3600.0,4.33155533176
289,3_18_1,18,1.0,1601.89357328,3_D,test,03,3,45.0,11010,kill,1.0,3700.0,2.79104851953
290,3_18_1,18,1.0,1614.17539706,3_D,test,03,3,46.0,10110,ignore,0.0,3600.0,10.3836297917
291,3_18_1,18,1.0,1619.44135353,3_D,test,03,3,47.0,01011,ignore,1.0,3700.0,3.32890965772
292,3_18_1,18,1.0,1625.26974554,3_D,test,03,3,48.0,10100,kill,1.0,3800.0,3.88256369631
293,3_18_1,18,1.0,1629.36371299,3_D,test,03,3,49.0,01111,ignore,1.0,3900.0,2.15635038744
294,3_18_1,18,1.0,1633.9264654,3_D,test,03,3,50.0,11011,kill,1.0,4000.0,2.69639022169
295,3_18_1,18,1.0,1640.8486584,3_D,test,03,3,51.0,10010,ignore,0.0,3900.0,4.95434616668
296,3_18_1,18,1.0,1647.17713764,3_D,test,03,3,52.0,00001,ignore,1.0,4000.0,4.39268647047
297,3_18_1,18,1.0,1653.59933193,3_D,test,03,3,53.0,01110,ignore,1.0,4100.0,4.53675366911
298,3_18_1,18,1.0,1660.99032592,3_D,test,03,3,54.0,10101,ignore,1.0,4200.0,5.44025247601
299,3_18_1,18,1.0,1665.28739641,3_D,test,03,3,55.0,01001,ignore,1.0,4300.0,2.42946611844
300,3_18_1,18,1.0,1669.38137444,3_D,test,03,3,56.0,11001,ignore,0.0,4200.0,2.13922037769
301,3_18_1,18,1.0,1673.8816307,3_D,test,03,3,57.0,01000,ignore,1.0,4300.0,2.5731109201
302,3_18_1,18,1.0,1678.50685072,3_D,test,03,3,58.0,11111,kill,1.0,4400.0,2.74342285883
303,3_18_1,18,1.0,1693.78891473,3_D,test,03,3,59.0,11110,kill,1.0,4500.0,13.3281440832
304,3_18_1,18,1.0,1698.1485067,3_D,test,03,3,60.0,01101,ignore,1.0,4600.0,2.4913564171
305,3_18_1,18,1.0,1701.61741321,3_D,test,03,3,61.0,00101,ignore,1.0,4700.0,1.5431130369
306,3_18_1,18,1.0,1706.24267653,3_D,test,03,3,62.0,10001,kill,0.0,4600.0,2.67297461128
307,3_18_1,18,1.0,1710.14913243,3_D,test,03,3,63.0,00011,ignore,1.0,4700.0,2.02318661159
308,3_18_1,18,1.0,1716.18068039,3_D,test,03,3,64.0,10000,ignore,0.0,4600.0,4.14333658336
309,3_18_1,18,1.0,1727.29063703,3_D,test,03,3,65.0,11100,kill,1.0,4700.0,9.18336230564
310,3_18_1,18,1.0,1732.24399022,3_D,test,03,3,66.0,10011,ignore,1.0,4800.0,3.04310213219
311,3_18_1,18,1.0,1738.05680389,3_D,test,03,3,67.0,01010,ignore,1.0,4900.0,3.88024933289
312,3_18_1,18,1.0,1741.86948831,3_D,test,03,3,68.0,00010,ignore,1.0,5000.0,1.94157002104
313,3_18_1,18,1.0,1745.33842433,3_D,test,03,3,69.0,01100,ignore,1.0,5100.0,1.59370862626
314,3_18_1,18,1.0,1750.18241295,3_D,test,03,3,70.0,11101,ignore,0.0,5000.0,2.89725329707
315,3_18_1,18,1.0,1755.838967,3_D,test,03,3,71.0,00100,kill,0.0,4900.0,3.74137245343
316,3_18_1,18,1.0,1761.11112152,3_D,test,03,3,72.0,11000,kill,1.0,5000.0,3.34984765485
317,3_18_1,18,1.0,1764.48628573,3_D,test,03,3,73.0,00110,ignore,1.0,5100.0,1.51296024273
318,3_18_1,18,1.0,1767.93955778,3_D,test,03,3,74.0,00000,ignore,1.0,5200.0,1.4913419844
319,3_18_1,18,1.0,1774.11175816,3_D,test,03,3,75.0,10111,ignore,1.0,5300.0,4.23993880536
320,3_18_1,18,1.0,1777.47132864,3_D,test,03,3,76.0,00100,ignore,1.0,5400.0,1.46155706368
321,3_18_1,18,1.0,1781.47152557,3_D,test,03,4,0.0,00111,ignore,0.0,5300.0,2.05861118951
322,3_18_1,18,1.0,1785.78421865,3_D,test,03,4,1.0,01011,kill,1.0,5400.0,2.44297769026
323,3_18_1,18,1.0,1789.8157233,3_D,test,03,4,2.0,01110,ignore,0.0,5300.0,2.08790251193
324,3_18_1,18,1.0,1796.34730493,3_D,test,03,4,3.0,00000,ignore,1.0,5400.0,4.59497164777
325,3_18_1,18,1.0,1803.28531329,3_D,test,03,4,4.0,10001,kill,0.0,5300.0,5.05902332324
326,3_18_1,18,1.0,1807.86352665,3_D,test,03,4,5.0,10111,kill,0.0,5200.0,2.62917938882
327,3_18_1,18,1.0,1814.48885026,3_D,test,03,4,6.0,11100,ignore,1.0,5300.0,4.75818173654
328,3_18_1,18,1.0,1818.70781386,3_D,test,03,4,7.0,01111,kill,1.0,5400.0,2.30197022374
329,3_18_1,18,1.0,1823.42680986,3_D,test,03,4,8.0,10010,ignore,0.0,5300.0,2.78498614461
330,3_18_1,18,1.0,1827.13012521,3_D,test,03,4,9.0,11001,ignore,1.0,5400.0,1.84307871915
331,3_18_1,18,1.0,1839.05264054,3_D,test,03,4,10.0,10110,ignore,1.0,5500.0,10.034915264
332,3_18_1,18,1.0,1847.06867463,3_D,test,03,4,11.0,10000,ignore,1.0,5600.0,6.07503816647
333,3_18_1,18,1.0,1853.17833171,3_D,test,03,4,12.0,01101,kill,0.0,5500.0,4.18813151075
334,3_18_1,18,1.0,1859.6786736,3_D,test,03,4,13.0,11010,kill,1.0,5600.0,4.57920889567
335,3_18_1,18,1.0,1863.88201429,3_D,test,03,4,14.0,10100,ignore,1.0,5700.0,2.32379310566
336,3_18_1,18,1.0,1871.1792801,3_D,test,03,4,15.0,10011,kill,1.0,5800.0,5.34075601683
337,3_18_1,18,1.0,1879.63279943,3_D,test,03,4,16.0,11110,ignore,1.0,5900.0,6.53208292708
338,3_18_1,18,1.0,1886.86757325,3_D,test,03,4,17.0,00110,ignore,0.0,5800.0,5.31642120388
339,3_18_1,18,1.0,1896.0242665,3_D,test,03,4,18.0,00001,ignore,1.0,5900.0,7.20371850464
340,3_18_1,18,1.0,1899.96832119,3_D,test,03,4,19.0,00011,kill,1.0,6000.0,2.07292329502
341,3_18_1,18,1.0,1905.14044812,3_D,test,03,4,20.0,11101,ignore,1.0,6100.0,3.22093928003
342,3_18_1,18,1.0,1908.90624102,3_D,test,03,4,21.0,00010,kill,1.0,6200.0,1.8345201288
343,3_18_1,18,1.0,1912.76584422,3_D,test,03,4,22.0,11011,ignore,0.0,6100.0,1.99550629907
344,3_18_1,18,1.0,1916.95360144,3_D,test,03,4,23.0,01001,ignore,1.0,6200.0,2.23501885873
345,3_18_1,18,1.0,1922.0632335,3_D,test,03,4,24.0,10101,ignore,1.0,6300.0,3.21890106225
346,3_18_1,18,1.0,1925.89157098,3_D,test,03,4,25.0,01000,ignore,1.0,6400.0,1.9133957895
347,3_18_1,18,1.0,1929.20734111,3_D,test,03,4,26.0,01100,ignore,1.0,6500.0,1.39620708678
348,3_18_1,18,1.0,1934.41075108,3_D,test,03,4,27.0,11111,kill,0.0,6400.0,3.35214983066
349,3_18_1,18,1.0,1943.86437272,3_D,test,03,4,28.0,01010,kill,1.0,6500.0,7.57956169498
350,3_18_1,18,1.0,1947.59893711,3_D,test,03,4,29.0,11000,ignore,1.0,6600.0,1.79920203212
351,3_18_1,18,1.0,1951.28663179,3_D,test,03,4,30.0,00101,ignore,1.0,6700.0,1.75899221276
352,3_18_1,18,1.0,1954.44304472,3_D,test,03,4,31.0,00000,ignore,1.0,6800.0,1.21573132088
353,3_18_1,18,1.0,1958.24011392,3_D,test,03,4,32.0,10101,ignore,1.0,6900.0,1.92165802843
354,3_18_1,18,1.0,1967.74059084,3_D,test,03,4,33.0,11000,ignore,1.0,7000.0,7.55572913994
355,3_18_1,18,1.0,1974.08465964,3_D,test,03,4,34.0,01011,kill,1.0,7100.0,4.40056415816
356,3_18_1,18,1.0,1979.56931512,3_D,test,03,4,35.0,10111,ignore,1.0,7200.0,3.59141927952
357,3_18_1,18,1.0,1983.33512759,3_D,test,03,4,36.0,01101,ignore,1.0,7300.0,1.82151049418
358,3_18_1,18,1.0,1992.25745722,3_D,test,03,4,37.0,11111,kill,0.0,7200.0,7.07960723816
359,3_18_1,18,1.0,1997.02331458,3_D,test,03,4,38.0,00001,ignore,1.0,7300.0,2.79982263817
360,3_18_1,18,1.0,2002.58614589,3_D,test,03,4,39.0,11001,ignore,1.0,7400.0,3.64614326217
361,3_18_1,18,1.0,2008.49266242,3_D,test,03,4,40.0,00011,kill,1.0,7500.0,4.02931249038
362,3_18_1,18,1.0,2012.08658465,3_D,test,03,4,41.0,11100,ignore,1.0,7600.0,1.65814773952
363,3_18_1,18,1.0,2016.55691134,3_D,test,03,4,42.0,10000,kill,0.0,7500.0,2.60260269667
364,3_18_1,18,1.0,2020.11960249,3_D,test,03,4,43.0,01000,ignore,1.0,7600.0,1.60032104737
365,3_18_1,18,1.0,2024.44794382,3_D,test,03,4,44.0,10110,ignore,1.0,7700.0,2.38400279674
366,3_18_1,18,1.0,2027.60435034,3_D,test,03,4,45.0,00101,ignore,1.0,7800.0,1.26514984349
367,3_18_1,18,1.0,2030.57325172,3_D,test,03,4,46.0,01100,ignore,1.0,7900.0,1.03039847078
368,3_18_1,18,1.0,2035.40160909,3_D,test,03,4,47.0,01010,kill,1.0,8000.0,2.97643140299
369,3_18_1,18,1.0,2041.65192789,3_D,test,03,4,48.0,00110,ignore,0.0,7900.0,4.33738550059
370,3_18_1,18,1.0,2049.41797737,3_D,test,03,4,49.0,11010,kill,1.0,8000.0,5.83403166213
371,3_18_1,18,1.0,2053.37128374,3_D,test,03,4,50.0,10100,ignore,1.0,8100.0,2.09547358495
372,3_18_1,18,1.0,2056.91835422,3_D,test,03,4,51.0,10011,kill,1.0,8200.0,1.67765689947
373,3_18_1,18,1.0,2061.85608803,3_D,test,03,4,52.0,01111,ignore,0.0,8100.0,3.00260205522
374,3_18_1,18,1.0,2064.93440787,3_D,test,03,4,53.0,10001,ignore,1.0,8200.0,1.16975162929
375,3_18_1,18,1.0,2067.49704322,3_D,test,03,4,54.0,11101,ignore,1.0,8300.0,0.627299930723
376,3_18_1,18,1.0,2070.77844268,3_D,test,03,4,55.0,00010,kill,1.0,8400.0,1.42193257043
377,3_18_1,18,1.0,2077.09121883,3_D,test,03,4,56.0,00111,ignore,0.0,8300.0,4.33976657515
378,3_18_1,18,1.0,2086.66990654,3_D,test,03,4,57.0,01110,kill,1.0,8400.0,7.65984117617
379,3_18_1,18,1.0,2091.18571259,3_D,test,03,4,58.0,11011,kill,1.0,8500.0,2.6306733335
380,3_18_1,18,1.0,2096.26408824,3_D,test,03,4,59.0,10010,kill,1.0,8600.0,3.14021687535
381,3_18_1,18,1.0,2099.46742957,3_D,test,03,4,60.0,01001,ignore,1.0,8700.0,1.36074081439
382,3_18_1,18,1.0,2103.26446188,3_D,test,03,4,61.0,11110,kill,0.0,8600.0,1.87464912506
383,3_18_1,18,1.0,2108.07721173,3_D,test,03,4,62.0,00100,ignore,1.0,8700.0,2.87959697491
384,3_18_1,18,1.0,2113.38997922,3_D,test,03,4,63.0,11111,kill,0.0,8600.0,3.43756478678
385,3_18_1,18,1.0,2117.53080676,3_D,test,03,4,64.0,11001,ignore,1.0,8700.0,2.22712417253
386,3_18_1,18,1.0,2120.26534998,3_D,test,03,4,65.0,01000,ignore,1.0,8800.0,0.885124057063
387,3_18_1,18,1.0,2124.96868938,3_D,test,03,4,66.0,10010,kill,1.0,8900.0,2.80338398676
388,3_18_1,18,1.0,2128.10951917,3_D,test,03,4,67.0,10000,ignore,1.0,9000.0,1.21009839893
389,3_18_1,18,1.0,2131.29715483,3_D,test,03,4,68.0,11100,ignore,1.0,9100.0,1.33345531636
390,3_18_1,18,1.0,2134.26605269,3_D,test,03,4,69.0,00100,ignore,1.0,9200.0,1.06572201981
391,3_18_1,18,1.0,2137.29747203,3_D,test,03,4,70.0,10100,ignore,1.0,9300.0,1.09423205214
392,3_18_1,18,1.0,2141.29768275,3_D,test,03,4,71.0,00101,ignore,1.0,9400.0,2.07507120131
393,3_18_1,18,1.0,2149.56374153,3_D,test,03,4,72.0,11110,ignore,1.0,9500.0,6.34462847026
394,3_18_1,18,1.0,2158.04855641,3_D,test,03,4,73.0,10011,kill,1.0,9600.0,6.61773874891
395,3_18_1,18,1.0,2162.29876039,3_D,test,03,5,0.0,11010,kill,0.0,9500.0,2.29997786986
396,3_18_1,18,1.0,2166.67397945,3_D,test,03,5,1.0,01100,ignore,1.0,9600.0,2.43116853543
397,3_18_1,18,1.0,2170.53357238,3_D,test,03,5,2.0,10110,ignore,1.0,9700.0,1.96688657823
398,3_18_1,18,1.0,2177.53393352,3_D,test,03,5,3.0,01111,ignore,0.0,9600.0,5.05502835223
