,unique_id,pair_id,sbj_id,wall_time,condition,block,rule_id,rule_num,trial,stimulus,choice,correct,points,reaction_time
0,3_20_1,20,1.0,39.9838244727,3_D,training,05,1_A,1.0,00001,ignore,1.0,100.0,3.00687637912
1,3_20_1,20,1.0,43.5621302022,3_D,training,05,1_A,2.0,00010,ignore,0.0,0.0,1.50948164161
2,3_20_1,20,1.0,47.2029439498,3_D,training,05,1_A,3.0,11001,kill,0.0,0.0,1.58868155694
3,3_20_1,20,1.0,51.4844312875,3_D,training,05,1_A,4.0,11100,kill,0.0,0.0,2.23246427105
4,3_20_1,20,1.0,55.7502254708,3_D,training,05,1_A,5.0,11010,ignore,0.0,0.0,2.21822689485
5,3_20_1,20,1.0,60.5942836891,3_D,training,05,1_A,6.0,10001,ignore,1.0,100.0,2.78715425668
6,3_20_1,20,1.0,64.0788339662,3_D,training,05,1_A,7.0,01111,kill,0.0,0.0,1.42983655771
7,3_20_1,20,1.0,70.5095842741,3_D,training,05,1_A,8.0,01011,kill,0.0,0.0,4.39145488018
8,3_20_1,20,1.0,76.6192795197,3_D,training,05,1_A,9.0,10110,kill,0.0,0.0,4.04094941499
9,3_20_1,20,1.0,80.1507254837,3_D,training,05,1_A,10.0,01000,ignore,0.0,0.0,1.49663782265
10,3_20_1,20,1.0,84.1665244779,3_D,training,05,1_A,11.0,11111,kill,0.0,0.0,1.96829360599
11,3_20_1,20,1.0,89.8230509442,3_D,training,05,1_A,12.0,01010,kill,1.0,100.0,3.61229056551
12,3_20_1,20,1.0,93.43262271,3_D,training,05,1_A,13.0,00100,ignore,0.0,0.0,1.51631728845
13,3_20_1,20,1.0,97.3547278314,3_D,training,05,1_A,14.0,00111,ignore,1.0,100.0,1.86596577205
14,3_20_1,20,1.0,101.026770411,3_D,training,05,1_A,15.0,01100,kill,1.0,200.0,1.64255721763
15,3_20_1,20,1.0,104.55819649,3_D,training,05,1_A,16.0,11101,ignore,1.0,300.0,1.50162961205
16,3_20_1,20,1.0,107.917780764,3_D,training,05,1_A,17.0,00101,ignore,1.0,400.0,1.34121497665
17,3_20_1,20,1.0,111.605416111,3_D,training,05,1_A,18.0,11000,kill,1.0,500.0,1.6931864833
18,3_20_1,20,1.0,114.824355339,3_D,training,05,1_A,19.0,10011,ignore,1.0,600.0,1.2062355673
19,3_20_1,20,1.0,117.918275966,3_D,training,05,1_A,20.0,11011,ignore,1.0,700.0,1.05805569097
20,3_20_1,20,1.0,121.621604788,3_D,training,05,1_A,21.0,01101,ignore,1.0,800.0,1.68482097039
21,3_20_1,20,1.0,125.40302798,3_D,training,05,1_A,22.0,10101,ignore,1.0,900.0,1.73244598963
22,3_20_1,20,1.0,128.309449569,3_D,training,05,1_A,23.0,00000,kill,1.0,1000.0,0.891353209832
23,3_20_1,20,1.0,131.950235413,3_D,training,05,1_A,24.0,10100,kill,0.0,900.0,1.62022502181
24,3_20_1,20,1.0,136.434857854,3_D,training,05,1_A,25.0,00110,kill,1.0,1000.0,2.44799513778
25,3_20_1,20,1.0,139.903752181,3_D,training,05,1_A,26.0,10000,kill,1.0,1100.0,1.44967093447
26,3_20_1,20,1.0,143.91964162,3_D,training,05,1_A,27.0,11110,kill,0.0,1000.0,2.01194835018
27,3_20_1,20,1.0,147.685431313,3_D,training,05,1_A,28.0,01110,kill,1.0,1100.0,1.76864865038
28,3_20_1,20,1.0,151.966886899,3_D,training,05,1_A,29.0,10010,ignore,0.0,1000.0,2.2702429825
29,3_20_1,20,1.0,156.232724701,3_D,training,05,1_A,30.0,00011,ignore,1.0,1100.0,2.21453982142
30,3_20_1,20,1.0,158.998506055,3_D,training,05,1_A,31.0,01001,ignore,1.0,1200.0,0.761686316519
31,3_20_1,20,1.0,164.108129458,3_D,training,05,1_A,32.0,10111,ignore,1.0,1300.0,3.09683763535
32,3_20_1,20,1.0,167.498922358,3_D,training,05,1_A,33.0,00111,kill,0.0,1200.0,1.37595384102
33,3_20_1,20,1.0,174.749318456,3_D,training,05,1_A,34.0,00110,ignore,0.0,1100.0,5.20514060656
34,3_20_1,20,1.0,178.015120978,3_D,training,05,1_A,35.0,01101,ignore,1.0,1200.0,1.22984810386
35,3_20_1,20,1.0,181.374671897,3_D,training,05,1_A,36.0,11001,ignore,1.0,1300.0,1.37757671781
36,3_20_1,20,1.0,186.265538243,3_D,training,05,1_A,37.0,10111,ignore,1.0,1400.0,2.85480801303
37,3_20_1,20,1.0,189.562569598,3_D,training,05,1_A,38.0,01011,ignore,1.0,1500.0,1.27228633191
38,3_20_1,20,1.0,194.328421191,3_D,training,05,1_A,39.0,10000,kill,1.0,1600.0,2.75408573665
39,3_20_1,20,1.0,197.922418792,3_D,training,05,1_A,40.0,11110,ignore,1.0,1700.0,1.60822022374
40,3_20_1,20,1.0,200.844358098,3_D,training,05,1_A,41.0,00001,ignore,1.0,1800.0,0.917251885873
41,3_20_1,20,1.0,203.922682429,3_D,training,05,1_A,42.0,00010,ignore,0.0,1700.0,1.03657342074
42,3_20_1,20,1.0,206.907220198,3_D,training,05,1_A,43.0,00101,ignore,1.0,1800.0,0.959387027249
43,3_20_1,20,1.0,211.360581734,3_D,training,05,1_A,44.0,00000,kill,1.0,1900.0,2.41370144199
44,3_20_1,20,1.0,214.86080047,3_D,training,05,1_A,45.0,11100,kill,0.0,1800.0,1.48091708575
45,3_20_1,20,1.0,220.267274016,3_D,training,05,1_A,46.0,11101,ignore,1.0,1900.0,3.36028474111
46,3_20_1,20,1.0,224.111190473,3_D,training,05,1_A,47.0,10101,ignore,1.0,2000.0,1.72911139478
47,3_20_1,20,1.0,227.376996523,3_D,training,05,1_A,48.0,10010,kill,1.0,2100.0,1.19871099964
48,3_20_1,20,1.0,230.705305781,3_D,training,05,1_A,49.0,10011,ignore,1.0,2200.0,1.29871613127
49,3_20_1,20,1.0,234.424228652,3_D,training,05,1_A,50.0,01010,kill,1.0,2300.0,1.69927227126
50,3_20_1,20,1.0,240.377680313,3_D,training,05,1_A,51.0,01100,kill,1.0,2400.0,3.94747331554
51,3_20_1,20,1.0,243.487189216,3_D,training,05,1_A,52.0,01000,kill,1.0,2500.0,1.05496805563
52,3_20_1,20,1.0,247.70633403,3_D,training,05,1_A,53.0,11000,kill,1.0,2600.0,2.16850945502
53,3_20_1,20,1.0,250.972121158,3_D,training,05,1_A,54.0,10100,ignore,1.0,2700.0,1.17904532509
54,3_20_1,20,1.0,254.085429389,3_D,training,05,1_A,55.0,10001,ignore,1.0,2800.0,1.02113588546
55,3_20_1,20,1.0,257.091951365,3_D,training,05,1_A,56.0,01001,ignore,1.0,2900.0,0.901804087341
56,3_20_1,20,1.0,260.317584159,3_D,training,05,1_A,57.0,00011,ignore,1.0,3000.0,1.17260994509
57,3_20_1,20,1.0,265.293513945,3_D,training,05,1_A,58.0,01111,kill,0.0,2900.0,2.88800835172
58,3_20_1,20,1.0,269.184303638,3_D,training,05,1_A,59.0,11011,ignore,1.0,3000.0,1.83850868528
59,3_20_1,20,1.0,272.809477472,3_D,training,05,1_A,60.0,10110,ignore,1.0,3100.0,1.54257325396
60,3_20_1,20,1.0,276.26731571,3_D,training,05,1_A,61.0,01110,kill,1.0,3200.0,1.42029461949
61,3_20_1,20,1.0,279.345610535,3_D,training,05,1_A,62.0,11111,ignore,1.0,3300.0,1.05616340381
62,3_20_1,20,1.0,282.830174283,3_D,training,05,1_A,63.0,00100,kill,1.0,3400.0,1.4000830682
63,3_20_1,20,1.0,289.299258801,3_D,training,05,1_A,64.0,11010,kill,1.0,3500.0,4.47741475086
64,3_20_1,20,1.0,292.002518346,3_D,training,05,1_A,65.0,11000,kill,1.0,3600.0,0.659265471853
65,3_20_1,20,1.0,295.221432558,3_D,training,05,1_A,66.0,01010,kill,1.0,3700.0,1.18164032432
66,3_20_1,20,1.0,299.924806281,3_D,training,05,1_A,67.0,00111,ignore,1.0,3800.0,2.68311278032
67,3_20_1,20,1.0,302.878079296,3_D,training,05,1_A,68.0,11011,ignore,1.0,3900.0,0.931021642634
68,3_20_1,20,1.0,306.815788089,3_D,training,05,1_A,69.0,11101,kill,0.0,3800.0,1.92265965772
69,3_20_1,20,1.0,309.753441397,3_D,training,05,1_A,70.0,10010,kill,1.0,3900.0,0.905278198286
70,3_20_1,20,1.0,313.192427644,3_D,training,05,1_A,71.0,01001,ignore,1.0,4000.0,1.40177009032
71,3_20_1,20,1.0,316.426944886,3_D,training,05,1_A,72.0,00000,kill,1.0,4100.0,1.21419311592
72,3_20_1,20,1.0,321.334465285,3_D,training,05,1_A,73.0,10111,kill,0.0,4000.0,2.87326647252
73,3_20_1,20,1.0,324.334662211,3_D,training,05,1_A,74.0,11001,ignore,1.0,4100.0,0.977279724944
74,3_20_1,20,1.0,327.569174963,3_D,training,05,1_A,75.0,11111,ignore,1.0,4200.0,1.23207779545
75,3_20_1,20,1.0,330.538107456,3_D,training,05,1_A,76.0,11010,kill,1.0,4300.0,0.964200813363
76,3_20_1,20,1.0,334.257037705,3_D,training,05,1_A,77.0,11100,ignore,1.0,4400.0,1.71497280238
77,3_20_1,20,1.0,337.804075473,3_D,training,05,1_A,78.0,00110,kill,1.0,4500.0,1.51396347565
78,3_20_1,20,1.0,340.63234464,3_D,training,05,1_A,79.0,00011,ignore,1.0,4600.0,0.809695566275
79,3_20_1,20,1.0,343.648148766,3_D,training,05,1_A,80.0,00010,kill,1.0,4700.0,1.00667881151
80,3_20_1,20,1.0,347.992097616,3_D,training,05,1_A,81.0,11110,ignore,1.0,4800.0,2.33224040386
81,3_20_1,20,1.0,351.211014394,3_D,training,05,1_A,82.0,00101,ignore,1.0,4900.0,1.2027800585
82,3_20_1,20,1.0,354.304905193,3_D,training,05,1_A,83.0,10101,ignore,1.0,5000.0,1.06242045979
83,3_20_1,20,1.0,357.351934302,3_D,training,05,1_A,84.0,00100,kill,1.0,5100.0,1.01587404423
84,3_20_1,20,1.0,361.180283009,3_D,training,05,1_A,85.0,01110,kill,1.0,5200.0,1.83753527993
85,3_20_1,20,1.0,364.30544658,3_D,training,05,1_A,86.0,01011,ignore,1.0,5300.0,1.13774856314
86,3_20_1,20,1.0,368.321271874,3_D,training,05,1_A,87.0,01100,kill,1.0,5400.0,2.02569309027
87,3_20_1,20,1.0,372.524575999,3_D,training,05,1_A,88.0,10110,ignore,1.0,5500.0,2.18101779391
88,3_20_1,20,1.0,375.321621786,3_D,training,05,1_A,89.0,01111,ignore,1.0,5600.0,0.793501436856
89,3_20_1,20,1.0,378.056123634,3_D,training,05,1_A,90.0,00001,ignore,1.0,5700.0,0.743775658131
90,3_20_1,20,1.0,381.103189947,3_D,training,05,1_A,91.0,10001,ignore,1.0,5800.0,1.04034452455
91,3_20_1,20,1.0,385.902572548,3_D,training,05,1_A,92.0,10000,kill,1.0,5900.0,2.79574716478
92,3_20_1,20,1.0,389.793427349,3_D,training,05,1_A,93.0,01000,kill,1.0,6000.0,1.88051906399
93,3_20_1,20,1.0,394.371765472,3_D,training,05,1_A,94.0,10100,kill,0.0,5900.0,2.56035882896
94,3_20_1,20,1.0,397.278177439,3_D,training,05,1_A,95.0,01101,ignore,1.0,6000.0,0.902631882794
95,3_20_1,20,1.0,400.028290976,3_D,training,05,1_A,96.0,10011,ignore,1.0,6100.0,0.727054574844
96,3_20_1,20,1.0,403.231593498,3_D,training,05,1_A,97.0,11111,ignore,1.0,6200.0,1.19134968184
97,3_20_1,20,1.0,407.919325063,3_D,training,05,1_A,98.0,11100,ignore,1.0,6300.0,2.68529372146
98,3_20_1,20,1.0,410.763230936,3_D,training,05,1_A,99.0,00011,ignore,1.0,6400.0,0.829561694976
99,3_20_1,20,1.0,414.029028968,3_D,training,05,1_A,100.0,00110,kill,1.0,6500.0,1.27437041361
100,3_20_1,20,1.0,417.29481353,3_D,training,05,1_A,101.0,10010,kill,1.0,6600.0,1.2524381639
101,3_20_1,20,1.0,420.388710102,3_D,training,05,1_A,102.0,00010,kill,1.0,6700.0,1.07836795043
102,3_20_1,20,1.0,423.420099938,3_D,training,05,1_A,103.0,00101,ignore,1.0,6800.0,1.02510872633
103,3_20_1,20,1.0,427.435918176,3_D,training,05,1_A,104.0,01000,kill,1.0,6900.0,2.01315428234
104,3_20_1,20,1.0,430.983009506,3_D,training,05,1_A,105.0,01111,ignore,1.0,7000.0,1.57856423513
105,3_20_1,20,1.0,434.592575499,3_D,training,05,1_A,106.0,10011,ignore,1.0,7100.0,1.58430524196
106,3_20_1,20,1.0,443.296146469,3_D,training,05,1_A,107.0,10111,ignore,1.0,7200.0,6.68516222353
107,3_20_1,20,1.0,447.812004798,3_D,training,05,1_A,108.0,11000,kill,1.0,7300.0,2.54813625751
108,3_20_1,20,1.0,451.296553151,3_D,training,05,1_A,109.0,11011,ignore,1.0,7400.0,1.50686034279
109,3_20_1,20,1.0,456.281215041,3_D,training,05,1_A,110.0,00111,ignore,1.0,7500.0,2.96332009801
110,3_20_1,20,1.0,460.562727074,3_D,training,05,1_A,111.0,11001,ignore,1.0,7600.0,2.26467260225
111,3_20_1,20,1.0,469.985069213,3_D,training,05,1_A,112.0,01101,ignore,1.0,7700.0,7.40157508852
112,3_20_1,20,1.0,473.594639696,3_D,training,05,1_A,113.0,01100,kill,1.0,7800.0,1.61873011495
113,3_20_1,20,1.0,479.657410068,3_D,training,05,1_A,114.0,01001,ignore,1.0,7900.0,4.03756639041
114,3_20_1,20,1.0,487.53279494,3_D,training,05,1_A,115.0,10100,kill,0.0,7800.0,5.85437791861
115,3_20_1,20,1.0,507.565098848,3_D,training,05,1_A,116.0,10001,ignore,1.0,7900.0,18.0299449633
116,3_20_1,20,1.0,511.784069508,3_D,training,05,1_A,117.0,11101,ignore,1.0,8000.0,2.22059514035
117,3_20_1,20,1.0,514.706090278,3_D,training,05,1_A,118.0,10000,kill,1.0,8100.0,0.937210704572
118,3_20_1,20,1.0,520.862669664,3_D,training,05,1_A,119.0,01110,kill,1.0,8200.0,4.13687169652
119,3_20_1,20,1.0,544.895163763,3_D,training,05,1_A,120.0,10110,ignore,1.0,8300.0,22.0295995407
120,3_20_1,20,1.0,547.942196721,3_D,training,05,1_A,121.0,00001,ignore,1.0,8400.0,1.0661902807
121,3_20_1,20,1.0,551.301735452,3_D,training,05,1_A,122.0,11010,kill,1.0,8500.0,1.37368053061
122,3_20_1,20,1.0,554.661305935,3_D,training,05,1_A,123.0,11110,ignore,1.0,8600.0,1.38161819418
123,3_20_1,20,1.0,557.520837289,3_D,training,05,1_A,124.0,01011,ignore,1.0,8700.0,0.858728254733
124,3_20_1,20,1.0,560.427196977,3_D,training,05,1_A,125.0,01010,kill,1.0,8800.0,0.91054613332
125,3_20_1,20,1.0,565.411851811,3_D,training,05,1_A,126.0,00100,ignore,0.0,8700.0,2.98413301175
126,3_20_1,20,1.0,569.818347809,3_D,training,05,1_A,127.0,00000,kill,1.0,8800.0,2.39682480628
127,3_20_1,20,1.0,577.631185855,3_D,training,05,1_A,128.0,10101,ignore,1.0,8900.0,5.78439023452
128,3_20_1,20,1.0,580.56885135,3_D,training,05,1_A,129.0,01111,ignore,1.0,9000.0,0.946525889054
129,3_20_1,20,1.0,583.631499205,3_D,training,05,1_A,130.0,01000,kill,1.0,9100.0,1.06657611485
130,3_20_1,20,1.0,589.084921679,3_D,training,05,1_A,131.0,00011,ignore,1.0,9200.0,3.47025452866
131,3_20_1,20,1.0,593.960165752,3_D,training,05,1_A,132.0,11111,ignore,1.0,9300.0,2.89577346436
132,3_20_1,20,1.0,597.085368771,3_D,training,05,1_A,133.0,10111,ignore,1.0,9400.0,1.12766427618
133,3_20_1,20,1.0,602.866888823,3_D,training,05,1_A,134.0,10101,kill,0.0,9300.0,3.78509936111
134,3_20_1,20,1.0,605.835817147,3_D,training,05,1_A,135.0,11000,kill,1.0,9400.0,0.965082490891
135,3_20_1,20,1.0,609.57035203,3_D,training,05,1_A,136.0,11001,ignore,1.0,9500.0,1.75642736183
136,3_20_1,20,1.0,613.820567237,3_D,training,05,1_A,137.0,01101,ignore,1.0,9600.0,2.24287281264
137,3_20_1,20,1.0,617.086354364,3_D,training,05,1_A,138.0,00100,kill,1.0,9700.0,1.25312451891
138,3_20_1,20,1.0,620.602167791,3_D,training,05,1_A,139.0,11101,ignore,1.0,9800.0,1.53710646841
139,3_20_1,20,1.0,623.805454277,3_D,training,05,1_A,140.0,01100,kill,1.0,9900.0,1.20892902961
140,3_20_1,20,1.0,632.852820791,3_D,training,05,1_A,141.0,10100,kill,0.0,9800.0,7.06274856314
141,3_20_1,20,1.0,635.899834826,3_D,training,05,1_A,142.0,10011,ignore,1.0,9900.0,1.04474874275
142,3_20_1,20,1.0,639.056251604,3_D,training,05,1_A,143.0,11100,ignore,1.0,10000.0,1.16083350439
143,3_20_1,20,1.0,641.859292413,3_D,training,05,1_A,144.0,01010,kill,1.0,10100.0,0.800217773388
144,3_20_1,20,1.0,648.650476279,3_D,training,05,1_A,145.0,00110,kill,1.0,10200.0,4.7820482886
145,3_20_1,20,1.0,651.244376379,3_D,training,05,1_A,146.0,01110,kill,1.0,10300.0,0.642135462103
146,3_20_1,20,1.0,654.103892018,3_D,training,05,1_A,147.0,01011,ignore,1.0,10400.0,0.837860496741
147,3_20_1,20,1.0,657.744688446,3_D,training,05,1_A,148.0,00101,ignore,1.0,10500.0,1.61758415867
148,3_20_1,20,1.0,660.494791079,3_D,training,05,1_A,149.0,10001,ignore,1.0,10600.0,0.725426566429
149,3_20_1,20,1.0,667.307709306,3_D,training,05,1_A,150.0,11011,ignore,1.0,10700.0,4.84620035152
150,3_20_1,20,1.0,670.776598502,3_D,training,05,1_A,151.0,10000,kill,1.0,10800.0,1.47153775594
151,3_20_1,20,1.0,673.933029391,3_D,training,05,1_A,152.0,00001,ignore,1.0,10900.0,1.15367745163
152,3_20_1,20,1.0,677.526946169,3_D,training,05,1_A,153.0,11010,kill,1.0,11000.0,1.60986298558
153,3_20_1,20,1.0,680.699006389,3_D,training,05,1_A,154.0,00010,ignore,0.0,10900.0,1.18344056294
154,3_20_1,20,1.0,683.308484182,3_D,training,05,1_A,155.0,01001,ignore,1.0,11000.0,0.604860612203
155,3_20_1,20,1.0,692.418358072,3_D,training,05,1_A,156.0,10110,ignore,1.0,11100.0,7.11477138605
156,3_20_1,20,1.0,695.371609919,3_D,training,05,1_A,157.0,00111,ignore,1.0,11200.0,0.967697375173
157,3_20_1,20,1.0,698.637411159,3_D,training,05,1_A,158.0,10010,kill,1.0,11300.0,1.26258146457
158,3_20_1,20,1.0,707.591008749,3_D,training,05,1_A,159.0,00000,kill,1.0,11400.0,6.90661210037
159,3_20_1,20,1.0,711.309915264,3_D,training,05,1_A,160.0,11110,ignore,1.0,11500.0,1.70714803459
160,3_20_1,20,1.0,714.23195624,3_D,training,05,1_A,161.0,10001,ignore,1.0,11600.0,0.924251424026
161,3_20_1,20,1.0,716.997741764,3_D,training,05,1_A,162.0,11000,kill,1.0,11700.0,0.823118938267
162,3_20_1,20,1.0,719.841612678,3_D,training,05,1_A,163.0,10111,ignore,1.0,11800.0,0.852929837841
163,3_20_1,20,1.0,722.794912955,3_D,training,05,1_A,164.0,00101,ignore,1.0,11900.0,0.976985939344
164,3_20_1,20,1.0,726.107570752,3_D,training,05,1_A,165.0,10100,kill,0.0,11800.0,1.32016857392
165,3_20_1,20,1.0,729.279595692,3_D,training,05,1_A,166.0,00000,kill,1.0,11900.0,1.17657348489
166,3_20_1,20,1.0,732.842300636,3_D,training,05,1_A,167.0,11100,ignore,1.0,12000.0,1.60147502181
167,3_20_1,20,1.0,735.733047352,3_D,training,05,1_A,168.0,00001,ignore,1.0,12100.0,0.927192166572
168,3_20_1,20,1.0,739.092612062,3_D,training,05,1_A,169.0,10110,ignore,1.0,12200.0,1.35190736132
169,3_20_1,20,1.0,741.780285896,3_D,training,05,1_A,170.0,11110,ignore,1.0,12300.0,0.72028980859
170,3_20_1,20,1.0,744.327254388,3_D,training,05,1_A,171.0,00111,ignore,1.0,12400.0,0.553406758351
171,3_20_1,20,1.0,746.655498858,3_D,training,05,1_A,172.0,01111,ignore,1.0,12500.0,0.387479152769
172,3_20_1,20,1.0,749.499396392,3_D,training,05,1_A,173.0,11010,kill,1.0,12600.0,0.858899522758
173,3_20_1,20,1.0,752.249570547,3_D,training,05,1_A,174.0,01010,kill,1.0,12700.0,0.791980871863
174,3_20_1,20,1.0,755.468441461,3_D,training,05,1_A,175.0,00100,kill,1.0,12800.0,1.2222356571
175,3_20_1,20,1.0,758.359250398,3_D,training,05,1_A,176.0,01100,kill,1.0,12900.0,0.899563811771
176,3_20_1,20,1.0,761.328112652,3_D,training,05,1_A,177.0,11011,ignore,1.0,13000.0,1.02320457228
177,3_20_1,20,1.0,764.812681211,3_D,training,05,1_A,178.0,00010,kill,1.0,13100.0,1.47512347975
178,3_20_1,20,1.0,769.359806858,3_D,training,05,1_A,179.0,11101,ignore,1.0,13200.0,2.57425463129
179,3_20_1,20,1.0,772.56306929,3_D,training,05,1_A,180.0,10011,ignore,1.0,13300.0,1.2459472982
180,3_20_1,20,1.0,775.625749538,3_D,training,05,1_A,181.0,00110,kill,1.0,13400.0,1.0659218325
181,3_20_1,20,1.0,778.860336699,3_D,training,05,1_A,182.0,01011,ignore,1.0,13500.0,1.27790931134
182,3_20_1,20,1.0,781.641685803,3_D,training,05,1_A,183.0,01000,kill,1.0,13600.0,0.818114319803
183,3_20_1,20,1.0,784.454335903,3_D,training,05,1_A,184.0,10010,kill,1.0,13700.0,0.815190255042
184,3_20_1,20,1.0,788.767020001,3_D,training,05,1_A,185.0,01101,ignore,1.0,13800.0,2.35018024837
185,3_20_1,20,1.0,791.204680685,3_D,training,05,1_A,186.0,00011,ignore,1.0,13900.0,0.469892107559
186,3_20_1,20,1.0,793.939185098,3_D,training,05,1_A,187.0,11001,ignore,1.0,14000.0,0.762579540206
187,3_20_1,20,1.0,798.548791823,3_D,training,05,1_A,188.0,11111,ignore,1.0,14100.0,2.65903647303
188,3_20_1,20,1.0,801.095788859,3_D,training,05,1_A,189.0,10101,ignore,1.0,14200.0,0.55756465849
189,3_20_1,20,1.0,804.314713976,3_D,training,05,1_A,190.0,10000,kill,1.0,14300.0,1.25476856366
190,3_20_1,20,1.0,809.658719274,3_D,training,05,1_A,191.0,01001,ignore,1.0,14400.0,3.38764817571
191,3_20_1,20,1.0,812.830775645,3_D,training,05,1_A,192.0,01110,ignore,0.0,14300.0,1.20134673115
192,3_20_1,20,1.0,815.940305396,3_D,training,05,1_A,193.0,00110,kill,1.0,14400.0,1.14379778827
193,3_20_1,20,1.0,818.877966401,3_D,training,05,1_A,194.0,00010,kill,1.0,14500.0,0.960788281931
194,3_20_1,20,1.0,821.612481077,3_D,training,05,1_A,195.0,00001,ignore,1.0,14600.0,0.794077141171
195,3_20_1,20,1.0,824.471979717,3_D,training,05,1_A,196.0,01110,kill,1.0,14700.0,0.864399022425
196,3_20_1,20,1.0,827.175270373,3_D,training,05,1_A,197.0,01100,kill,1.0,14800.0,0.724218068456
197,3_20_1,20,1.0,829.675388721,3_D,training,05,1_A,198.0,00100,kill,1.0,14900.0,0.534562143994
198,3_20_1,20,1.0,832.300501296,3_D,training,05,1_A,199.0,01001,kill,0.0,14800.0,0.631813195977
199,3_20_1,20,1.0,835.425736709,3_D,training,05,1_A,200.0,10001,ignore,1.0,14900.0,1.16617296146
200,3_20_1,20,1.0,838.832121735,3_D,training,05,1_A,201.0,10110,ignore,1.0,15000.0,1.40432211218
201,3_20_1,20,1.0,842.379169767,3_D,training,05,1_A,202.0,11011,ignore,1.0,15100.0,1.56298622158
202,3_20_1,20,1.0,1058.35899767,3_D,test,05,2,0.0,01000,,,0.0,
203,3_20_1,20,1.0,1063.3748685,3_D,test,05,2,1.0,01011,ignore,1.0,100.0,3.02996548981
204,3_20_1,20,1.0,1068.515765,3_D,test,05,2,2.0,10100,kill,1.0,200.0,3.18727260481
205,3_20_1,20,1.0,1072.96911755,3_D,test,05,2,3.0,10011,ignore,1.0,300.0,2.48911806589
206,3_20_1,20,1.0,1076.42243258,3_D,test,05,2,4.0,00000,kill,0.0,200.0,1.46641094063
207,3_20_1,20,1.0,1080.96954829,3_D,test,05,2,5.0,11000,kill,0.0,100.0,2.62359104788
208,3_20_1,20,1.0,1088.64180191,3_D,test,05,2,6.0,00101,kill,1.0,200.0,5.69162165803
209,3_20_1,20,1.0,1093.28264324,3_D,test,05,2,7.0,01111,ignore,0.0,100.0,2.67554683892
210,3_20_1,20,1.0,1097.39225349,3_D,test,05,2,8.0,11100,kill,0.0,0.0,2.13412852158
211,3_20_1,20,1.0,1102.65814678,3_D,test,05,2,9.0,11101,kill,0.0,0.0,3.28612793144
212,3_20_1,20,1.0,1107.81462642,3_D,test,05,2,10.0,10010,ignore,1.0,100.0,3.22518313491
213,3_20_1,20,1.0,1112.84614904,3_D,test,05,2,11.0,11111,ignore,0.0,0.0,3.05286825833
214,3_20_1,20,1.0,1116.95579232,3_D,test,05,2,12.0,10111,kill,1.0,100.0,2.12742212757
215,3_20_1,20,1.0,1124.36237139,3_D,test,05,2,13.0,01101,ignore,1.0,200.0,5.45711596192
216,3_20_1,20,1.0,1132.59715419,3_D,test,05,2,14.0,10101,ignore,0.0,100.0,6.25762752091
217,3_20_1,20,1.0,1139.62881536,3_D,test,05,2,15.0,00011,kill,0.0,0.0,5.11564953559
218,3_20_1,20,1.0,1145.16032676,3_D,test,05,2,16.0,10000,ignore,1.0,100.0,3.52973969826
219,3_20_1,20,1.0,1155.61398304,3_D,test,05,2,17.0,00111,kill,1.0,200.0,8.47312118335
220,3_20_1,20,1.0,1161.84866834,3_D,test,05,2,18.0,01010,ignore,1.0,300.0,4.29579719813
221,3_20_1,20,1.0,1166.47393006,3_D,test,05,2,19.0,11110,kill,1.0,400.0,2.64868630369
222,3_20_1,20,1.0,1174.52121927,3_D,test,05,2,20.0,11001,ignore,1.0,500.0,6.10951628008
223,3_20_1,20,1.0,1183.66228319,3_D,test,05,2,21.0,11010,kill,0.0,400.0,7.18871298815
224,3_20_1,20,1.0,1192.39710512,3_D,test,05,2,22.0,01000,ignore,1.0,500.0,6.7665081208
225,3_20_1,20,1.0,1202.31949826,3_D,test,05,2,23.0,11100,kill,0.0,400.0,7.99582029045
226,3_20_1,20,1.0,1209.53862351,3_D,test,05,2,24.0,11010,ignore,1.0,500.0,5.28712859855
227,3_20_1,20,1.0,1215.30456939,3_D,test,05,2,25.0,11011,ignore,1.0,600.0,3.79103184174
228,3_20_1,20,1.0,1221.75803901,3_D,test,05,2,26.0,10110,kill,1.0,700.0,4.49221628522
229,3_20_1,20,1.0,1228.60208087,3_D,test,05,2,27.0,01001,ignore,1.0,800.0,4.86823202648
230,3_20_1,20,1.0,1234.7274279,3_D,test,05,2,28.0,00100,kill,1.0,900.0,4.1826249551
231,3_20_1,20,1.0,1242.1809421,3_D,test,05,2,29.0,11000,kill,0.0,800.0,5.54160658388
232,3_20_1,20,1.0,1261.88509391,3_D,test,05,2,30.0,11111,kill,1.0,900.0,17.7311598758
233,3_20_1,20,1.0,1266.63528442,3_D,test,05,2,31.0,00001,ignore,1.0,1000.0,2.79159984862
234,3_20_1,20,1.0,1272.22932083,3_D,test,05,2,32.0,11101,ignore,1.0,1100.0,3.62143929286
235,3_20_1,20,1.0,1281.38607437,3_D,test,05,2,33.0,00011,kill,0.0,1000.0,7.21880612716
236,3_20_1,20,1.0,1286.57383769,3_D,test,05,2,34.0,01010,ignore,1.0,1100.0,3.2115788731
237,3_20_1,20,1.0,1292.82414462,3_D,test,05,2,35.0,11001,ignore,1.0,1200.0,4.27175809514
238,3_20_1,20,1.0,1301.43399382,3_D,test,05,2,36.0,00010,ignore,1.0,1300.0,6.68266921537
239,3_20_1,20,1.0,1307.91869484,3_D,test,05,2,37.0,11110,kill,1.0,1400.0,4.52202814697
240,3_20_1,20,1.0,1312.91972565,3_D,test,05,2,38.0,01101,ignore,1.0,1500.0,3.05050674809
241,3_20_1,20,1.0,1319.45128579,3_D,test,05,2,39.0,10111,kill,1.0,1600.0,4.53169452712
242,3_20_1,20,1.0,1324.73283118,3_D,test,05,2,40.0,01011,ignore,1.0,1700.0,3.32306922564
243,3_20_1,20,1.0,1328.29553709,3_D,test,05,2,41.0,10100,ignore,0.0,1600.0,1.6128624211
244,3_20_1,20,1.0,1333.95202731,3_D,test,05,2,42.0,10011,ignore,1.0,1700.0,3.66570822856
245,3_20_1,20,1.0,1337.76472296,3_D,test,05,2,43.0,10001,ignore,1.0,1800.0,1.87639612306
246,3_20_1,20,1.0,1342.23372729,3_D,test,05,2,44.0,01111,ignore,0.0,1700.0,2.52866205676
247,3_20_1,20,1.0,1348.45276338,3_D,test,05,2,45.0,00110,kill,1.0,1800.0,4.24954681326
248,3_20_1,20,1.0,1352.48423853,3_D,test,05,2,46.0,00101,ignore,0.0,1700.0,2.08503264997
249,3_20_1,20,1.0,1357.78142063,3_D,test,05,2,47.0,00111,ignore,0.0,1600.0,3.3437692436
250,3_20_1,20,1.0,1367.15688408,3_D,test,05,2,48.0,00000,ignore,1.0,1700.0,7.41531950788
251,3_20_1,20,1.0,1373.25094871,3_D,test,05,2,49.0,10101,kill,1.0,1800.0,4.14530167548
252,3_20_1,20,1.0,1383.10153371,3_D,test,05,2,50.0,10010,ignore,1.0,1900.0,7.88842305126
253,3_20_1,20,1.0,1388.02363018,3_D,test,05,2,51.0,10000,kill,0.0,1800.0,3.0249698517
254,3_20_1,20,1.0,1406.13396591,3_D,test,05,2,52.0,01110,kill,1.0,1900.0,16.1406254811
255,3_20_1,20,1.0,1411.55611978,3_D,test,05,2,53.0,01100,ignore,1.0,2000.0,3.47488004824
256,3_20_1,20,1.0,1415.1656428,3_D,test,05,2,54.0,00110,kill,1.0,2100.0,1.67852382358
257,3_20_1,20,1.0,1421.46281592,3_D,test,05,2,55.0,01100,ignore,1.0,2200.0,4.35499114794
258,3_20_1,20,1.0,1424.58803048,3_D,test,05,2,56.0,11110,kill,1.0,2300.0,1.23629855801
259,3_20_1,20,1.0,1429.46326012,3_D,test,05,2,57.0,10111,kill,1.0,2400.0,2.8803843588
260,3_20_1,20,1.0,1436.16671082,3_D,test,05,2,58.0,10010,kill,0.0,2300.0,4.73880535742
261,3_20_1,20,1.0,1449.79241225,3_D,test,05,2,59.0,00010,ignore,1.0,2400.0,11.6905276595
262,3_20_1,20,1.0,1454.5114044,3_D,test,05,3,0.0,11111,kill,0.0,2300.0,2.77397848566
263,3_20_1,20,1.0,1461.51178318,3_D,test,05,3,1.0,00011,ignore,1.0,2400.0,5.10356583876
264,3_20_1,20,1.0,1468.30898131,3_D,test,05,3,2.0,11000,ignore,0.0,2300.0,4.85620926772
265,3_20_1,20,1.0,1478.98141646,3_D,test,05,3,3.0,11010,kill,1.0,2400.0,8.7391831734
266,3_20_1,20,1.0,1486.66933693,3_D,test,05,3,4.0,01011,ignore,1.0,2500.0,5.78523150049
267,3_20_1,20,1.0,1496.04481898,3_D,test,05,3,5.0,11001,ignore,0.0,2400.0,7.40693924155
268,3_20_1,20,1.0,1505.93594223,3_D,test,05,3,6.0,11101,kill,0.0,2300.0,7.94291739365
269,3_20_1,20,1.0,1518.93658849,3_D,test,05,3,7.0,10100,kill,1.0,2400.0,11.0599781264
270,3_20_1,20,1.0,1525.57756196,3_D,test,05,3,8.0,10000,kill,1.0,2500.0,4.68065729717
271,3_20_1,20,1.0,1528.53082408,3_D,test,05,3,9.0,10110,kill,1.0,2600.0,1.04398252681
272,3_20_1,20,1.0,1534.04675232,3_D,test,05,3,10.0,01110,ignore,1.0,2700.0,3.60339777801
273,3_20_1,20,1.0,1539.31263471,3_D,test,05,3,11.0,00000,ignore,1.0,2800.0,3.32069745215
274,3_20_1,20,1.0,1562.75135443,3_D,test,05,3,12.0,00100,kill,0.0,2700.0,21.5061887412
275,3_20_1,20,1.0,1568.82980737,3_D,test,05,3,13.0,01001,ignore,1.0,2800.0,4.11762136296
276,3_20_1,20,1.0,1574.47074877,3_D,test,05,3,14.0,01000,ignore,1.0,2900.0,3.75180921897
277,3_20_1,20,1.0,1577.64273009,3_D,test,05,3,15.0,00001,ignore,1.0,3000.0,1.18174520193
278,3_20_1,20,1.0,1584.8462568,3_D,test,05,3,16.0,10011,kill,1.0,3100.0,5.25390997845
279,3_20_1,20,1.0,1589.90901595,3_D,test,05,3,17.0,00111,kill,0.0,3000.0,3.14525003849
280,3_20_1,20,1.0,1594.90923661,3_D,test,05,3,18.0,11100,kill,1.0,3100.0,3.049862729
281,3_20_1,20,1.0,1601.62832112,3_D,test,05,3,19.0,10101,kill,0.0,3000.0,4.83172884487
282,3_20_1,20,1.0,1607.6755138,3_D,test,05,3,20.0,10001,kill,1.0,3100.0,4.05816537948
283,3_20_1,20,1.0,1615.81658574,3_D,test,05,3,21.0,01010,ignore,1.0,3200.0,6.19675424642
284,3_20_1,20,1.0,1620.3480333,3_D,test,05,3,22.0,01111,ignore,1.0,3300.0,2.61829168163
285,3_20_1,20,1.0,1623.98885379,3_D,test,05,3,23.0,11011,kill,1.0,3400.0,1.71258948273
286,3_20_1,20,1.0,1628.6765969,3_D,test,05,3,24.0,00101,ignore,1.0,3500.0,2.78931018115
287,3_20_1,20,1.0,1631.87990263,3_D,test,05,3,25.0,01101,ignore,1.0,3600.0,1.28556665983
288,3_20_1,20,1.0,1635.97385629,3_D,test,05,3,26.0,01010,ignore,1.0,3700.0,2.15338045877
289,3_20_1,20,1.0,1641.02097809,3_D,test,05,3,27.0,01011,ignore,1.0,3800.0,3.157029045
290,3_20_1,20,1.0,1644.28678061,3_D,test,05,3,28.0,00001,ignore,1.0,3900.0,1.34130189357
291,3_20_1,20,1.0,1648.09948395,3_D,test,05,3,29.0,11011,kill,1.0,4000.0,1.89590560374
292,3_20_1,20,1.0,1654.30293465,3_D,test,05,4,0.0,11110,kill,0.0,3900.0,4.30945726638
293,3_20_1,20,1.0,1659.77197715,3_D,test,05,4,1.0,00100,ignore,1.0,4000.0,3.51010802073
294,3_20_1,20,1.0,1665.42852126,3_D,test,05,4,2.0,00010,ignore,0.0,3900.0,3.77765048494
295,3_20_1,20,1.0,1670.97564402,3_D,test,05,4,3.0,11111,ignore,1.0,4000.0,3.56780225278
296,3_20_1,20,1.0,1678.74189075,3_D,test,05,4,4.0,00111,ignore,0.0,3900.0,5.82239505824
297,3_20_1,20,1.0,1682.17956586,3_D,test,05,4,5.0,01101,ignore,1.0,4000.0,1.53937111921
298,3_20_1,20,1.0,1690.58657791,3_D,test,05,4,6.0,10101,kill,0.0,3900.0,6.45344620773
299,3_20_1,20,1.0,1694.80554344,3_D,test,05,4,7.0,01110,ignore,0.0,3800.0,2.3447769667
300,3_20_1,20,1.0,1700.64959973,3_D,test,05,4,8.0,00000,ignore,1.0,3900.0,3.85665732283
301,3_20_1,20,1.0,1710.19696208,3_D,test,05,4,9.0,10010,kill,1.0,4000.0,7.59587353107
302,3_20_1,20,1.0,1716.91610336,3_D,test,05,4,10.0,10100,ignore,1.0,4100.0,4.79917060091
303,3_20_1,20,1.0,1722.01008012,3_D,test,05,4,11.0,11101,ignore,1.0,4200.0,3.1486490994
304,3_20_1,20,1.0,1733.57630472,3_D,test,05,4,12.0,10001,ignore,1.0,4300.0,9.678401306
305,3_20_1,20,1.0,1742.71741995,3_D,test,05,4,13.0,10011,ignore,0.0,4200.0,7.2051531149
306,3_20_1,20,1.0,1752.76481821,3_D,test,05,4,14.0,11010,ignore,1.0,4300.0,8.11220108277
307,3_20_1,20,1.0,1763.45285383,3_D,test,05,4,15.0,10111,kill,1.0,4400.0,8.79968151845
308,3_20_1,20,1.0,1774.17215002,3_D,test,05,4,16.0,11001,kill,0.0,4300.0,8.81969357777
309,3_20_1,20,1.0,1778.87553369,3_D,test,05,4,17.0,10000,ignore,1.0,4400.0,2.76391632883
310,3_20_1,20,1.0,1783.01635225,3_D,test,05,4,18.0,01111,ignore,0.0,4300.0,2.22129913532
311,3_20_1,20,1.0,1793.3606462,3_D,test,05,4,19.0,01100,ignore,1.0,4400.0,8.3874060271
312,3_20_1,20,1.0,1799.39220891,3_D,test,05,4,20.0,01001,ignore,1.0,4500.0,4.13587551958
313,3_20_1,20,1.0,1808.40826577,3_D,test,05,4,21.0,00110,kill,1.0,4600.0,7.02173660646
314,3_20_1,20,1.0,1819.44010045,3_D,test,05,4,22.0,00011,ignore,0.0,4500.0,9.07082830862
315,3_20_1,20,1.0,1826.1123329,3_D,test,05,4,23.0,00101,ignore,1.0,4600.0,4.75065748961
316,3_20_1,20,1.0,1831.9285033,3_D,test,05,4,24.0,10110,kill,1.0,4700.0,3.86915668138
317,3_20_1,20,1.0,1840.42893211,3_D,test,05,4,25.0,01000,ignore,1.0,4800.0,6.6191762457
318,3_20_1,20,1.0,1847.31994471,3_D,test,05,4,26.0,11100,kill,0.0,4700.0,4.90817596346
319,3_20_1,20,1.0,1861.02373794,3_D,test,05,4,27.0,11000,kill,0.0,4600.0,11.7644606019
320,3_20_1,20,1.0,1869.36790392,3_D,test,05,4,28.0,11011,ignore,1.0,4700.0,6.42210255555
321,3_20_1,20,1.0,1877.83715265,3_D,test,05,4,29.0,01111,kill,1.0,4800.0,6.54516087648
322,3_20_1,20,1.0,1882.32172923,3_D,test,05,4,30.0,00011,ignore,0.0,4700.0,2.58525908298
323,3_20_1,20,1.0,1890.05648573,3_D,test,05,4,31.0,11100,ignore,1.0,4800.0,5.82544324421
324,3_20_1,20,1.0,1897.47873614,3_D,test,05,4,32.0,00111,kill,1.0,4900.0,5.46003489506
325,3_20_1,20,1.0,1907.60424161,3_D,test,05,4,33.0,10100,kill,0.0,4800.0,8.21506196439
326,3_20_1,20,1.0,1913.6046329,3_D,test,05,4,34.0,10110,kill,1.0,4900.0,4.05625769744
327,3_20_1,20,1.0,1926.51143807,3_D,test,05,4,35.0,11001,kill,0.0,4800.0,11.0222247524
328,3_20_1,20,1.0,1933.0743037,3_D,test,05,4,36.0,10111,kill,1.0,4900.0,4.64619425771
329,3_20_1,20,1.0,1938.38710294,3_D,test,05,4,37.0,01001,ignore,1.0,5000.0,3.36994855545
330,3_20_1,20,1.0,1943.13733611,3_D,test,05,4,38.0,10010,ignore,0.0,4900.0,2.85924911479
331,3_20_1,20,1.0,1953.70037878,3_D,test,05,4,39.0,10001,kill,0.0,4800.0,8.66474604865
332,3_20_1,20,1.0,1962.20081561,3_D,test,05,4,40.0,11000,ignore,1.0,4900.0,6.56039956125
333,3_20_1,20,1.0,1969.02928459,3_D,test,05,4,41.0,01101,ignore,1.0,5000.0,4.90186053523
334,3_20_1,20,1.0,1973.32638907,3_D,test,05,4,42.0,11111,kill,0.0,4900.0,2.35094806794
335,3_20_1,20,1.0,1987.78024677,3_D,test,05,4,43.0,00110,kill,1.0,5000.0,12.561336083
336,3_20_1,20,1.0,1997.53072722,3_D,test,05,4,44.0,00000,ignore,1.0,5100.0,7.75995022323
337,3_20_1,20,1.0,2001.54657913,3_D,test,05,4,45.0,01000,ignore,1.0,5200.0,2.06787698209
338,3_20_1,20,1.0,2009.18759109,3_D,test,05,4,46.0,11010,kill,0.0,5100.0,5.7379887874
339,3_20_1,20,1.0,2026.39160562,3_D,test,05,4,47.0,11110,ignore,1.0,5200.0,15.280855827
340,3_20_1,20,1.0,2035.81395738,3_D,test,05,4,48.0,01100,ignore,1.0,5300.0,7.54109470416
341,3_20_1,20,1.0,2044.07998922,3_D,test,05,4,49.0,10000,ignore,1.0,5400.0,6.28870913943
342,3_20_1,20,1.0,2054.68995741,3_D,test,05,4,50.0,11101,kill,0.0,5300.0,8.65651716529
343,3_20_1,20,1.0,2062.7528519,3_D,test,05,4,51.0,01110,ignore,0.0,5200.0,6.17068077436
344,3_20_1,20,1.0,2068.86251668,3_D,test,05,4,52.0,01010,ignore,0.0,5100.0,4.1916947837
345,3_20_1,20,1.0,2075.59725073,3_D,test,05,5,0.0,00001,ignore,1.0,5200.0,4.85650978858
346,3_20_1,20,1.0,2086.26969133,3_D,test,05,5,1.0,10101,kill,1.0,5300.0,8.74806794273
347,3_20_1,20,1.0,2103.94244336,3_D,test,05,5,2.0,01011,ignore,1.0,5400.0,15.7524981398
348,3_20_1,20,1.0,2110.69281572,3_D,test,05,5,3.0,10011,ignore,1.0,5500.0,4.87366000411
349,3_20_1,20,1.0,2130.19381447,3_D,test,05,5,4.0,00100,ignore,0.0,5400.0,17.6047942218
350,3_20_1,20,1.0,2136.74098822,3_D,test,05,5,5.0,00010,ignore,1.0,5500.0,4.61571271874
351,3_20_1,20,1.0,2144.2257675,3_D,test,05,5,6.0,00101,kill,1.0,5600.0,5.56510141376
352,3_20_1,20,1.0,2161.96373865,3_D,test,05,5,7.0,11011,ignore,1.0,5700.0,15.8034061169
353,3_20_1,20,1.0,2165.0733396,3_D,test,05,5,8.0,11111,ignore,0.0,5600.0,1.25870355878
354,3_20_1,20,1.0,2175.18318398,3_D,test,05,5,9.0,01101,ignore,1.0,5700.0,8.16838180582
355,3_20_1,20,1.0,2180.1209566,3_D,test,05,5,10.0,00000,ignore,1.0,5800.0,2.98792881152
356,3_20_1,20,1.0,2183.964917,3_D,test,05,5,11.0,10000,kill,0.0,5700.0,1.94039135064
357,3_20_1,20,1.0,2188.15260334,3_D,test,05,5,12.0,11000,ignore,1.0,5800.0,2.26258691692
358,3_20_1,20,1.0,2192.82471006,3_D,test,05,5,13.0,10011,ignore,1.0,5900.0,2.78163038179
359,3_20_1,20,1.0,2197.0593402,3_D,test,05,5,14.0,11110,kill,1.0,6000.0,2.29249339303
360,3_20_1,20,1.0,2206.07542945,3_D,test,05,5,15.0,00100,ignore,0.0,5900.0,7.05506138708
361,3_20_1,20,1.0,2210.04435714,3_D,test,05,5,16.0,10001,ignore,1.0,6000.0,2.08187702058
362,3_20_1,20,1.0,2213.38828001,3_D,test,05,5,17.0,00001,ignore,1.0,6100.0,1.39817057525
363,3_20_1,20,1.0,2217.46660177,3_D,test,05,5,18.0,01110,kill,1.0,6200.0,2.2247940935
364,3_20_1,20,1.0,2221.14181474,3_D,test,05,5,19.0,11001,ignore,1.0,6300.0,1.80123255247
365,3_20_1,20,1.0,2225.81393878,3_D,test,05,5,20.0,01011,ignore,1.0,6400.0,2.73761898958
366,3_20_1,20,1.0,2229.67354358,3_D,test,05,5,21.0,01111,kill,1.0,6500.0,1.96501738338
367,3_20_1,20,1.0,2234.00185861,3_D,test,05,5,22.0,01100,kill,0.0,6400.0,2.39744926105
368,3_20_1,20,1.0,2237.0488874,3_D,test,05,5,23.0,01000,ignore,1.0,6500.0,1.19153730692
369,3_20_1,20,1.0,2242.26790521,3_D,test,05,5,24.0,11100,kill,0.0,6400.0,3.31359431929
370,3_20_1,20,1.0,2247.19001321,3_D,test,05,5,25.0,01001,ignore,1.0,6500.0,2.98691884333
371,3_20_1,20,1.0,2251.54962956,3_D,test,05,5,26.0,00110,ignore,0.0,6400.0,2.48508845641
372,3_20_1,20,1.0,2266.56605461,3_D,test,05,5,27.0,10101,ignore,0.0,6300.0,13.1060242084
373,3_20_1,20,1.0,2271.98816262,3_D,test,05,5,28.0,10010,ignore,1.0,6400.0,3.49230127777
374,3_20_1,20,1.0,2276.42600708,3_D,test,05,5,29.0,10111,kill,1.0,6500.0,2.50330701237
