,unique_id,pair_id,sbj_id,wall_time,condition,block,rule_id,rule_num,trial,stimulus,choice,correct,points,reaction_time
0,2_2_2,2,2.0,318.452839042,2_ND,training,02,1_B,1.0,10111,kill,0.0,0.0,5.61087238343
1,2_2_2,2,2.0,323.15631617,2_ND,training,02,1_B,2.0,00100,ignore,0.0,0.0,2.83235126774
2,2_2_2,2,2.0,332.094292409,2_ND,training,02,1_B,3.0,11101,kill,0.0,0.0,7.13068496349
3,2_2_2,2,2.0,336.891421776,2_ND,training,02,1_B,4.0,01110,ignore,0.0,0.0,3.01449845698
4,2_2_2,2,2.0,342.422939282,2_ND,training,02,1_B,5.0,10000,ignore,0.0,0.0,3.7305220984
5,2_2_2,2,2.0,347.018839174,2_ND,training,02,1_B,6.0,11111,kill,1.0,100.0,2.78458990904
6,2_2_2,2,2.0,351.128392408,2_ND,training,02,1_B,7.0,10110,kill,0.0,0.0,2.28479838148
7,2_2_2,2,2.0,359.347599584,2_ND,training,02,1_B,8.0,10100,ignore,0.0,0.0,6.41331843878
8,2_2_2,2,2.0,363.285279472,2_ND,training,02,1_B,9.0,01011,ignore,0.0,0.0,2.13438967927
9,2_2_2,2,2.0,367.348010756,2_ND,training,02,1_B,10.0,11000,ignore,1.0,100.0,2.26981883423
10,2_2_2,2,2.0,377.864191425,2_ND,training,02,1_B,11.0,10101,kill,1.0,200.0,8.68741865565
11,2_2_2,2,2.0,382.08312887,2_ND,training,02,1_B,12.0,01010,ignore,0.0,100.0,2.41897702249
12,2_2_2,2,2.0,389.364769375,2_ND,training,02,1_B,13.0,11001,ignore,1.0,200.0,5.47020126892
13,2_2_2,2,2.0,401.084124406,2_ND,training,02,1_B,14.0,11110,ignore,0.0,100.0,9.93421892429
14,2_2_2,2,2.0,404.646816241,2_ND,training,02,1_B,15.0,01100,ignore,1.0,200.0,1.77591039918
15,2_2_2,2,2.0,415.037993943,2_ND,training,02,1_B,16.0,10010,kill,0.0,100.0,8.614936634
16,2_2_2,2,2.0,419.678834722,2_ND,training,02,1_B,17.0,11010,kill,1.0,200.0,2.87170701731
17,2_2_2,2,2.0,426.647966367,2_ND,training,02,1_B,18.0,01111,ignore,0.0,100.0,5.18565497874
18,2_2_2,2,2.0,430.085626691,2_ND,training,02,1_B,19.0,00101,ignore,0.0,0.0,1.63647729029
19,2_2_2,2,2.0,433.945208309,2_ND,training,02,1_B,20.0,00110,ignore,1.0,100.0,2.06513192457
20,2_2_2,2,2.0,439.539253117,2_ND,training,02,1_B,21.0,01000,ignore,1.0,200.0,3.82797462922
21,2_2_2,2,2.0,446.539618425,2_ND,training,02,1_B,22.0,10001,kill,1.0,300.0,5.21522791812
22,2_2_2,2,2.0,451.933362904,2_ND,training,02,1_B,23.0,11011,kill,1.0,400.0,3.61865257521
23,2_2_2,2,2.0,457.480435021,2_ND,training,02,1_B,24.0,01001,ignore,1.0,500.0,3.76616607621
24,2_2_2,2,2.0,460.33996821,2_ND,training,02,1_B,25.0,00001,ignore,0.0,400.0,1.06704217366
25,2_2_2,2,2.0,463.793289625,2_ND,training,02,1_B,26.0,00011,ignore,1.0,500.0,1.67072225761
26,2_2_2,2,2.0,472.090585128,2_ND,training,02,1_B,27.0,11100,ignore,1.0,600.0,6.50612876926
27,2_2_2,2,2.0,475.543890827,2_ND,training,02,1_B,28.0,00111,ignore,1.0,700.0,1.67946495065
28,2_2_2,2,2.0,478.262773748,2_ND,training,02,1_B,29.0,00010,ignore,1.0,800.0,0.930905815996
29,2_2_2,2,2.0,480.825394061,2_ND,training,02,1_B,30.0,00000,ignore,0.0,700.0,0.763012048425
30,2_2_2,2,2.0,487.357018369,2_ND,training,02,1_B,31.0,01101,ignore,1.0,800.0,4.7471200333
31,2_2_2,2,2.0,491.216582348,2_ND,training,02,1_B,32.0,10011,kill,0.0,700.0,2.08873421302
32,2_2_2,2,2.0,496.34185248,2_ND,training,02,1_B,33.0,01001,ignore,1.0,800.0,3.34682951893
33,2_2_2,2,2.0,501.623393559,2_ND,training,02,1_B,34.0,11011,kill,1.0,900.0,3.52260739378
34,2_2_2,2,2.0,505.13917749,2_ND,training,02,1_B,35.0,11000,ignore,1.0,1000.0,1.73904316919
35,2_2_2,2,2.0,511.842638581,2_ND,training,02,1_B,36.0,11101,kill,0.0,900.0,4.92341780637
36,2_2_2,2,2.0,514.811540265,2_ND,training,02,1_B,37.0,01101,ignore,1.0,1000.0,1.1770688004
37,2_2_2,2,2.0,518.811722438,2_ND,training,02,1_B,38.0,00011,ignore,1.0,1100.0,2.20810457491
38,2_2_2,2,2.0,522.452572197,2_ND,training,02,1_B,39.0,00111,ignore,1.0,1200.0,1.86133727699
39,2_2_2,2,2.0,526.187118455,2_ND,training,02,1_B,40.0,01010,ignore,0.0,1100.0,1.96092167915
40,2_2_2,2,2.0,533.318787409,2_ND,training,02,1_B,41.0,00100,ignore,0.0,1000.0,5.34394746751
41,2_2_2,2,2.0,537.178369027,2_ND,training,02,1_B,42.0,01111,ignore,0.0,900.0,2.06938636616
42,2_2_2,2,2.0,540.600390068,2_ND,training,02,1_B,43.0,11010,kill,1.0,1000.0,1.64889358861
43,2_2_2,2,2.0,544.244421438,2_ND,training,02,1_B,44.0,01011,ignore,0.0,900.0,1.86864696249
44,2_2_2,2,2.0,550.197858635,2_ND,training,02,1_B,45.0,00000,ignore,0.0,800.0,4.16759709524
45,2_2_2,2,2.0,557.182579208,2_ND,training,02,1_B,46.0,11111,kill,1.0,900.0,5.20536973711
46,2_2_2,2,2.0,564.745490741,2_ND,training,02,1_B,47.0,10100,ignore,0.0,800.0,5.78348821233
47,2_2_2,2,2.0,568.901905374,2_ND,training,02,1_B,48.0,00001,ignore,0.0,700.0,2.37908886635
48,2_2_2,2,2.0,579.339968851,2_ND,training,02,1_B,49.0,10000,kill,1.0,800.0,8.66583630487
49,2_2_2,2,2.0,582.418312476,2_ND,training,02,1_B,50.0,10111,kill,0.0,700.0,1.27969112722
50,2_2_2,2,2.0,585.621609677,2_ND,training,02,1_B,51.0,00010,ignore,1.0,800.0,1.41861844988
51,2_2_2,2,2.0,589.249912923,2_ND,training,02,1_B,52.0,01100,ignore,1.0,900.0,1.85515847434
52,2_2_2,2,2.0,592.484470406,2_ND,training,02,1_B,53.0,00110,ignore,1.0,1000.0,1.45156222838
53,2_2_2,2,2.0,595.718999666,2_ND,training,02,1_B,54.0,00101,ignore,0.0,900.0,1.45574450643
54,2_2_2,2,2.0,599.781735119,2_ND,training,02,1_B,55.0,01110,ignore,0.0,800.0,2.28410336641
55,2_2_2,2,2.0,603.750677535,2_ND,training,02,1_B,56.0,10010,kill,0.0,700.0,2.18221101389
56,2_2_2,2,2.0,607.563375624,2_ND,training,02,1_B,57.0,10001,kill,1.0,800.0,2.0362735646
57,2_2_2,2,2.0,610.704168294,2_ND,training,02,1_B,58.0,01000,ignore,1.0,900.0,1.35237713115
58,2_2_2,2,2.0,613.719938754,2_ND,training,02,1_B,59.0,10101,kill,1.0,1000.0,1.23236146685
59,2_2_2,2,2.0,616.423263537,2_ND,training,02,1_B,60.0,10011,kill,0.0,900.0,0.917230023368
60,2_2_2,2,2.0,619.642164419,2_ND,training,02,1_B,61.0,11100,kill,0.0,800.0,1.44686293867
61,2_2_2,2,2.0,623.282989482,2_ND,training,02,1_B,62.0,11001,kill,0.0,700.0,1.86822328233
62,2_2_2,2,2.0,626.267510884,2_ND,training,02,1_B,63.0,11110,kill,1.0,800.0,1.19045209014
63,2_2_2,2,2.0,629.080158939,2_ND,training,02,1_B,64.0,10110,kill,0.0,700.0,1.04536552918
64,2_2_2,2,2.0,632.424076259,2_ND,training,02,1_B,65.0,10001,ignore,0.0,600.0,1.56235539228
65,2_2_2,2,2.0,637.752526846,2_ND,training,02,1_B,66.0,10000,kill,1.0,700.0,3.54575392938
66,2_2_2,2,2.0,640.64326836,2_ND,training,02,1_B,67.0,01110,ignore,0.0,600.0,1.12913649429
67,2_2_2,2,2.0,644.37785503,2_ND,training,02,1_B,68.0,11000,kill,0.0,500.0,1.97946386018
68,2_2_2,2,2.0,647.299843678,2_ND,training,02,1_B,69.0,00001,ignore,0.0,400.0,1.14645349878
69,2_2_2,2,2.0,649.909398195,2_ND,training,02,1_B,70.0,01001,ignore,1.0,500.0,0.819401600684
70,2_2_2,2,2.0,652.956400393,2_ND,training,02,1_B,71.0,00000,ignore,0.0,400.0,1.24847702858
71,2_2_2,2,2.0,656.597238927,2_ND,training,02,1_B,72.0,00100,ignore,0.0,300.0,1.85275206083
72,2_2_2,2,2.0,659.473875195,2_ND,training,02,1_B,73.0,10010,kill,0.0,200.0,1.1123236724
73,2_2_2,2,2.0,662.589666566,2_ND,training,02,1_B,74.0,01111,ignore,0.0,100.0,1.34663547919
74,2_2_2,2,2.0,666.433611147,2_ND,training,02,1_B,75.0,00101,ignore,0.0,0.0,2.05122713298
75,2_2_2,2,2.0,672.29329636,2_ND,training,02,1_B,76.0,11100,kill,0.0,0.0,4.07084920129
76,2_2_2,2,2.0,675.746578005,2_ND,training,02,1_B,77.0,11110,kill,1.0,100.0,1.69664853277
77,2_2_2,2,2.0,678.793653008,2_ND,training,02,1_B,78.0,11101,kill,0.0,0.0,1.2750049873
78,2_2_2,2,2.0,682.934466205,2_ND,training,02,1_B,79.0,10110,kill,0.0,0.0,2.35840390928
79,2_2_2,2,2.0,686.99718915,2_ND,training,02,1_B,80.0,10011,kill,0.0,0.0,2.28577403254
80,2_2_2,2,2.0,690.357468028,2_ND,training,02,1_B,81.0,11011,kill,1.0,100.0,1.58447079109
81,2_2_2,2,2.0,693.295132842,2_ND,training,02,1_B,82.0,01000,ignore,1.0,200.0,1.1754773538
82,2_2_2,2,2.0,695.842136964,2_ND,training,02,1_B,83.0,01101,ignore,1.0,300.0,0.750388239845
83,2_2_2,2,2.0,698.54538798,2_ND,training,02,1_B,84.0,00011,ignore,1.0,400.0,0.92715651919
84,2_2_2,2,2.0,701.061182494,2_ND,training,02,1_B,85.0,00111,ignore,1.0,500.0,0.736742916267
85,2_2_2,2,2.0,704.108201691,2_ND,training,02,1_B,86.0,10111,kill,0.0,400.0,1.26590243874
86,2_2_2,2,2.0,706.90523965,2_ND,training,02,1_B,87.0,00110,ignore,1.0,500.0,1.03007583907
87,2_2_2,2,2.0,710.40538943,2_ND,training,02,1_B,88.0,10100,kill,1.0,600.0,1.71587482416
88,2_2_2,2,2.0,713.389921736,2_ND,training,02,1_B,89.0,11111,kill,1.0,700.0,1.19710011617
89,2_2_2,2,2.0,717.030772458,2_ND,training,02,1_B,90.0,00010,ignore,1.0,800.0,1.8758886539
90,2_2_2,2,2.0,721.655990953,2_ND,training,02,1_B,91.0,01010,ignore,0.0,700.0,2.87931337514
91,2_2_2,2,2.0,726.031188761,2_ND,training,02,1_B,92.0,01100,ignore,1.0,800.0,2.5935358146
92,2_2_2,2,2.0,731.890879106,2_ND,training,02,1_B,93.0,10101,kill,1.0,900.0,4.0712853898
93,2_2_2,2,2.0,735.562952906,2_ND,training,02,1_B,94.0,11001,kill,0.0,800.0,1.89646745039
94,2_2_2,2,2.0,738.484965608,2_ND,training,02,1_B,95.0,11010,kill,1.0,900.0,1.17124600455
95,2_2_2,2,2.0,742.235174241,2_ND,training,02,1_B,96.0,01011,ignore,0.0,800.0,1.95480670114
96,2_2_2,2,2.0,745.344718495,2_ND,training,02,1_B,97.0,11001,kill,0.0,700.0,1.33056898867
97,2_2_2,2,2.0,748.428249556,2_ND,training,02,1_B,98.0,00001,ignore,0.0,600.0,1.30710685784
98,2_2_2,2,2.0,752.428449048,2_ND,training,02,1_B,99.0,10101,kill,1.0,700.0,2.21337443769
99,2_2_2,2,2.0,757.663078054,2_ND,training,02,1_B,100.0,00100,ignore,0.0,600.0,3.43396234282
100,2_2_2,2,2.0,760.882286513,2_ND,training,02,1_B,101.0,10011,kill,0.0,500.0,1.42037122208
101,2_2_2,2,2.0,763.835550197,2_ND,training,02,1_B,102.0,00110,ignore,1.0,600.0,1.15301877727
102,2_2_2,2,2.0,766.960759712,2_ND,training,02,1_B,103.0,11010,kill,1.0,700.0,1.37814817452
103,2_2_2,2,2.0,770.414123463,2_ND,training,02,1_B,104.0,11110,kill,1.0,800.0,1.68202082287
104,2_2_2,2,2.0,773.636170675,2_ND,training,02,1_B,105.0,01010,ignore,0.0,700.0,1.48580815788
105,2_2_2,2,2.0,777.05821962,2_ND,training,02,1_B,106.0,00111,ignore,1.0,800.0,1.63326713531
106,2_2_2,2,2.0,780.324044763,2_ND,training,02,1_B,107.0,00000,ignore,0.0,700.0,1.48547043251
107,2_2_2,2,2.0,783.574220682,2_ND,training,02,1_B,108.0,00010,ignore,1.0,800.0,1.4967693185
108,2_2_2,2,2.0,787.233766571,2_ND,training,02,1_B,109.0,10001,kill,1.0,900.0,1.9002347079
109,2_2_2,2,2.0,793.655966898,2_ND,training,02,1_B,110.0,10000,kill,1.0,1000.0,4.63832243183
110,2_2_2,2,2.0,796.327968535,2_ND,training,02,1_B,111.0,11111,kill,1.0,1100.0,0.897102810273
111,2_2_2,2,2.0,799.140617874,2_ND,training,02,1_B,112.0,00101,ignore,0.0,1000.0,1.01875963383
112,2_2_2,2,2.0,801.984504403,2_ND,training,02,1_B,113.0,10010,kill,0.0,900.0,1.07364465647
113,2_2_2,2,2.0,806.953544962,2_ND,training,02,1_B,114.0,00011,ignore,1.0,1000.0,3.18015226828
114,2_2_2,2,2.0,810.92250598,2_ND,training,02,1_B,115.0,01001,ignore,1.0,1100.0,2.18599334556
115,2_2_2,2,2.0,813.844531832,2_ND,training,02,1_B,116.0,01011,ignore,0.0,1000.0,1.16084419154
116,2_2_2,2,2.0,817.500959294,2_ND,training,02,1_B,117.0,10110,kill,0.0,900.0,1.89688888547
117,2_2_2,2,2.0,822.001206895,2_ND,training,02,1_B,118.0,11101,kill,0.0,800.0,2.72404694415
118,2_2_2,2,2.0,825.454498162,2_ND,training,02,1_B,119.0,11100,kill,0.0,700.0,1.66815355632
119,2_2_2,2,2.0,828.423406581,2_ND,training,02,1_B,120.0,01110,ignore,0.0,600.0,1.1914396081
120,2_2_2,2,2.0,835.845641867,2_ND,training,02,1_B,121.0,01101,ignore,1.0,700.0,5.6461359792
121,2_2_2,2,2.0,838.767713263,2_ND,training,02,1_B,122.0,01111,ignore,0.0,600.0,1.15948366827
122,2_2_2,2,2.0,841.580315454,2_ND,training,02,1_B,123.0,10100,kill,1.0,700.0,1.03234947167
123,2_2_2,2,2.0,844.361707396,2_ND,training,02,1_B,124.0,11000,kill,0.0,600.0,1.02987474334
124,2_2_2,2,2.0,850.908968741,2_ND,training,02,1_B,125.0,01000,ignore,1.0,700.0,4.75544706435
125,2_2_2,2,2.0,856.706180214,2_ND,training,02,1_B,126.0,11011,kill,1.0,800.0,4.04144271915
126,2_2_2,2,2.0,862.675213396,2_ND,training,02,1_B,127.0,01100,ignore,1.0,900.0,4.21281284498
127,2_2_2,2,2.0,865.753460803,2_ND,training,02,1_B,128.0,10111,kill,0.0,800.0,1.31318944244
128,2_2_2,2,2.0,870.034958264,2_ND,training,02,1_B,129.0,10100,kill,1.0,900.0,2.49911190737
129,2_2_2,2,2.0,873.535162246,2_ND,training,02,1_B,130.0,00100,ignore,0.0,800.0,1.69952320747
130,2_2_2,2,2.0,877.707230274,2_ND,training,02,1_B,131.0,11011,kill,1.0,900.0,2.43088753457
131,2_2_2,2,2.0,880.457445,2_ND,training,02,1_B,132.0,11111,kill,1.0,1000.0,0.979902293774
132,2_2_2,2,2.0,886.317153306,2_ND,training,02,1_B,133.0,01111,ignore,0.0,900.0,4.07513828138
133,2_2_2,2,2.0,890.301709667,2_ND,training,02,1_B,134.0,11100,kill,0.0,800.0,2.22874976186
134,2_2_2,2,2.0,895.489466689,2_ND,training,02,1_B,135.0,00010,ignore,1.0,900.0,3.4015644414
135,2_2_2,2,2.0,898.692737269,2_ND,training,02,1_B,136.0,10010,kill,0.0,800.0,1.43842172886
136,2_2_2,2,2.0,903.974294385,2_ND,training,02,1_B,137.0,00101,ignore,0.0,700.0,3.48240749115
137,2_2_2,2,2.0,907.127238754,2_ND,training,02,1_B,138.0,00000,ignore,0.0,600.0,1.36367730004
138,2_2_2,2,2.0,911.408656674,2_ND,training,02,1_B,139.0,10001,kill,1.0,700.0,2.50764227924
139,2_2_2,2,2.0,922.659288666,2_ND,training,02,1_B,140.0,11010,kill,1.0,800.0,9.48466155941
140,2_2_2,2,2.0,925.893827548,2_ND,training,02,1_B,141.0,10101,kill,1.0,900.0,1.45722818881
141,2_2_2,2,2.0,928.800256774,2_ND,training,02,1_B,142.0,10011,kill,0.0,800.0,1.1171374616
142,2_2_2,2,2.0,933.365684409,2_ND,training,02,1_B,143.0,01010,ignore,0.0,700.0,2.8075818543
143,2_2_2,2,2.0,935.94396902,2_ND,training,02,1_B,144.0,01011,ignore,0.0,600.0,0.813163784294
144,2_2_2,2,2.0,938.569114711,2_ND,training,02,1_B,145.0,01000,ignore,1.0,700.0,0.842998116051
145,2_2_2,2,2.0,941.397331489,2_ND,training,02,1_B,146.0,10110,kill,0.0,600.0,1.05686230363
146,2_2_2,2,2.0,944.256934275,2_ND,training,02,1_B,147.0,00110,ignore,1.0,700.0,1.08513758219
147,2_2_2,2,2.0,947.100797712,2_ND,training,02,1_B,148.0,11101,kill,0.0,600.0,1.04792525012
148,2_2_2,2,2.0,950.194731548,2_ND,training,02,1_B,149.0,01101,ignore,1.0,700.0,1.31629119175
149,2_2_2,2,2.0,952.585451895,2_ND,training,02,1_B,150.0,01100,ignore,1.0,800.0,0.590546319691
150,2_2_2,2,2.0,955.382485364,2_ND,training,02,1_B,151.0,11110,kill,1.0,900.0,1.03704876139
151,2_2_2,2,2.0,958.023212926,2_ND,training,02,1_B,152.0,11000,kill,0.0,800.0,0.866746976669
152,2_2_2,2,2.0,961.804701727,2_ND,training,02,1_B,153.0,10000,kill,1.0,900.0,1.99876071147
153,2_2_2,2,2.0,965.195506104,2_ND,training,02,1_B,154.0,11001,kill,0.0,800.0,1.63743594283
154,2_2_2,2,2.0,969.625063263,2_ND,training,02,1_B,155.0,00001,ignore,0.0,700.0,2.65787426097
155,2_2_2,2,2.0,975.719150407,2_ND,training,02,1_B,156.0,10111,kill,0.0,600.0,4.30097873004
156,2_2_2,2,2.0,979.569356859,2_ND,training,02,1_B,157.0,00111,ignore,1.0,700.0,2.0686377897
157,2_2_2,2,2.0,987.47600001,2_ND,training,02,1_B,158.0,00011,ignore,1.0,800.0,6.11929563253
158,2_2_2,2,2.0,990.398006619,2_ND,training,02,1_B,159.0,01001,ignore,1.0,900.0,1.15747463532
159,2_2_2,2,2.0,993.476295079,2_ND,training,02,1_B,160.0,01110,ignore,0.0,800.0,1.31037474366
160,2_2_2,2,2.0,996.50772631,2_ND,training,02,1_B,161.0,10000,kill,1.0,900.0,1.24856137974
161,2_2_2,2,2.0,999.85165293,2_ND,training,02,1_B,162.0,10101,kill,1.0,1000.0,1.57273026423
162,2_2_2,2,2.0,1003.14871655,2_ND,training,02,1_B,163.0,01110,ignore,0.0,900.0,1.51698793875
163,2_2_2,2,2.0,1005.94572885,2_ND,training,02,1_B,164.0,10010,ignore,1.0,1000.0,1.03040201827
164,2_2_2,2,2.0,1008.68023726,2_ND,training,02,1_B,165.0,01101,ignore,1.0,1100.0,0.964103289439
165,2_2_2,2,2.0,1011.82385778,2_ND,training,02,1_B,166.0,11001,kill,0.0,1000.0,1.37261210846
166,2_2_2,2,2.0,1014.5740183,2_ND,training,02,1_B,167.0,10100,kill,1.0,1100.0,0.964015089557
167,2_2_2,2,2.0,1017.62104327,2_ND,training,02,1_B,168.0,01100,ignore,1.0,1200.0,1.28441479218
168,2_2_2,2,2.0,1020.4649298,2_ND,training,02,1_B,169.0,00001,ignore,0.0,1100.0,1.04704838293
169,2_2_2,2,2.0,1023.5276226,2_ND,training,02,1_B,170.0,00101,ignore,0.0,1000.0,1.26659520873
170,2_2_2,2,2.0,1027.21530361,2_ND,training,02,1_B,171.0,10110,kill,0.0,900.0,1.90228575607
171,2_2_2,2,2.0,1030.23105964,2_ND,training,02,1_B,172.0,01001,ignore,1.0,1000.0,1.25658211666
172,2_2_2,2,2.0,1033.6218839,2_ND,training,02,1_B,173.0,10111,kill,0.0,900.0,1.61252861685
173,2_2_2,2,2.0,1038.10644732,2_ND,training,02,1_B,174.0,00010,ignore,1.0,1000.0,2.69841220969
174,2_2_2,2,2.0,1040.65347164,2_ND,training,02,1_B,175.0,01111,ignore,0.0,900.0,0.788076209829
175,2_2_2,2,2.0,1043.21610607,2_ND,training,02,1_B,176.0,01011,ignore,0.0,800.0,0.788048306595
176,2_2_2,2,2.0,1046.59128431,2_ND,training,02,1_B,177.0,11111,kill,1.0,900.0,1.61994831166
177,2_2_2,2,2.0,1049.77895185,2_ND,training,02,1_B,178.0,00111,ignore,1.0,1000.0,1.40915444216
178,2_2_2,2,2.0,1053.04473851,2_ND,training,02,1_B,179.0,11100,kill,0.0,900.0,1.50366430419
179,2_2_2,2,2.0,1055.88866096,2_ND,training,02,1_B,180.0,00100,ignore,0.0,800.0,1.0576445564
180,2_2_2,2,2.0,1059.26384498,2_ND,training,02,1_B,181.0,00110,ignore,1.0,900.0,1.58191042869
181,2_2_2,2,2.0,1062.37963218,2_ND,training,02,1_B,182.0,11011,kill,1.0,1000.0,1.37331450025
182,2_2_2,2,2.0,1065.6922921,2_ND,training,02,1_B,183.0,11110,kill,1.0,1100.0,1.55786906519
183,2_2_2,2,2.0,1072.91143289,2_ND,training,02,1_B,184.0,00011,ignore,1.0,1200.0,5.43777129482
184,2_2_2,2,2.0,1076.00536095,2_ND,training,02,1_B,185.0,10011,kill,0.0,1100.0,1.33648062585
185,2_2_2,2,2.0,1080.36493808,2_ND,training,02,1_B,186.0,10001,kill,1.0,1200.0,2.56937417854
186,2_2_2,2,2.0,1084.9120227,2_ND,training,02,1_B,187.0,01000,ignore,1.0,1300.0,2.79227516567
187,2_2_2,2,2.0,1087.78720832,2_ND,training,02,1_B,188.0,11010,kill,1.0,1400.0,1.11917054906
188,2_2_2,2,2.0,1090.69358046,2_ND,training,02,1_B,189.0,11000,kill,0.0,1300.0,1.14494993133
189,2_2_2,2,2.0,1093.38124383,2_ND,training,02,1_B,190.0,11101,kill,0.0,1200.0,0.939044259663
190,2_2_2,2,2.0,1096.63139441,2_ND,training,02,1_B,191.0,01010,ignore,0.0,1100.0,1.50183968918
191,2_2_2,2,2.0,1099.35029946,2_ND,training,02,1_B,192.0,00000,ignore,0.0,1000.0,0.943414162913
192,2_2_2,2,2.0,1102.39732732,2_ND,training,02,1_B,193.0,10010,kill,0.0,900.0,1.28203788554
193,2_2_2,2,2.0,1106.27254758,2_ND,training,02,1_B,194.0,01100,ignore,1.0,1000.0,2.09269422737
194,2_2_2,2,2.0,1113.40011091,2_ND,training,02,1_B,195.0,11110,kill,1.0,1100.0,5.36760331734
195,2_2_2,2,2.0,1116.40030815,2_ND,training,02,1_B,196.0,00000,ignore,0.0,1000.0,1.21947017208
196,2_2_2,2,2.0,1121.30677458,2_ND,training,02,1_B,197.0,11010,kill,1.0,1100.0,3.16250010424
197,2_2_2,2,2.0,1124.18193102,2_ND,training,02,1_B,198.0,00011,ignore,1.0,1200.0,1.10575614881
198,2_2_2,2,2.0,1127.32276795,2_ND,training,02,1_B,199.0,11000,kill,0.0,1100.0,1.38072553544
199,2_2_2,2,2.0,1130.47913928,2_ND,training,02,1_B,200.0,01101,ignore,1.0,1200.0,1.4051739013
200,2_2_2,2,2.0,1133.33866478,2_ND,training,02,1_B,201.0,00100,ignore,0.0,1100.0,1.05028259242
201,2_2_2,2,2.0,1135.91691507,2_ND,training,02,1_B,202.0,01010,ignore,0.0,1000.0,0.815155497995
202,2_2_2,2,2.0,1138.72955286,2_ND,training,02,1_B,203.0,01000,ignore,1.0,1100.0,1.05421374135
203,2_2_2,2,2.0,1141.63597567,2_ND,training,02,1_B,204.0,10110,kill,0.0,1000.0,1.13860306782
204,2_2_2,2,2.0,1144.57360489,2_ND,training,02,1_B,205.0,11100,kill,0.0,900.0,1.18892350601
205,2_2_2,2,2.0,1147.69879997,2_ND,training,02,1_B,206.0,11111,kill,1.0,1000.0,1.37311083871
206,2_2_2,2,2.0,1151.27709324,2_ND,training,02,1_B,207.0,00001,ignore,0.0,900.0,1.80484797868
207,2_2_2,2,2.0,1154.73041305,2_ND,training,02,1_B,208.0,11011,kill,1.0,1000.0,1.70761033484
208,2_2_2,2,2.0,1157.63678038,2_ND,training,02,1_B,209.0,10001,kill,1.0,1100.0,1.15051197626
209,2_2_2,2,2.0,1160.73069818,2_ND,training,02,1_B,210.0,00110,ignore,1.0,1200.0,1.30330175457
210,2_2_2,2,2.0,1164.01215042,2_ND,training,02,1_B,211.0,00101,ignore,0.0,1100.0,1.50502803473
211,2_2_2,2,2.0,1171.71564935,2_ND,training,02,1_B,212.0,10011,kill,0.0,1000.0,5.93101197658
212,2_2_2,2,2.0,1174.88771834,2_ND,training,02,1_B,213.0,10101,kill,1.0,1100.0,1.4012729007
213,2_2_2,2,2.0,1178.37224135,2_ND,training,02,1_B,214.0,01110,ignore,0.0,1000.0,1.71159857315
214,2_2_2,2,2.0,1181.52862295,2_ND,training,02,1_B,215.0,01011,ignore,0.0,900.0,1.39359534151
215,2_2_2,2,2.0,1184.21633026,2_ND,training,02,1_B,216.0,11001,kill,0.0,800.0,0.929152723067
216,2_2_2,2,2.0,1186.91955401,2_ND,training,02,1_B,217.0,00111,ignore,1.0,900.0,0.898074933337
217,2_2_2,2,2.0,1189.62283389,2_ND,training,02,1_B,218.0,01111,ignore,0.0,800.0,0.949158380688
218,2_2_2,2,2.0,1192.51362351,2_ND,training,02,1_B,219.0,11101,kill,0.0,700.0,1.11822151833
219,2_2_2,2,2.0,1194.9699867,2_ND,training,02,1_B,220.0,10100,kill,1.0,800.0,0.695967629681
220,2_2_2,2,2.0,1197.36073046,2_ND,training,02,1_B,221.0,10000,kill,1.0,900.0,0.628487022429
221,2_2_2,2,2.0,1200.28283425,2_ND,training,02,1_B,222.0,00010,ignore,1.0,1000.0,1.15451753382
222,2_2_2,2,2.0,1202.9391687,2_ND,training,02,1_B,223.0,01001,ignore,1.0,1100.0,0.908197072533
223,2_2_2,2,2.0,1206.0799556,2_ND,training,02,1_B,224.0,10111,kill,0.0,1000.0,1.36749362876
224,2_2_2,2,2.0,1209.22073576,2_ND,training,02,1_B,225.0,00111,ignore,1.0,1100.0,1.35052653726
225,2_2_2,2,2.0,1212.01773459,2_ND,training,02,1_B,226.0,00110,ignore,1.0,1200.0,1.03927075696
226,2_2_2,2,2.0,1215.28355813,2_ND,training,02,1_B,227.0,11010,kill,1.0,1300.0,1.52578547608
227,2_2_2,2,2.0,1225.70596918,2_ND,training,02,1_B,228.0,00010,ignore,1.0,1400.0,8.67241954407
228,2_2_2,2,2.0,1230.14371128,2_ND,training,02,1_B,229.0,11001,kill,0.0,1300.0,2.67838634627
229,2_2_2,2,2.0,1234.33141891,2_ND,training,02,1_B,230.0,01011,ignore,0.0,1200.0,2.42540952007
230,2_2_2,2,2.0,1237.44143913,2_ND,training,02,1_B,231.0,10100,kill,1.0,1300.0,1.3426629565
231,2_2_2,2,2.0,1239.83218128,2_ND,training,02,1_B,232.0,10001,kill,1.0,1400.0,0.639994701593
232,2_2_2,2,2.0,1242.69168625,2_ND,training,02,1_B,233.0,11111,kill,1.0,1500.0,1.09404865683
233,2_2_2,2,2.0,1245.58246946,2_ND,training,02,1_B,234.0,11000,kill,0.0,1400.0,1.13836893722
234,2_2_2,2,2.0,1248.16074605,2_ND,training,02,1_B,235.0,11110,kill,1.0,1500.0,0.827858205379
235,2_2_2,2,2.0,1250.97336331,2_ND,training,02,1_B,236.0,00001,ignore,0.0,1400.0,1.05844829787
236,2_2_2,2,2.0,1254.64546021,2_ND,training,02,1_B,237.0,10000,kill,1.0,1500.0,1.91125552372
237,2_2_2,2,2.0,1257.97375011,2_ND,training,02,1_B,238.0,11011,kill,1.0,1600.0,1.55377017612
238,2_2_2,2,2.0,1261.14577837,2_ND,training,02,1_B,239.0,00100,ignore,0.0,1500.0,1.39344395844
239,2_2_2,2,2.0,1504.58657861,2_ND,test,02,2,0.0,01101,ignore,1.0,100.0,10.3720687972
240,2_2_2,2,2.0,1511.91509591,2_ND,test,02,2,1.0,11101,kill,0.0,0.0,5.5566098916
241,2_2_2,2,2.0,1516.86845324,2_ND,test,02,2,2.0,00011,ignore,0.0,0.0,3.16961029764
242,2_2_2,2,2.0,1521.77497484,2_ND,test,02,2,3.0,01100,ignore,0.0,0.0,3.10244977578
243,2_2_2,2,2.0,1525.50951372,2_ND,test,02,2,4.0,10010,kill,0.0,0.0,1.9676800352
244,2_2_2,2,2.0,1529.32224581,2_ND,test,02,2,5.0,01000,ignore,1.0,100.0,2.0309065216
245,2_2_2,2,2.0,1534.30683841,2_ND,test,02,2,6.0,00101,ignore,1.0,200.0,3.22758103324
246,2_2_2,2,2.0,1537.93204568,2_ND,test,02,2,7.0,01110,ignore,0.0,100.0,1.87286195468
247,2_2_2,2,2.0,1544.43237731,2_ND,test,02,2,8.0,01010,ignore,1.0,200.0,4.74025744102
248,2_2_2,2,2.0,1548.13568702,2_ND,test,02,2,9.0,10111,kill,0.0,100.0,1.96354201746
249,2_2_2,2,2.0,1552.62032805,2_ND,test,02,2,10.0,00000,ignore,1.0,200.0,2.69985419758
250,2_2_2,2,2.0,1556.47985996,2_ND,test,02,2,11.0,10101,kill,0.0,100.0,2.06824971022
251,2_2_2,2,2.0,1561.21449057,2_ND,test,02,2,12.0,01001,ignore,0.0,0.0,2.96765052833
252,2_2_2,2,2.0,1565.90224021,2_ND,test,02,2,13.0,10011,kill,1.0,100.0,2.91831696664
253,2_2_2,2,2.0,1571.08999756,2_ND,test,02,2,14.0,01111,ignore,1.0,200.0,3.43986083021
254,2_2_2,2,2.0,1574.99644731,2_ND,test,02,2,15.0,10110,kill,1.0,300.0,2.12275338864
255,2_2_2,2,2.0,1579.63732112,2_ND,test,02,2,16.0,11100,kill,1.0,400.0,2.87635916018
256,2_2_2,2,2.0,1583.55940567,2_ND,test,02,2,17.0,10011,kill,1.0,500.0,2.159002578
257,2_2_2,2,2.0,1587.87217335,2_ND,test,02,2,18.0,01110,ignore,0.0,400.0,2.55911220244
258,2_2_2,2,2.0,1592.35673998,2_ND,test,02,2,19.0,10001,kill,1.0,500.0,2.71895861277
259,2_2_2,2,2.0,1596.65386485,2_ND,test,02,2,20.0,10010,kill,0.0,400.0,2.50323004005
260,2_2_2,2,2.0,1602.56038773,2_ND,test,02,2,21.0,10110,kill,1.0,500.0,4.12831992374
261,2_2_2,2,2.0,1606.85750812,2_ND,test,02,2,22.0,00010,ignore,1.0,600.0,2.53586656224
262,2_2_2,2,2.0,1611.09209286,2_ND,test,02,3,0.0,01111,ignore,1.0,700.0,2.4804103251
263,2_2_2,2,2.0,1615.45170046,2_ND,test,02,3,1.0,01011,ignore,1.0,800.0,2.60432410346
264,2_2_2,2,2.0,1619.88945219,2_ND,test,02,3,2.0,00101,ignore,0.0,700.0,2.65743294083
265,2_2_2,2,2.0,1624.38966997,2_ND,test,02,3,3.0,01010,ignore,1.0,800.0,2.74091621396
266,2_2_2,2,2.0,1628.37425487,2_ND,test,02,3,4.0,11101,kill,0.0,700.0,2.24597632138
267,2_2_2,2,2.0,1633.28076492,2_ND,test,02,3,5.0,01001,ignore,0.0,600.0,3.10735400995
268,2_2_2,2,2.0,1642.89064401,2_ND,test,02,3,6.0,00011,ignore,1.0,700.0,7.83377304984
269,2_2_2,2,2.0,1650.09413974,2_ND,test,02,3,7.0,00000,kill,1.0,800.0,5.44245486892
270,2_2_2,2,2.0,1660.70407625,2_ND,test,02,3,8.0,00001,ignore,0.0,700.0,8.83575514173
271,2_2_2,2,2.0,1671.18899439,2_ND,test,02,3,9.0,11111,ignore,0.0,600.0,8.74025519594
272,2_2_2,2,2.0,1676.65801281,2_ND,test,02,3,10.0,00100,kill,1.0,700.0,3.70406918976
273,2_2_2,2,2.0,1682.12706364,2_ND,test,02,3,11.0,11110,kill,1.0,800.0,3.69642338253
274,2_2_2,2,2.0,1688.47112721,2_ND,test,02,3,12.0,11001,ignore,1.0,900.0,4.59385301345
275,2_2_2,2,2.0,1695.78400522,2_ND,test,02,3,13.0,10111,kill,1.0,1000.0,5.51814447975
276,2_2_2,2,2.0,1701.3780372,2_ND,test,02,3,14.0,11011,ignore,0.0,900.0,3.8613696704
277,2_2_2,2,2.0,1709.19093767,2_ND,test,02,3,15.0,00111,ignore,1.0,1000.0,6.03139659221
278,2_2_2,2,2.0,1724.41049187,2_ND,test,02,3,16.0,10101,ignore,1.0,1100.0,13.4326354959
279,2_2_2,2,2.0,1737.84871058,2_ND,test,02,3,17.0,01101,ignore,0.0,1000.0,11.6847729799
280,2_2_2,2,2.0,1744.08336974,2_ND,test,02,3,18.0,11000,kill,0.0,900.0,4.47240305871
281,2_2_2,2,2.0,1751.20871973,2_ND,test,02,3,19.0,01100,ignore,0.0,800.0,5.37850257768
282,2_2_2,2,2.0,1759.02165772,2_ND,test,02,3,20.0,11010,kill,1.0,900.0,6.03913284442
283,2_2_2,2,2.0,1767.83463677,2_ND,test,02,3,21.0,10000,ignore,1.0,1000.0,7.04018835646
284,2_2_2,2,2.0,1775.86634158,2_ND,test,02,3,22.0,10100,kill,0.0,900.0,6.25673959354
285,2_2_2,2,2.0,1781.56968625,2_ND,test,02,3,23.0,00110,ignore,1.0,1000.0,3.92880954534
286,2_2_2,2,2.0,1787.5231305,2_ND,test,02,3,24.0,11100,ignore,1.0,1100.0,4.20154763531
287,2_2_2,2,2.0,1793.17970036,2_ND,test,02,3,25.0,01000,ignore,0.0,1000.0,3.91049475964
288,2_2_2,2,2.0,1798.82059727,2_ND,test,02,3,26.0,01111,kill,0.0,900.0,3.85437814593
289,2_2_2,2,2.0,1803.94584559,2_ND,test,02,3,27.0,01101,kill,1.0,1000.0,3.36900713874
290,2_2_2,2,2.0,1808.78989024,2_ND,test,02,3,28.0,01011,ignore,1.0,1100.0,3.09616769909
291,2_2_2,2,2.0,1818.77475418,2_ND,test,02,3,29.0,00001,ignore,0.0,1000.0,8.21743708462
292,2_2_2,2,2.0,1823.90005542,2_ND,test,02,3,30.0,11010,kill,1.0,1100.0,3.39595300454
293,2_2_2,2,2.0,1827.65025379,2_ND,test,02,3,31.0,10010,kill,1.0,1200.0,1.99364191104
294,2_2_2,2,2.0,1837.33824879,2_ND,test,02,3,32.0,10100,ignore,1.0,1300.0,7.88782867285
295,2_2_2,2,2.0,1843.38544984,2_ND,test,02,3,33.0,10110,kill,1.0,1400.0,4.25242196876
296,2_2_2,2,2.0,1850.69834582,2_ND,test,02,3,34.0,00101,ignore,0.0,1300.0,5.5179754567
297,2_2_2,2,2.0,1855.35484031,2_ND,test,02,3,35.0,01100,ignore,0.0,1200.0,2.91742566674
298,2_2_2,2,2.0,1860.68322964,2_ND,test,02,3,36.0,11100,ignore,1.0,1300.0,3.55018028056
299,2_2_2,2,2.0,1868.04298542,2_ND,test,02,3,37.0,01110,kill,0.0,1200.0,5.62254395401
300,2_2_2,2,2.0,1873.98458266,2_ND,test,02,3,38.0,00011,ignore,1.0,1300.0,4.15163259585
301,2_2_2,2,2.0,1884.31326834,2_ND,test,02,3,39.0,11011,ignore,0.0,1200.0,8.57452954183
302,2_2_2,2,2.0,1893.89186278,2_ND,test,02,3,40.0,10001,ignore,1.0,1300.0,7.82527924083
303,2_2_2,2,2.0,1901.76726585,2_ND,test,02,3,41.0,11000,ignore,1.0,1400.0,6.11416432376
304,2_2_2,2,2.0,1909.68957715,2_ND,test,02,3,42.0,01000,ignore,0.0,1300.0,6.169542945
305,2_2_2,2,2.0,1916.86181837,2_ND,test,02,3,43.0,10000,ignore,1.0,1400.0,5.43046289222
306,2_2_2,2,2.0,1921.73704857,2_ND,test,02,3,44.0,00000,kill,1.0,1500.0,3.09647527613
307,2_2_2,2,2.0,1928.94059401,2_ND,test,02,3,45.0,01001,ignore,0.0,1400.0,5.45088421184
308,2_2_2,2,2.0,1937.76915782,2_ND,test,02,3,46.0,11101,ignore,1.0,1500.0,7.07707803733
309,2_2_2,2,2.0,1942.14438898,2_ND,test,02,3,47.0,10111,kill,1.0,1600.0,2.60377277401
310,2_2_2,2,2.0,1949.30725792,2_ND,test,02,3,48.0,00010,ignore,1.0,1700.0,5.42615970016
311,2_2_2,2,2.0,1953.10430903,2_ND,test,02,3,49.0,11111,kill,1.0,1800.0,2.03751221167
312,2_2_2,2,2.0,1962.1985482,2_ND,test,02,4,0.0,00110,kill,0.0,1700.0,7.3390320079
313,2_2_2,2,2.0,1967.43319324,2_ND,test,02,4,1.0,01010,kill,0.0,1600.0,3.51281688614
314,2_2_2,2,2.0,1975.85549877,2_ND,test,02,4,2.0,10011,ignore,0.0,1500.0,6.66578851657
315,2_2_2,2,2.0,1982.90277166,2_ND,test,02,4,3.0,00111,ignore,1.0,1600.0,5.29069526524
316,2_2_2,2,2.0,1990.10625295,2_ND,test,02,4,4.0,11001,ignore,1.0,1700.0,5.4348068166
317,2_2_2,2,2.0,1995.0440483,2_ND,test,02,4,5.0,10101,ignore,1.0,1800.0,3.18169271931
318,2_2_2,2,2.0,2002.88817121,2_ND,test,02,4,6.0,00100,kill,0.0,1700.0,6.04197416353
319,2_2_2,2,2.0,2012.76369263,2_ND,test,02,4,7.0,11110,kill,1.0,1800.0,8.10748967741
320,2_2_2,2,2.0,2018.73273319,2_ND,test,02,4,8.0,01100,ignore,0.0,1700.0,4.22534171842
321,2_2_2,2,2.0,2022.45168058,2_ND,test,02,4,9.0,11101,ignore,0.0,1600.0,1.94051639588
322,2_2_2,2,2.0,2030.29583491,2_ND,test,02,4,10.0,11010,kill,0.0,1500.0,6.10263098645
323,2_2_2,2,2.0,2036.88993873,2_ND,test,02,4,11.0,00001,ignore,0.0,1400.0,4.80407887571
324,2_2_2,2,2.0,2042.59335653,2_ND,test,02,4,12.0,10000,kill,1.0,1500.0,3.94394624875
325,2_2_2,2,2.0,2052.20321349,2_ND,test,02,4,13.0,00000,ignore,0.0,1400.0,7.86405864426
326,2_2_2,2,2.0,2057.43786174,2_ND,test,02,4,14.0,01110,kill,1.0,1500.0,3.47136903536
327,2_2_2,2,2.0,2063.48505894,2_ND,test,02,4,15.0,11001,ignore,1.0,1600.0,4.2990941391
328,2_2_2,2,2.0,2067.70403231,2_ND,test,02,4,16.0,10110,kill,0.0,1500.0,2.47602149896
329,2_2_2,2,2.0,2071.32920141,2_ND,test,02,4,17.0,01111,kill,1.0,1600.0,1.86302975255
330,2_2_2,2,2.0,2079.09526453,2_ND,test,02,4,18.0,11000,ignore,1.0,1700.0,6.02815693036
331,2_2_2,2,2.0,2082.98607981,2_ND,test,02,4,19.0,11111,kill,1.0,1800.0,2.15169866558
332,2_2_2,2,2.0,2090.86147198,2_ND,test,02,4,20.0,00110,kill,0.0,1700.0,6.0869644423
333,2_2_2,2,2.0,2098.75253294,2_ND,test,02,4,21.0,01001,ignore,1.0,1800.0,6.11859420293
334,2_2_2,2,2.0,2105.8310334,2_ND,test,02,4,22.0,00101,kill,0.0,1700.0,5.29924455999
335,2_2_2,2,2.0,2111.47193865,2_ND,test,02,4,23.0,10101,kill,0.0,1600.0,3.875343739
336,2_2_2,2,2.0,2114.61272041,2_ND,test,02,4,24.0,10111,kill,0.0,1500.0,1.34877697233
337,2_2_2,2,2.0,2119.8942554,2_ND,test,02,4,25.0,00011,kill,1.0,1600.0,3.4842946479
338,2_2_2,2,2.0,2126.80082093,2_ND,test,02,4,26.0,10011,kill,1.0,1700.0,5.14179558282
339,2_2_2,2,2.0,2139.30297429,2_ND,test,02,4,27.0,00100,ignore,1.0,1800.0,10.6988086281
340,2_2_2,2,2.0,2158.58523893,2_ND,test,02,4,28.0,00111,kill,0.0,1700.0,17.5103703818
341,2_2_2,2,2.0,2167.03878486,2_ND,test,02,4,29.0,10010,ignore,0.0,1600.0,6.68291436786
342,2_2_2,2,2.0,2172.38284233,2_ND,test,02,4,30.0,01010,ignore,1.0,1700.0,3.58666744924
343,2_2_2,2,2.0,2180.639546,2_ND,test,02,4,31.0,10100,kill,0.0,1600.0,6.50489846109
344,2_2_2,2,2.0,2185.7648171,2_ND,test,02,4,32.0,11110,kill,1.0,1700.0,3.35137902921
345,2_2_2,2,2.0,2194.28086563,2_ND,test,02,4,33.0,01101,ignore,0.0,1600.0,6.7589340066
346,2_2_2,2,2.0,2202.45633753,2_ND,test,02,4,34.0,00010,ignore,0.0,1500.0,6.41973233421
347,2_2_2,2,2.0,2210.59735727,2_ND,test,02,4,35.0,11100,kill,1.0,1600.0,6.37319743496
348,2_2_2,2,2.0,2222.11359535,2_ND,test,02,4,36.0,11011,ignore,1.0,1700.0,9.78643954075
349,2_2_2,2,2.0,2225.39502995,2_ND,test,02,4,37.0,01011,ignore,1.0,1800.0,1.54908531911
350,2_2_2,2,2.0,2232.00472912,2_ND,test,02,4,38.0,10001,ignore,0.0,1700.0,4.82894482793
351,2_2_2,2,2.0,2241.86463018,2_ND,test,02,4,39.0,01000,ignore,1.0,1800.0,8.11254401174
352,2_2_2,2,2.0,2249.8181931,2_ND,test,02,4,40.0,10100,ignore,1.0,1900.0,6.18120104506
353,2_2_2,2,2.0,2259.19367058,2_ND,test,02,4,41.0,11111,ignore,0.0,1800.0,7.62578970967
354,2_2_2,2,2.0,2263.94389269,2_ND,test,02,4,42.0,10011,ignore,0.0,1700.0,3.01162346155
355,2_2_2,2,2.0,2272.05370796,2_ND,test,02,4,43.0,01100,kill,1.0,1800.0,6.34483491869
356,2_2_2,2,2.0,2279.47595286,2_ND,test,02,4,44.0,00111,kill,0.0,1700.0,5.67880649844
357,2_2_2,2,2.0,2289.47646506,2_ND,test,02,4,45.0,10010,kill,1.0,1800.0,8.23112057469
358,2_2_2,2,2.0,2293.53920757,2_ND,test,02,4,46.0,01011,ignore,1.0,1900.0,2.32841017628
359,2_2_2,2,2.0,2306.46175268,2_ND,test,02,4,47.0,00001,kill,1.0,2000.0,11.1448883518
360,2_2_2,2,2.0,2313.88400176,2_ND,test,02,4,48.0,11101,ignore,0.0,1900.0,5.66628051155
361,2_2_2,2,2.0,2322.47816588,2_ND,test,02,4,49.0,11010,kill,0.0,1800.0,6.85271678088
362,2_2_2,2,2.0,2330.19732462,2_ND,test,02,4,50.0,01000,ignore,1.0,1900.0,5.95673908037
363,2_2_2,2,2.0,2337.76025251,2_ND,test,02,4,51.0,01111,ignore,0.0,1800.0,5.81924636889
364,2_2_2,2,2.0,2344.61996467,2_ND,test,02,4,52.0,11100,kill,1.0,1900.0,5.09339854351
365,2_2_2,2,2.0,2351.2921953,2_ND,test,02,4,53.0,10001,kill,1.0,2000.0,4.89323869326
366,2_2_2,2,2.0,2363.0115173,2_ND,test,02,4,54.0,10111,ignore,1.0,2100.0,9.97417796106
367,2_2_2,2,2.0,2371.15837171,2_ND,test,02,4,55.0,01101,kill,1.0,2200.0,6.39128803259
368,2_2_2,2,2.0,2378.26809076,2_ND,test,02,4,56.0,00100,kill,0.0,2100.0,5.36302301728
369,2_2_2,2,2.0,2385.12789624,2_ND,test,02,5,0.0,00010,ignore,1.0,2200.0,5.11328264566
370,2_2_2,2,2.0,2396.03469463,2_ND,test,02,5,1.0,01001,ignore,0.0,2100.0,9.12807103971
371,2_2_2,2,2.0,2399.58171895,2_ND,test,02,5,2.0,00011,ignore,1.0,2200.0,1.80525786759
372,2_2_2,2,2.0,2405.91018879,2_ND,test,02,5,3.0,10110,kill,1.0,2300.0,4.58810013605
373,2_2_2,2,2.0,2412.31681366,2_ND,test,02,5,4.0,11000,ignore,1.0,2400.0,4.64079202853
374,2_2_2,2,2.0,2418.39539302,2_ND,test,02,5,5.0,00110,kill,0.0,2300.0,4.31634090441
375,2_2_2,2,2.0,2424.53635631,2_ND,test,02,5,6.0,01010,ignore,1.0,2400.0,4.37199342638
376,2_2_2,2,2.0,2435.06816183,2_ND,test,02,5,7.0,00000,ignore,0.0,2300.0,8.78621823922
377,2_2_2,2,2.0,2441.94351391,2_ND,test,02,5,8.0,11001,kill,0.0,2200.0,5.10727158315
378,2_2_2,2,2.0,2451.83759611,2_ND,test,02,5,9.0,10000,ignore,1.0,2300.0,8.11439524708
379,2_2_2,2,2.0,2460.18175366,2_ND,test,02,5,10.0,11110,kill,1.0,2400.0,6.60074350897
380,2_2_2,2,2.0,2468.77598962,2_ND,test,02,5,11.0,00101,kill,1.0,2500.0,6.80192744004
381,2_2_2,2,2.0,2475.87004758,2_ND,test,02,5,12.0,10101,ignore,1.0,2600.0,5.3486021762
382,2_2_2,2,2.0,2479.8546745,2_ND,test,02,5,13.0,11011,ignore,0.0,2500.0,2.22671763658
383,2_2_2,2,2.0,2489.49581676,2_ND,test,02,5,14.0,01110,ignore,1.0,2600.0,7.88012481406
384,2_2_2,2,2.0,2498.6368859,2_ND,test,02,5,15.0,00001,kill,1.0,2700.0,7.41611036596
385,2_2_2,2,2.0,2503.87153222,2_ND,test,02,5,16.0,10101,ignore,1.0,2800.0,3.4573391603
386,2_2_2,2,2.0,2510.84065938,2_ND,test,02,5,17.0,00111,ignore,1.0,2900.0,5.22950122486
387,2_2_2,2,2.0,2515.46589038,2_ND,test,02,6,0.0,01100,kill,1.0,3000.0,2.88902787052
388,2_2_2,2,2.0,2522.18494874,2_ND,test,02,6,1.0,01000,ignore,0.0,2900.0,4.93918249293
389,2_2_2,2,2.0,2528.49784183,2_ND,test,02,6,2.0,11000,ignore,0.0,2800.0,4.57029883403
390,2_2_2,2,2.0,2538.46706777,2_ND,test,02,6,3.0,11100,kill,1.0,2900.0,8.24905690271
391,2_2_2,2,2.0,2543.87361181,2_ND,test,02,6,4.0,00010,ignore,1.0,3000.0,3.63293582448
392,2_2_2,2,2.0,2553.38975528,2_ND,test,02,6,5.0,11010,kill,1.0,3100.0,7.78175724955
393,2_2_2,2,2.0,2559.89006029,2_ND,test,02,6,6.0,10011,kill,1.0,3200.0,4.7196770409
394,2_2_2,2,2.0,2568.67177168,2_ND,test,02,6,7.0,00100,ignore,1.0,3300.0,7.02377548095
395,2_2_2,2,2.0,2576.92221636,2_ND,test,02,6,8.0,01001,ignore,1.0,3400.0,6.48026503584
396,2_2_2,2,2.0,2587.09462372,2_ND,test,02,6,9.0,10110,kill,0.0,3300.0,8.3996336658
397,2_2_2,2,2.0,2590.71979988,2_ND,test,02,6,10.0,01011,ignore,1.0,3400.0,1.89036658437
398,2_2_2,2,2.0,2603.78299365,2_ND,test,02,6,11.0,11110,ignore,0.0,3300.0,11.2933656369
399,2_2_2,2,2.0,2612.67405461,2_ND,test,02,6,12.0,10001,kill,1.0,3400.0,7.13740130433
400,2_2_2,2,2.0,2622.61522465,2_ND,test,02,7,0.0,01110,ignore,0.0,3300.0,8.17324445351
401,2_2_2,2,2.0,2629.09995067,2_ND,test,02,7,1.0,10111,ignore,1.0,3400.0,4.71151422199
402,2_2_2,2,2.0,2638.25666005,2_ND,test,02,7,2.0,10000,kill,1.0,3500.0,7.41612704375
403,2_2_2,2,2.0,2641.81939166,2_ND,test,02,7,3.0,00011,ignore,1.0,3600.0,1.78530480917
404,2_2_2,2,2.0,2646.77275637,2_ND,test,02,7,4.0,11111,ignore,1.0,3700.0,3.21769462827
405,2_2_2,2,2.0,2650.93414612,2_ND,test,02,7,5.0,01111,kill,1.0,3800.0,2.40627559801
406,2_2_2,2,2.0,2657.3563689,2_ND,test,02,7,6.0,01010,ignore,1.0,3900.0,4.65267014719
407,2_2_2,2,2.0,2663.68483424,2_ND,test,02,7,7.0,11011,kill,1.0,4000.0,4.58412504755
408,2_2_2,2,2.0,2669.95656364,2_ND,test,02,7,8.0,10100,kill,0.0,3900.0,4.50009493515
409,2_2_2,2,2.0,2675.81622448,2_ND,test,02,7,9.0,00101,kill,1.0,4000.0,4.10886687848
410,2_2_2,2,2.0,2683.0040851,2_ND,test,02,7,10.0,00000,ignore,1.0,4100.0,5.42930923777
411,2_2_2,2,2.0,2688.53567284,2_ND,test,02,8,0.0,11101,kill,0.0,4000.0,3.76020697145
412,2_2_2,2,2.0,2692.53581974,2_ND,test,02,8,1.0,11001,kill,0.0,3900.0,2.27227528113
413,2_2_2,2,2.0,2702.11447671,2_ND,test,02,8,2.0,10010,ignore,1.0,4000.0,7.84480348746
414,2_2_2,2,2.0,2709.22423104,2_ND,test,02,8,3.0,00110,ignore,1.0,4100.0,5.34042941476
415,2_2_2,2,2.0,2723.64680758,2_ND,test,02,8,4.0,01101,kill,0.0,4000.0,12.6588858334
416,2_2_2,2,2.0,2731.44409507,2_ND,test,02,8,5.0,10100,ignore,0.0,3900.0,6.01314755552
417,2_2_2,2,2.0,2736.90010064,2_ND,test,02,8,6.0,01010,ignore,1.0,4000.0,3.7213951746
418,2_2_2,2,2.0,2740.29089347,2_ND,test,02,8,7.0,01011,ignore,0.0,3900.0,1.61727152542
