,unique_id,pair_id,sbj_id,wall_time,condition,block,rule_id,rule_num,trial,stimulus,choice,correct,points,reaction_time
0,3_4_7,4,7.0,58.647680279,3_D,training,04,1_A,1.0,11101,kill,1.0,100.0,10.8857474764
1,3_4_7,4,7.0,63.1635087902,3_D,training,04,1_A,2.0,10100,kill,1.0,200.0,2.71050136662
2,3_4_7,4,7.0,66.3199529301,3_D,training,04,1_A,3.0,01010,ignore,0.0,100.0,1.35140597027
3,3_4_7,4,7.0,73.1171679307,3_D,training,04,1_A,4.0,00010,ignore,0.0,0.0,4.98166115979
4,3_4_7,4,7.0,76.7267439362,3_D,training,04,1_A,5.0,10001,kill,0.0,0.0,1.78404980503
5,3_4_7,4,7.0,82.5084694338,3_D,training,04,1_A,6.0,11000,kill,0.0,0.0,3.97384119788
6,3_4_7,4,7.0,87.8539121298,3_D,training,04,1_A,7.0,00101,ignore,0.0,0.0,3.52089567461
7,3_4_7,4,7.0,91.5728505368,3_D,training,04,1_A,8.0,10111,kill,0.0,0.0,1.91137130611
8,3_4_7,4,7.0,95.6043160853,3_D,training,04,1_A,9.0,10110,kill,0.0,0.0,2.21551913809
9,3_4_7,4,7.0,100.026445211,3_D,training,04,1_A,10.0,00110,ignore,1.0,100.0,2.61940018949
10,3_4_7,4,7.0,105.948613787,3_D,training,04,1_A,11.0,00100,kill,1.0,200.0,4.11023574065
11,3_4_7,4,7.0,109.464423696,3_D,training,04,1_A,12.0,10011,kill,1.0,300.0,1.70933488309
12,3_4_7,4,7.0,115.824150282,3_D,training,04,1_A,13.0,01100,kill,1.0,400.0,4.54975082731
13,3_4_7,4,7.0,123.402611294,3_D,training,04,1_A,14.0,01111,kill,0.0,300.0,5.77055618525
14,3_4_7,4,7.0,126.927064791,3_D,training,04,1_A,15.0,11011,kill,1.0,400.0,1.75045302667
15,3_4_7,4,7.0,134.61496999,3_D,training,04,1_A,16.0,01101,kill,1.0,500.0,5.89431633545
16,3_4_7,4,7.0,137.77310436,3_D,training,04,1_A,17.0,11110,kill,0.0,400.0,1.36511704285
17,3_4_7,4,7.0,144.617199683,3_D,training,04,1_A,18.0,11010,kill,1.0,500.0,5.0682936498
18,3_4_7,4,7.0,150.930076416,3_D,training,04,1_A,19.0,00011,ignore,0.0,400.0,4.51589393948
19,3_4_7,4,7.0,156.008429343,3_D,training,04,1_A,20.0,01110,kill,0.0,300.0,3.30739005965
20,3_4_7,4,7.0,160.243082403,3_D,training,04,1_A,21.0,10101,kill,1.0,400.0,2.45200996306
21,3_4_7,4,7.0,169.205881617,3_D,training,04,1_A,22.0,00111,ignore,1.0,500.0,7.15839447991
22,3_4_7,4,7.0,172.143518848,3_D,training,04,1_A,23.0,10000,kill,0.0,400.0,1.15356722018
23,3_4_7,4,7.0,176.737525169,3_D,training,04,1_A,24.0,01011,ignore,0.0,300.0,2.7932325353
24,3_4_7,4,7.0,179.84703286,3_D,training,04,1_A,25.0,11111,kill,0.0,200.0,1.31799040257
25,3_4_7,4,7.0,194.832206299,3_D,training,04,1_A,26.0,01000,ignore,1.0,300.0,13.1993740695
26,3_4_7,4,7.0,197.555803584,3_D,training,04,1_A,27.0,10010,kill,1.0,400.0,0.93155368422
27,3_4_7,4,7.0,200.321579336,3_D,training,04,1_A,28.0,00000,ignore,1.0,500.0,0.972697806677
28,3_4_7,4,7.0,203.431092479,3_D,training,04,1_A,29.0,11001,kill,0.0,400.0,1.33251098971
29,3_4_7,4,7.0,206.196873362,3_D,training,04,1_A,30.0,00001,ignore,1.0,500.0,0.972598702083
30,3_4_7,4,7.0,208.853242131,3_D,training,04,1_A,31.0,11100,ignore,0.0,400.0,0.884750657331
31,3_4_7,4,7.0,212.119038089,3_D,training,04,1_A,32.0,01001,ignore,1.0,500.0,1.49606981325
32,3_4_7,4,7.0,215.400503477,3_D,training,04,1_A,33.0,11111,kill,0.0,400.0,1.48266246899
33,3_4_7,4,7.0,220.150730391,3_D,training,04,1_A,34.0,10011,kill,1.0,500.0,2.95645074694
34,3_4_7,4,7.0,223.33836233,3_D,training,04,1_A,35.0,01110,ignore,1.0,600.0,1.40331945869
35,3_4_7,4,7.0,228.791782209,3_D,training,04,1_A,36.0,10111,kill,0.0,500.0,3.65671996505
36,3_4_7,4,7.0,232.32324455,3_D,training,04,1_A,37.0,11110,ignore,1.0,600.0,1.75482421282
37,3_4_7,4,7.0,237.292211982,3_D,training,04,1_A,38.0,00010,kill,1.0,700.0,3.18662581889
38,3_4_7,4,7.0,242.386217341,3_D,training,04,1_A,39.0,11011,kill,1.0,800.0,3.32831908985
39,3_4_7,4,7.0,249.35536823,3_D,training,04,1_A,40.0,10101,ignore,0.0,700.0,5.17554181989
40,3_4_7,4,7.0,254.231509296,3_D,training,04,1_A,41.0,00111,kill,0.0,600.0,3.08384633592
41,3_4_7,4,7.0,258.169220294,3_D,training,04,1_A,42.0,01100,ignore,0.0,500.0,2.13221034036
42,3_4_7,4,7.0,261.450647195,3_D,training,04,1_A,43.0,10110,kill,0.0,400.0,1.48355280671
43,3_4_7,4,7.0,264.403910238,3_D,training,04,1_A,44.0,01101,ignore,0.0,300.0,1.16635043
44,3_4_7,4,7.0,267.966586357,3_D,training,04,1_A,45.0,11100,kill,1.0,400.0,1.79016382086
45,3_4_7,4,7.0,273.076225866,3_D,training,04,1_A,46.0,01111,ignore,1.0,500.0,3.32413937762
46,3_4_7,4,7.0,277.013948731,3_D,training,04,1_A,47.0,00000,kill,0.0,400.0,2.14737045682
47,3_4_7,4,7.0,280.201570086,3_D,training,04,1_A,48.0,11010,kill,1.0,500.0,1.41134821378
48,3_4_7,4,7.0,283.264255506,3_D,training,04,1_A,49.0,00001,ignore,1.0,600.0,1.26476546208
49,3_4_7,4,7.0,286.436281198,3_D,training,04,1_A,50.0,10010,kill,1.0,700.0,1.38819301855
50,3_4_7,4,7.0,289.702081004,3_D,training,04,1_A,51.0,00110,ignore,1.0,800.0,1.46641188126
51,3_4_7,4,7.0,297.046207437,3_D,training,04,1_A,52.0,10000,ignore,1.0,900.0,5.5656460497
52,3_4_7,4,7.0,304.390339323,3_D,training,04,1_A,53.0,11101,kill,1.0,1000.0,5.54529496927
53,3_4_7,4,7.0,308.640566237,3_D,training,04,1_A,54.0,00101,kill,1.0,1100.0,2.43740887349
54,3_4_7,4,7.0,311.940791259,3_D,training,04,1_A,55.0,10001,ignore,1.0,1200.0,1.52865533988
55,3_4_7,4,7.0,315.342171603,3_D,training,04,1_A,56.0,01000,ignore,1.0,1300.0,1.62623359562
56,3_4_7,4,7.0,319.01425695,3_D,training,04,1_A,57.0,01001,ignore,1.0,1400.0,1.88744508355
57,3_4_7,4,7.0,322.092557598,3_D,training,04,1_A,58.0,00011,kill,1.0,1500.0,1.28907399104
58,3_4_7,4,7.0,325.639660183,3_D,training,04,1_A,59.0,11000,ignore,1.0,1600.0,1.76478855441
59,3_4_7,4,7.0,329.036755938,3_D,training,04,1_A,60.0,11001,ignore,1.0,1700.0,1.603170449
60,3_4_7,4,7.0,332.286893369,3_D,training,04,1_A,61.0,01011,kill,1.0,1800.0,1.47275970696
61,3_4_7,4,7.0,335.021443797,3_D,training,04,1_A,62.0,01010,kill,1.0,1900.0,0.97287420644
62,3_4_7,4,7.0,339.552938211,3_D,training,04,1_A,63.0,10100,kill,1.0,2000.0,2.73245030819
63,3_4_7,4,7.0,346.256390643,3_D,training,04,1_A,64.0,00100,kill,1.0,2100.0,4.90743759137
64,3_4_7,4,7.0,349.115897211,3_D,training,04,1_A,65.0,01000,ignore,1.0,2200.0,1.09055946949
65,3_4_7,4,7.0,354.886604138,3_D,training,04,1_A,66.0,10110,ignore,1.0,2300.0,3.98960203572
66,3_4_7,4,7.0,357.91802286,3_D,training,04,1_A,67.0,10010,kill,1.0,2400.0,1.25865786079
67,3_4_7,4,7.0,360.98069481,3_D,training,04,1_A,68.0,00010,kill,1.0,2500.0,1.29497696861
68,3_4_7,4,7.0,363.902689872,3_D,training,04,1_A,69.0,00001,ignore,1.0,2600.0,1.12107823233
69,3_4_7,4,7.0,371.059312336,3_D,training,04,1_A,70.0,10111,ignore,1.0,2700.0,5.36185300576
70,3_4_7,4,7.0,376.434616305,3_D,training,04,1_A,71.0,11111,ignore,1.0,2800.0,3.58280269077
71,3_4_7,4,7.0,379.82539374,3_D,training,04,1_A,72.0,00110,ignore,1.0,2900.0,1.61952238641
72,3_4_7,4,7.0,382.888082047,3_D,training,04,1_A,73.0,11010,kill,1.0,3000.0,1.2983939924
73,3_4_7,4,7.0,400.482738481,3_D,training,04,1_A,74.0,11100,kill,1.0,3100.0,15.8124873714
74,3_4_7,4,7.0,403.451636958,3_D,training,04,1_A,75.0,10101,kill,1.0,3200.0,1.19018845268
75,3_4_7,4,7.0,406.686165576,3_D,training,04,1_A,76.0,11011,kill,1.0,3300.0,1.46119333478
76,3_4_7,4,7.0,409.576938521,3_D,training,04,1_A,77.0,00111,ignore,1.0,3400.0,1.09718761045
77,3_4_7,4,7.0,414.514673574,3_D,training,04,1_A,78.0,01001,ignore,1.0,3500.0,3.1386434794
78,3_4_7,4,7.0,417.249210531,3_D,training,04,1_A,79.0,01010,kill,1.0,3600.0,0.962009905328
79,3_4_7,4,7.0,422.171345109,3_D,training,04,1_A,80.0,01101,kill,1.0,3700.0,3.13841255607
80,3_4_7,4,7.0,426.843462849,3_D,training,04,1_A,81.0,01111,ignore,1.0,3800.0,2.89727407841
81,3_4_7,4,7.0,430.397284342,3_D,training,04,1_A,82.0,00000,ignore,1.0,3900.0,1.79492982176
82,3_4_7,4,7.0,433.881858343,3_D,training,04,1_A,83.0,11001,ignore,1.0,4000.0,1.71420319585
83,3_4_7,4,7.0,436.835147685,3_D,training,04,1_A,84.0,01100,kill,1.0,4100.0,1.14715492839
84,3_4_7,4,7.0,439.741567931,3_D,training,04,1_A,85.0,10000,ignore,1.0,4200.0,1.13932470322
85,3_4_7,4,7.0,442.663568445,3_D,training,04,1_A,86.0,00101,kill,1.0,4300.0,1.11553992119
86,3_4_7,4,7.0,446.101258276,3_D,training,04,1_A,87.0,11101,kill,1.0,4400.0,1.66985565368
87,3_4_7,4,7.0,448.945144164,3_D,training,04,1_A,88.0,00100,kill,1.0,4500.0,1.05697103003
88,3_4_7,4,7.0,452.210940121,3_D,training,04,1_A,89.0,01110,ignore,1.0,4600.0,1.49321021271
89,3_4_7,4,7.0,456.023648794,3_D,training,04,1_A,90.0,11000,ignore,1.0,4700.0,2.05642194567
90,3_4_7,4,7.0,458.914433606,3_D,training,04,1_A,91.0,01011,kill,1.0,4800.0,1.11663616554
91,3_4_7,4,7.0,463.383386606,3_D,training,04,1_A,92.0,10100,kill,1.0,4900.0,2.67765925852
92,3_4_7,4,7.0,468.024281909,3_D,training,04,1_A,93.0,10011,kill,1.0,5000.0,2.85585862104
93,3_4_7,4,7.0,471.071319066,3_D,training,04,1_A,94.0,10001,ignore,1.0,5100.0,1.26652496955
94,3_4_7,4,7.0,473.727669875,3_D,training,04,1_A,95.0,00011,kill,1.0,5200.0,0.894974787663
95,3_4_7,4,7.0,477.665421284,3_D,training,04,1_A,96.0,11110,ignore,1.0,5300.0,2.16199977036
96,3_4_7,4,7.0,480.618655141,3_D,training,04,1_A,97.0,10000,ignore,1.0,5400.0,1.17723910635
97,3_4_7,4,7.0,483.321935984,3_D,training,04,1_A,98.0,10011,kill,1.0,5500.0,0.920741020129
98,3_4_7,4,7.0,491.056707393,3_D,training,04,1_A,99.0,10101,kill,1.0,5600.0,5.93778123735
99,3_4_7,4,7.0,494.963169333,3_D,training,04,1_A,100.0,00010,kill,1.0,5700.0,2.14360929313
100,3_4_7,4,7.0,497.699023515,3_D,training,04,1_A,101.0,01000,ignore,1.0,5800.0,0.959789192661
101,3_4_7,4,7.0,500.824165998,3_D,training,04,1_A,102.0,11110,ignore,1.0,5900.0,1.37655736937
102,3_4_7,4,7.0,503.480580952,3_D,training,04,1_A,103.0,00110,ignore,1.0,6000.0,0.888773213406
103,3_4_7,4,7.0,508.933969078,3_D,training,04,1_A,104.0,11100,kill,1.0,6100.0,3.67572527565
104,3_4_7,4,7.0,512.590410652,3_D,training,04,1_A,105.0,00100,kill,1.0,6200.0,1.87741371005
105,3_4_7,4,7.0,515.496828012,3_D,training,04,1_A,106.0,00001,ignore,1.0,6300.0,1.12020232732
106,3_4_7,4,7.0,519.031406214,3_D,training,04,1_A,107.0,10100,kill,1.0,6400.0,1.75322667241
107,3_4_7,4,7.0,522.00033548,3_D,training,04,1_A,108.0,00111,ignore,1.0,6500.0,1.19349290135
108,3_4_7,4,7.0,524.844211746,3_D,training,04,1_A,109.0,01101,kill,1.0,6600.0,1.06450586577
109,3_4_7,4,7.0,527.43809587,3_D,training,04,1_A,110.0,11011,ignore,0.0,6500.0,0.820682583699
110,3_4_7,4,7.0,530.219462475,3_D,training,04,1_A,111.0,10001,ignore,1.0,6600.0,1.00271944291
111,3_4_7,4,7.0,534.704087471,3_D,training,04,1_A,112.0,01100,kill,1.0,6700.0,2.70484117927
112,3_4_7,4,7.0,537.469886636,3_D,training,04,1_A,113.0,00000,ignore,1.0,6800.0,1.01049097507
113,3_4_7,4,7.0,540.095031364,3_D,training,04,1_A,114.0,11000,ignore,1.0,6900.0,0.857592791088
114,3_4_7,4,7.0,543.095157089,3_D,training,04,1_A,115.0,11010,kill,1.0,7000.0,1.23059939357
115,3_4_7,4,7.0,546.220362755,3_D,training,04,1_A,116.0,01110,ignore,1.0,7100.0,1.35621109984
116,3_4_7,4,7.0,550.111212995,3_D,training,04,1_A,117.0,10010,kill,1.0,7200.0,2.10820778481
117,3_4_7,4,7.0,552.876947373,3_D,training,04,1_A,118.0,00011,kill,1.0,7300.0,0.981976434276
118,3_4_7,4,7.0,555.502071575,3_D,training,04,1_A,119.0,01011,kill,1.0,7400.0,0.852829355999
119,3_4_7,4,7.0,558.205372624,3_D,training,04,1_A,120.0,10111,ignore,1.0,7500.0,0.913202014934
120,3_4_7,4,7.0,562.377440972,3_D,training,04,1_A,121.0,00101,kill,1.0,7600.0,2.39517941139
121,3_4_7,4,7.0,565.361989315,3_D,training,04,1_A,122.0,01111,ignore,1.0,7700.0,1.20882717249
122,3_4_7,4,7.0,568.315243056,3_D,training,04,1_A,123.0,01010,kill,1.0,7800.0,1.20838617308
123,3_4_7,4,7.0,571.331070926,3_D,training,04,1_A,124.0,11101,kill,1.0,7900.0,1.24725634221
124,3_4_7,4,7.0,574.128038967,3_D,training,04,1_A,125.0,11001,ignore,1.0,8000.0,1.02821658556
125,3_4_7,4,7.0,582.987913088,3_D,training,04,1_A,126.0,11111,ignore,1.0,8100.0,7.09057261929
126,3_4_7,4,7.0,585.47242134,3_D,training,04,1_A,127.0,10110,ignore,1.0,8200.0,0.696505488599
127,3_4_7,4,7.0,587.975273885,3_D,training,04,1_A,128.0,01001,ignore,1.0,8300.0,0.715074931413
128,3_4_7,4,7.0,590.444173323,3_D,training,04,1_A,129.0,11110,ignore,1.0,8400.0,0.701791387715
129,3_4_7,4,7.0,596.975787048,3_D,training,04,1_A,130.0,00100,kill,1.0,8500.0,4.7356046567
130,3_4_7,4,7.0,602.304141738,3_D,training,04,1_A,131.0,01101,kill,1.0,8600.0,3.55815675717
131,3_4_7,4,7.0,605.476195333,3_D,training,04,1_A,132.0,01110,ignore,1.0,8700.0,1.42900390581
132,3_4_7,4,7.0,608.00372845,3_D,training,04,1_A,133.0,11111,ignore,1.0,8800.0,0.755186954884
133,3_4_7,4,7.0,610.535117344,3_D,training,04,1_A,134.0,00001,ignore,1.0,8900.0,0.747697983077
134,3_4_7,4,7.0,613.288394692,3_D,training,04,1_A,135.0,01010,kill,1.0,9000.0,1.00498569879
135,3_4_7,4,7.0,616.601049482,3_D,training,04,1_A,136.0,10001,ignore,1.0,9100.0,1.53182829054
136,3_4_7,4,7.0,619.476959625,3_D,training,04,1_A,137.0,01000,ignore,1.0,9200.0,1.10139939537
137,3_4_7,4,7.0,622.148951961,3_D,training,04,1_A,138.0,11101,kill,1.0,9300.0,0.887579788819
138,3_4_7,4,7.0,625.977278427,3_D,training,04,1_A,139.0,01011,kill,1.0,9400.0,2.07546734712
139,3_4_7,4,7.0,629.039907079,3_D,training,04,1_A,140.0,00110,ignore,1.0,9500.0,1.27000645944
140,3_4_7,4,7.0,631.7431783,3_D,training,04,1_A,141.0,01100,kill,1.0,9600.0,0.930196368217
141,3_4_7,4,7.0,635.290215137,3_D,training,04,1_A,142.0,10110,ignore,1.0,9700.0,1.77940856687
142,3_4_7,4,7.0,638.15292737,3_D,training,04,1_A,143.0,00011,kill,1.0,9800.0,1.08228760346
143,3_4_7,4,7.0,640.949967895,3_D,training,04,1_A,144.0,11000,ignore,1.0,9900.0,1.03076411888
144,3_4_7,4,7.0,643.684453215,3_D,training,04,1_A,145.0,10010,kill,1.0,10000.0,0.947968163371
145,3_4_7,4,7.0,647.481554037,3_D,training,04,1_A,146.0,11011,kill,1.0,10100.0,2.04483440552
146,3_4_7,4,7.0,650.841061888,3_D,training,04,1_A,147.0,00101,kill,1.0,10200.0,1.56899058923
147,3_4_7,4,7.0,658.07583939,3_D,training,04,1_A,148.0,11100,kill,1.0,10300.0,5.46405389751
148,3_4_7,4,7.0,660.825964955,3_D,training,04,1_A,149.0,10000,ignore,1.0,10400.0,0.993537995546
149,3_4_7,4,7.0,663.701152179,3_D,training,04,1_A,150.0,00000,ignore,1.0,10500.0,1.08840322292
150,3_4_7,4,7.0,666.607545163,3_D,training,04,1_A,151.0,10101,kill,1.0,10600.0,1.09880535665
151,3_4_7,4,7.0,669.326419104,3_D,training,04,1_A,152.0,11010,kill,1.0,10700.0,0.932889511527
152,3_4_7,4,7.0,672.49846885,3_D,training,04,1_A,153.0,10111,ignore,1.0,10800.0,1.38149239332
153,3_4_7,4,7.0,675.373617587,3_D,training,04,1_A,154.0,10011,kill,1.0,10900.0,1.1012133738
154,3_4_7,4,7.0,679.217548377,3_D,training,04,1_A,155.0,01001,ignore,1.0,11000.0,2.05497835415
155,3_4_7,4,7.0,681.733320761,3_D,training,04,1_A,156.0,11001,ignore,1.0,11100.0,0.730953476006
156,3_4_7,4,7.0,687.88990121,3_D,training,04,1_A,157.0,00111,ignore,1.0,11200.0,4.37963795071
157,3_4_7,4,7.0,690.577519357,3_D,training,04,1_A,158.0,00010,kill,1.0,11300.0,0.904618723134
158,3_4_7,4,7.0,695.530902994,3_D,training,04,1_A,159.0,10100,kill,1.0,11400.0,3.1792337066
159,3_4_7,4,7.0,698.468578391,3_D,training,04,1_A,160.0,01111,ignore,1.0,11500.0,1.16892490438
160,3_4_7,4,7.0,701.140530957,3_D,training,04,1_A,161.0,01101,kill,1.0,11600.0,0.880648240267
161,3_4_7,4,7.0,704.062594013,3_D,training,04,1_A,162.0,01010,kill,1.0,11700.0,1.17307607192
162,3_4_7,4,7.0,706.797143799,3_D,training,04,1_A,163.0,00001,ignore,1.0,11800.0,0.948662857714
163,3_4_7,4,7.0,709.95351321,3_D,training,04,1_A,164.0,00110,ignore,1.0,11900.0,1.38972256487
164,3_4_7,4,7.0,712.609901864,3_D,training,04,1_A,165.0,00101,kill,1.0,12000.0,0.868319821111
165,3_4_7,4,7.0,715.985089088,3_D,training,04,1_A,166.0,11101,kill,1.0,12100.0,1.6080750039
166,3_4_7,4,7.0,719.266532667,3_D,training,04,1_A,167.0,00011,kill,1.0,12200.0,1.51059745638
167,3_4_7,4,7.0,721.876040358,3_D,training,04,1_A,168.0,11100,kill,1.0,12300.0,0.825405286476
168,3_4_7,4,7.0,725.844965775,3_D,training,04,1_A,169.0,10101,kill,1.0,12400.0,2.18175750613
169,3_4_7,4,7.0,728.798284945,3_D,training,04,1_A,170.0,10110,ignore,1.0,12500.0,1.18857680029
170,3_4_7,4,7.0,731.985927468,3_D,training,04,1_A,171.0,10111,ignore,1.0,12600.0,1.40327359475
171,3_4_7,4,7.0,734.70479724,3_D,training,04,1_A,172.0,10001,ignore,1.0,12700.0,0.962241790836
172,3_4_7,4,7.0,737.408064612,3_D,training,04,1_A,173.0,11011,kill,1.0,12800.0,0.931088951025
173,3_4_7,4,7.0,741.752063717,3_D,training,04,1_A,174.0,11010,kill,1.0,12900.0,2.57300608932
174,3_4_7,4,7.0,744.642839549,3_D,training,04,1_A,175.0,01111,ignore,1.0,13000.0,1.13187550154
175,3_4_7,4,7.0,747.814882559,3_D,training,04,1_A,176.0,01110,kill,0.0,12900.0,1.40560078873
176,3_4_7,4,7.0,750.84627402,3_D,training,04,1_A,177.0,00100,kill,1.0,13000.0,1.25145529806
177,3_4_7,4,7.0,753.627661792,3_D,training,04,1_A,178.0,10011,kill,1.0,13100.0,0.983737224649
178,3_4_7,4,7.0,756.659076987,3_D,training,04,1_A,179.0,11111,ignore,1.0,13200.0,1.25496693627
179,3_4_7,4,7.0,759.442587971,3_D,training,04,1_A,180.0,01011,kill,1.0,13300.0,1.0195633753
180,3_4_7,4,7.0,762.130216061,3_D,training,04,1_A,181.0,10010,kill,1.0,13400.0,0.897371579369
181,3_4_7,4,7.0,764.974092648,3_D,training,04,1_A,182.0,00111,ignore,1.0,13500.0,1.07573515404
182,3_4_7,4,7.0,767.302356573,3_D,training,04,1_A,183.0,10000,ignore,1.0,13600.0,0.53526167141
183,3_4_7,4,7.0,769.958723738,3_D,training,04,1_A,184.0,01100,kill,1.0,13700.0,0.864632424586
184,3_4_7,4,7.0,773.05265982,3_D,training,04,1_A,185.0,10100,kill,1.0,13800.0,1.3164566868
185,3_4_7,4,7.0,775.599692487,3_D,training,04,1_A,186.0,01000,ignore,1.0,13900.0,0.790520789835
186,3_4_7,4,7.0,778.427937168,3_D,training,04,1_A,187.0,00010,kill,1.0,14000.0,1.05458450158
187,3_4_7,4,7.0,781.037497138,3_D,training,04,1_A,188.0,11001,ignore,1.0,14100.0,0.851462097464
188,3_4_7,4,7.0,783.396970029,3_D,training,04,1_A,189.0,11110,ignore,1.0,14200.0,0.584770991412
189,3_4_7,4,7.0,786.10194431,3_D,training,04,1_A,190.0,11000,ignore,1.0,14300.0,0.944667563419
190,3_4_7,4,7.0,788.695836773,3_D,training,04,1_A,191.0,00000,ignore,1.0,14400.0,0.825736918034
191,3_4_7,4,7.0,791.21161044,3_D,training,04,1_A,192.0,01001,ignore,1.0,14500.0,0.735607863966
192,3_4_7,4,7.0,794.039863781,3_D,training,04,1_A,193.0,00110,ignore,1.0,14600.0,1.05756084669
193,3_4_7,4,7.0,796.543136157,3_D,training,04,1_A,194.0,10111,ignore,1.0,14700.0,0.733852525947
194,3_4_7,4,7.0,799.277642966,3_D,training,04,1_A,195.0,01010,kill,1.0,14800.0,0.968559468209
195,3_4_7,4,7.0,801.918418316,3_D,training,04,1_A,196.0,10110,ignore,1.0,14900.0,0.85608537492
196,3_4_7,4,7.0,804.481055307,3_D,training,04,1_A,197.0,01110,ignore,1.0,15000.0,0.780705265501
197,3_4_7,4,7.0,807.121807244,3_D,training,04,1_A,198.0,11011,kill,1.0,15100.0,0.876600667498
198,3_4_7,4,7.0,809.66882163,3_D,training,04,1_A,199.0,00001,ignore,1.0,15200.0,0.776428052308
199,3_4_7,4,7.0,812.731459262,3_D,training,04,1_A,200.0,00111,ignore,1.0,15300.0,1.28832701822
200,3_4_7,4,7.0,815.731635341,3_D,training,04,1_A,201.0,11111,ignore,1.0,15400.0,1.24371038623
201,3_4_7,4,7.0,818.278641709,3_D,training,04,1_A,202.0,10010,kill,1.0,15500.0,0.777402741189
202,3_4_7,4,7.0,820.763116605,3_D,training,04,1_A,203.0,01111,ignore,1.0,15600.0,0.713890166451
203,3_4_7,4,7.0,823.388275125,3_D,training,04,1_A,204.0,00000,ignore,1.0,15700.0,0.859589636417
204,3_4_7,4,7.0,825.966503609,3_D,training,04,1_A,205.0,00011,kill,1.0,15800.0,0.80093992209
205,3_4_7,4,7.0,828.951067347,3_D,training,04,1_A,206.0,11010,kill,1.0,15900.0,1.2239305203
206,3_4_7,4,7.0,831.654341776,3_D,training,04,1_A,207.0,10011,kill,1.0,16000.0,0.917607518864
207,3_4_7,4,7.0,834.560737967,3_D,training,04,1_A,208.0,00100,kill,1.0,16100.0,1.1273862879
208,3_4_7,4,7.0,837.342136644,3_D,training,04,1_A,209.0,10001,ignore,1.0,16200.0,1.00886745578
209,3_4_7,4,7.0,840.264128499,3_D,training,04,1_A,210.0,11100,kill,1.0,16300.0,1.14326900194
210,3_4_7,4,7.0,842.998671229,3_D,training,04,1_A,211.0,11101,kill,1.0,16400.0,0.952417927603
211,3_4_7,4,7.0,845.858193192,3_D,training,04,1_A,212.0,10101,kill,1.0,16500.0,1.06395164979
212,3_4_7,4,7.0,849.764656094,3_D,training,04,1_A,213.0,00010,kill,1.0,16600.0,2.13207563509
213,3_4_7,4,7.0,852.358548878,3_D,training,04,1_A,214.0,11000,ignore,1.0,16700.0,0.812978724905
214,3_4_7,4,7.0,854.921176246,3_D,training,04,1_A,215.0,00101,kill,1.0,16800.0,0.77815965654
215,3_4_7,4,7.0,857.521328014,3_D,training,04,1_A,216.0,11001,ignore,1.0,16900.0,0.842506762525
216,3_4_7,4,7.0,860.302761971,3_D,training,04,1_A,217.0,01100,kill,1.0,17000.0,0.999860483824
217,3_4_7,4,7.0,862.849702911,3_D,training,04,1_A,218.0,01000,ignore,1.0,17100.0,0.791400222841
218,3_4_7,4,7.0,865.412340863,3_D,training,04,1_A,219.0,10000,ignore,1.0,17200.0,0.791180524951
219,3_4_7,4,7.0,867.896863227,3_D,training,04,1_A,220.0,01011,kill,1.0,17300.0,0.701817045863
220,3_4_7,4,7.0,870.803254928,3_D,training,04,1_A,221.0,01001,ignore,1.0,17400.0,1.14520073972
221,3_4_7,4,7.0,873.365872996,3_D,training,04,1_A,222.0,10100,kill,1.0,17500.0,0.786213107593
222,3_4_7,4,7.0,876.194163541,3_D,training,04,1_A,223.0,01101,kill,1.0,17600.0,1.04992434054
223,3_4_7,4,7.0,879.700615603,3_D,training,04,1_A,224.0,11110,ignore,1.0,17700.0,1.75099184776
224,3_4_7,4,7.0,882.26637519,3_D,training,04,1_A,225.0,00111,ignore,1.0,17800.0,0.790987126667
225,3_4_7,4,7.0,884.750889536,3_D,training,04,1_A,226.0,01010,kill,1.0,17900.0,0.727387634954
226,3_4_7,4,7.0,887.532290779,3_D,training,04,1_A,227.0,11111,ignore,1.0,18000.0,1.00133999675
227,3_4_7,4,7.0,890.313680796,3_D,training,04,1_A,228.0,00000,ignore,1.0,18100.0,1.01611941045
228,3_4_7,4,7.0,892.876351142,3_D,training,04,1_A,229.0,11010,kill,1.0,18200.0,0.799523592346
229,3_4_7,4,7.0,895.735863163,3_D,training,04,1_A,230.0,10011,kill,1.0,18300.0,1.0938738607
230,3_4_7,4,7.0,898.450664835,3_D,training,04,1_A,231.0,11001,ignore,1.0,18400.0,0.961453123526
231,3_4_7,4,7.0,901.24767008,3_D,training,04,1_A,232.0,11110,ignore,1.0,18500.0,1.03508142292
232,3_4_7,4,7.0,903.81033786,3_D,training,04,1_A,233.0,01100,kill,1.0,18600.0,0.784641866783
233,3_4_7,4,7.0,908.513698564,3_D,training,04,1_A,234.0,00101,kill,1.0,18700.0,2.92730790226
234,3_4_7,4,7.0,912.170133724,3_D,training,04,1_A,235.0,00110,ignore,1.0,18800.0,1.87963281908
235,3_4_7,4,7.0,914.936020447,3_D,training,04,1_A,236.0,10111,ignore,1.0,18900.0,1.00325858474
236,3_4_7,4,7.0,917.483005967,3_D,training,04,1_A,237.0,11000,ignore,1.0,19000.0,0.794033069502
237,3_4_7,4,7.0,920.201908453,3_D,training,04,1_A,238.0,10100,kill,1.0,19100.0,0.945215685595
238,3_4_7,4,7.0,922.795799633,3_D,training,04,1_A,239.0,10110,ignore,1.0,19200.0,0.835943729116
239,3_4_7,4,7.0,925.811588053,3_D,training,04,1_A,240.0,00011,kill,1.0,19300.0,1.23316296323
240,3_4_7,4,7.0,929.017444333,3_D,training,04,1_A,241.0,10101,kill,1.0,19400.0,1.43061972765
241,3_4_7,4,7.0,931.830107142,3_D,training,04,1_A,242.0,11100,kill,1.0,19500.0,1.03520394058
242,3_4_7,4,7.0,934.486478798,3_D,training,04,1_A,243.0,01110,ignore,1.0,19600.0,0.888715161847
243,3_4_7,4,7.0,937.002213977,3_D,training,04,1_A,244.0,01000,ignore,1.0,19700.0,0.756698540501
244,3_4_7,4,7.0,939.564908057,3_D,training,04,1_A,245.0,00010,kill,1.0,19800.0,0.765195556778
245,3_4_7,4,7.0,942.096235693,3_D,training,04,1_A,246.0,00001,ignore,1.0,19900.0,0.773741323537
246,3_4_7,4,7.0,944.76824599,3_D,training,04,1_A,247.0,01111,ignore,1.0,20000.0,0.902180557667
247,3_4_7,4,7.0,947.409027434,3_D,training,04,1_A,248.0,10001,ignore,1.0,20100.0,0.87264802987
248,3_4_7,4,7.0,949.862272516,3_D,training,04,1_A,249.0,01001,ignore,1.0,20200.0,0.693140743278
249,3_4_7,4,7.0,952.081138118,3_D,training,04,1_A,250.0,10000,ignore,1.0,20300.0,0.457109840605
250,3_4_7,4,7.0,954.612547219,3_D,training,04,1_A,251.0,11011,kill,1.0,20400.0,0.76652464882
251,3_4_7,4,7.0,957.139426053,3_D,training,04,1_A,252.0,01011,kill,1.0,20500.0,0.76779601003
252,3_4_7,4,7.0,959.561433303,3_D,training,04,1_A,253.0,10010,kill,1.0,20600.0,0.631814563436
253,3_4_7,4,7.0,962.374075585,3_D,training,04,1_A,254.0,00100,kill,1.0,20700.0,1.04499605185
254,3_4_7,4,7.0,965.3117497,3_D,training,04,1_A,255.0,01101,kill,1.0,20800.0,1.16230574377
255,3_4_7,4,7.0,967.874356542,3_D,training,04,1_A,256.0,11101,kill,1.0,20900.0,0.794220694706
256,3_4_7,4,7.0,970.952639229,3_D,training,04,1_A,257.0,01011,kill,1.0,21000.0,1.31490885905
257,3_4_7,4,7.0,973.421510444,3_D,training,04,1_A,258.0,00001,ignore,1.0,21100.0,0.692467537632
258,3_4_7,4,7.0,975.65602944,3_D,training,04,1_A,259.0,11001,ignore,1.0,21200.0,0.472354949681
259,3_4_7,4,7.0,977.92177344,3_D,training,04,1_A,260.0,10000,ignore,1.0,21300.0,0.484498309448
260,3_4_7,4,7.0,980.98442807,3_D,training,04,1_A,261.0,11101,kill,1.0,21400.0,1.28761308027
261,3_4_7,4,7.0,983.672055198,3_D,training,04,1_A,262.0,01110,ignore,1.0,21500.0,0.931845866377
262,3_4_7,4,7.0,986.031570747,3_D,training,04,1_A,263.0,10111,ignore,1.0,21600.0,0.573049387445
263,3_4_7,4,7.0,988.594202926,3_D,training,04,1_A,264.0,10100,kill,1.0,21700.0,0.797841380048
264,3_4_7,4,7.0,992.875648429,3_D,training,04,1_A,265.0,10011,kill,1.0,21800.0,2.50885141944
265,3_4_7,4,7.0,995.547707156,3_D,training,04,1_A,266.0,11010,kill,1.0,21900.0,0.918867654633
266,3_4_7,4,7.0,998.094669905,3_D,training,04,1_A,267.0,00000,ignore,1.0,22000.0,0.777092598331
267,3_4_7,4,7.0,1000.71981335,3_D,training,04,1_A,268.0,01100,kill,1.0,22100.0,0.873924843438
268,3_4_7,4,7.0,1003.67308473,3_D,training,04,1_A,269.0,00110,ignore,1.0,22200.0,1.16559864628
269,3_4_7,4,7.0,1006.25138217,3_D,training,04,1_A,270.0,00010,kill,1.0,22300.0,0.797768254328
270,3_4_7,4,7.0,1008.9077224,3_D,training,04,1_A,271.0,11000,ignore,1.0,22400.0,0.900984246538
271,3_4_7,4,7.0,1011.62663611,3_D,training,04,1_A,272.0,01000,ignore,1.0,22500.0,0.920798750962
272,3_4_7,4,7.0,1014.48616865,3_D,training,04,1_A,273.0,10101,kill,1.0,22600.0,1.08101880806
273,3_4_7,4,7.0,1017.17382818,3_D,training,04,1_A,274.0,10001,ignore,1.0,22700.0,0.907986354996
274,3_4_7,4,7.0,1020.09589701,3_D,training,04,1_A,275.0,00111,ignore,1.0,22800.0,1.14258328795
275,3_4_7,4,7.0,1022.54915524,3_D,training,04,1_A,276.0,11110,ignore,1.0,22900.0,0.68024143034
276,3_4_7,4,7.0,1025.8774352,3_D,training,04,1_A,277.0,01010,kill,1.0,23000.0,1.58912421687
277,3_4_7,4,7.0,1028.78386442,3_D,training,04,1_A,278.0,11100,kill,1.0,23100.0,1.12385989625
278,3_4_7,4,7.0,1031.71213547,3_D,training,04,1_A,279.0,01101,kill,1.0,23200.0,1.15686942376
279,3_4_7,4,7.0,1034.49351298,3_D,training,04,1_A,280.0,10010,kill,1.0,23300.0,1.01453085039
280,3_4_7,4,7.0,1037.58745419,3_D,training,04,1_A,281.0,10110,ignore,1.0,23400.0,1.31617091918
281,3_4_7,4,7.0,1040.1188046,3_D,training,04,1_A,282.0,11011,kill,1.0,23500.0,0.782997179527
282,3_4_7,4,7.0,1043.27524361,3_D,training,04,1_A,283.0,00101,kill,1.0,23600.0,1.37425839936
283,3_4_7,4,7.0,1046.29101503,3_D,training,04,1_A,284.0,01001,ignore,1.0,23700.0,1.22933156035
284,3_4_7,4,7.0,1048.80678389,3_D,training,04,1_A,285.0,00011,kill,1.0,23800.0,0.763748437259
285,3_4_7,4,7.0,1051.79128572,3_D,training,04,1_A,286.0,11111,ignore,1.0,23900.0,1.20463655555
286,3_4_7,4,7.0,1054.40081939,3_D,training,04,1_A,287.0,00100,kill,1.0,24000.0,0.834297117499
287,3_4_7,4,7.0,1057.15097318,3_D,training,04,1_A,288.0,01111,ignore,1.0,24100.0,1.00902813993
288,3_4_7,4,7.0,1059.94799735,3_D,training,04,1_A,289.0,00101,kill,1.0,24200.0,1.00767467265
289,3_4_7,4,7.0,1062.57942351,3_D,training,04,1_A,290.0,01110,ignore,1.0,24300.0,0.894374387011
290,3_4_7,4,7.0,1065.06393273,3_D,training,04,1_A,291.0,10101,kill,1.0,24400.0,0.715300081656
291,3_4_7,4,7.0,1067.73591191,3_D,training,04,1_A,292.0,10111,ignore,1.0,24500.0,0.89297826306
292,3_4_7,4,7.0,1072.97691697,3_D,training,04,1_A,293.0,10100,kill,1.0,24600.0,3.47971306494
293,3_4_7,4,7.0,1075.91457986,3_D,training,04,1_A,294.0,11000,ignore,1.0,24700.0,1.16998939677
294,3_4_7,4,7.0,1080.42419268,3_D,training,04,1_A,295.0,00110,ignore,1.0,24800.0,2.76297195757
295,3_4_7,4,7.0,1083.03371352,3_D,training,04,1_A,296.0,10010,kill,1.0,24900.0,0.825856228419
296,3_4_7,4,7.0,1087.36207463,3_D,training,04,1_A,297.0,00100,kill,1.0,25000.0,2.53529406482
297,3_4_7,4,7.0,1089.92468756,3_D,training,04,1_A,298.0,01000,ignore,1.0,25100.0,0.81630337937
298,3_4_7,4,7.0,1092.83108055,3_D,training,04,1_A,299.0,00111,ignore,1.0,25200.0,1.12615309319
299,3_4_7,4,7.0,1095.64370968,3_D,training,04,1_A,300.0,10110,ignore,1.0,25300.0,1.04914625721
300,3_4_7,4,7.0,1098.21877869,3_D,training,04,1_A,301.0,11011,kill,1.0,25400.0,0.797733615831
301,3_4_7,4,7.0,1101.87516734,3_D,training,04,1_A,302.0,11110,ignore,1.0,25500.0,1.89255233781
302,3_4_7,4,7.0,1104.78155936,3_D,training,04,1_A,303.0,01101,kill,1.0,25600.0,1.13543973895
303,3_4_7,4,7.0,1108.35984975,3_D,training,04,1_A,304.0,11010,kill,1.0,25700.0,1.82506018439
304,3_4_7,4,7.0,1111.11001316,3_D,training,04,1_A,305.0,00010,kill,1.0,25800.0,0.999496138127
305,3_4_7,4,7.0,1113.90816821,3_D,training,04,1_A,306.0,11100,kill,1.0,25900.0,1.03120672192
306,3_4_7,4,7.0,1116.61143205,3_D,training,04,1_A,307.0,01010,kill,1.0,26000.0,0.940746357024
307,3_4_7,4,7.0,1119.37720107,3_D,training,04,1_A,308.0,01001,ignore,1.0,26100.0,1.00646713608
308,3_4_7,4,7.0,1122.18981865,3_D,training,04,1_A,309.0,01100,kill,1.0,26200.0,1.05356138295
309,3_4_7,4,7.0,1125.36185782,3_D,training,04,1_A,310.0,10000,ignore,1.0,26300.0,1.39398406244
310,3_4_7,4,7.0,1127.73698699,3_D,training,04,1_A,311.0,00001,ignore,1.0,26400.0,0.601470275999
311,3_4_7,4,7.0,1130.53402367,3_D,training,04,1_A,312.0,01011,kill,1.0,26500.0,1.01587950677
312,3_4_7,4,7.0,1133.25287836,3_D,training,04,1_A,313.0,10011,kill,1.0,26600.0,0.950236985065
313,3_4_7,4,7.0,1136.33118318,3_D,training,04,1_A,314.0,01111,ignore,1.0,26700.0,1.33619614114
314,3_4_7,4,7.0,1138.64382931,3_D,training,04,1_A,315.0,11111,ignore,1.0,26800.0,0.537435237231
315,3_4_7,4,7.0,1141.3002061,3_D,training,04,1_A,316.0,00011,kill,1.0,26900.0,0.899492545988
316,3_4_7,4,7.0,1144.26912382,3_D,training,04,1_A,317.0,11101,kill,1.0,27000.0,1.19881087315
317,3_4_7,4,7.0,1147.300497,3_D,training,04,1_A,318.0,10001,ignore,1.0,27100.0,1.27820006812
318,3_4_7,4,7.0,1149.64437487,3_D,training,04,1_A,319.0,11001,ignore,1.0,27200.0,0.577895570057
319,3_4_7,4,7.0,1152.06641034,3_D,training,04,1_A,320.0,00000,ignore,1.0,27300.0,0.63375014994
320,3_4_7,4,7.0,1154.75401855,3_D,training,04,1_A,321.0,10111,ignore,1.0,27400.0,0.927689567205
321,3_4_7,4,7.0,1157.06671792,3_D,training,04,1_A,322.0,01110,ignore,1.0,27500.0,0.546228284387
322,3_4_7,4,7.0,1159.91055891,3_D,training,04,1_A,323.0,10101,kill,1.0,27600.0,1.06771730366
323,3_4_7,4,7.0,1162.98883389,3_D,training,04,1_A,324.0,11010,kill,1.0,27700.0,1.29442788425
324,3_4_7,4,7.0,1165.33268643,3_D,training,04,1_A,325.0,10010,kill,1.0,27800.0,0.578036048413
325,3_4_7,4,7.0,1167.8484787,3_D,training,04,1_A,326.0,00000,ignore,1.0,27900.0,0.746843566765
326,3_4_7,4,7.0,1170.36422221,3_D,training,04,1_A,327.0,00001,ignore,1.0,28000.0,0.731437452812
327,3_4_7,4,7.0,1172.59872453,3_D,training,04,1_A,328.0,00010,kill,1.0,28100.0,0.469233636035
328,3_4_7,4,7.0,1175.30196561,3_D,training,04,1_A,329.0,11111,ignore,1.0,28200.0,0.954658525337
329,3_4_7,4,7.0,1178.08631689,3_D,training,04,1_A,330.0,01000,ignore,1.0,28300.0,1.01974073725
330,3_4_7,4,7.0,1180.71146162,3_D,training,04,1_A,331.0,11000,ignore,1.0,28400.0,0.866840949633
331,3_4_7,4,7.0,1183.83656915,3_D,training,04,1_A,332.0,00110,ignore,1.0,28500.0,1.37515001998
332,3_4_7,4,7.0,1186.85235757,3_D,training,04,1_A,333.0,00100,kill,1.0,28600.0,1.21475869474
333,3_4_7,4,7.0,1189.8368825,3_D,training,04,1_A,334.0,11001,ignore,1.0,28700.0,1.22092146105
334,3_4_7,4,7.0,1192.58705713,3_D,training,04,1_A,335.0,01011,kill,1.0,28800.0,0.962466620354
335,3_4_7,4,7.0,1195.7122458,3_D,training,04,1_A,336.0,11110,ignore,1.0,28900.0,1.39556203851
336,3_4_7,4,7.0,1199.11862467,3_D,training,04,1_A,337.0,01101,kill,1.0,29000.0,1.61809066178
337,3_4_7,4,7.0,1202.79071323,3_D,training,04,1_A,338.0,10011,kill,1.0,29100.0,1.8954244467
338,3_4_7,4,7.0,1206.69715079,3_D,training,04,1_A,339.0,01111,ignore,1.0,29200.0,2.14703914599
339,3_4_7,4,7.0,1210.68175815,3_D,training,04,1_A,340.0,00101,kill,1.0,29300.0,2.18579802291
340,3_4_7,4,7.0,1213.38502488,3_D,training,04,1_A,341.0,10100,kill,1.0,29400.0,0.953144053179
341,3_4_7,4,7.0,1217.32274165,3_D,training,04,1_A,342.0,01001,ignore,1.0,29500.0,2.16193241772
342,3_4_7,4,7.0,1219.99471025,3_D,training,04,1_A,343.0,10110,ignore,1.0,29600.0,0.8807932088
343,3_4_7,4,7.0,1222.93237378,3_D,training,04,1_A,344.0,11011,kill,1.0,29700.0,1.18915859878
344,3_4_7,4,7.0,1226.49509256,3_D,training,04,1_A,345.0,10001,ignore,1.0,29800.0,1.79614954595
345,3_4_7,4,7.0,1229.47961139,3_D,training,04,1_A,346.0,00111,ignore,1.0,29900.0,1.2193521446
346,3_4_7,4,7.0,1233.38606147,3_D,training,04,1_A,347.0,11101,kill,1.0,30000.0,2.16212998546
347,3_4_7,4,7.0,1236.18308435,3_D,training,04,1_A,348.0,11100,kill,1.0,30100.0,1.01771117778
348,3_4_7,4,7.0,1239.63639743,3_D,training,04,1_A,349.0,10000,ignore,1.0,30200.0,1.69642402398
349,3_4_7,4,7.0,1242.37089205,3_D,training,04,1_A,350.0,01010,kill,1.0,30300.0,1.00454277502
350,3_4_7,4,7.0,1244.98042347,3_D,training,04,1_A,351.0,00011,kill,1.0,30400.0,0.818755015365
351,3_4_7,4,7.0,1247.90241693,3_D,training,04,1_A,352.0,01100,kill,1.0,30500.0,1.15333020304
352,3_4_7,4,7.0,1250.91822684,3_D,training,04,1_A,353.0,01110,ignore,1.0,30600.0,1.25024359204
353,3_4_7,4,7.0,1253.65276059,3_D,training,04,1_A,354.0,11010,kill,1.0,30700.0,1.00827892202
354,3_4_7,4,7.0,1258.40296121,3_D,training,04,1_A,355.0,11011,kill,1.0,30800.0,3.00813106695
355,3_4_7,4,7.0,1261.63754788,3_D,training,04,1_A,356.0,01010,kill,1.0,30900.0,1.46945205102
356,3_4_7,4,7.0,1373.53396177,3_D,test,04,2,0.0,00011,kill,1.0,100.0,27.9405119057
357,3_4_7,4,7.0,1378.40919966,3_D,test,04,2,1.0,00110,ignore,0.0,0.0,3.12517744213
358,3_4_7,4,7.0,1387.55194652,3_D,test,04,2,2.0,11101,kill,1.0,100.0,7.36516611405
359,3_4_7,4,7.0,1392.44281184,3_D,test,04,2,3.0,00001,ignore,1.0,200.0,3.13678903679
360,3_4_7,4,7.0,1395.88046029,3_D,test,04,2,4.0,01111,ignore,1.0,300.0,1.68154229842
361,3_4_7,4,7.0,1402.6933614,3_D,test,04,2,5.0,00101,ignore,1.0,400.0,5.01976735758
362,3_4_7,4,7.0,1411.00627534,3_D,test,04,2,6.0,11000,ignore,0.0,300.0,6.57565433087
363,3_4_7,4,7.0,1422.88191126,3_D,test,04,2,7.0,11111,ignore,1.0,400.0,10.1154607017
364,3_4_7,4,7.0,1427.11647933,3_D,test,04,2,8.0,11001,ignore,0.0,300.0,2.45485064072
365,3_4_7,4,7.0,1442.42981534,3_D,test,04,2,9.0,10100,kill,0.0,200.0,13.5134073443
366,3_4_7,4,7.0,1450.30525145,3_D,test,04,2,10.0,10111,kill,1.0,300.0,6.10529750943
367,3_4_7,4,7.0,1454.86794457,3_D,test,04,2,11.0,00111,kill,1.0,400.0,2.80874096112
368,3_4_7,4,7.0,1462.30584768,3_D,test,04,2,12.0,10000,kill,0.0,300.0,5.65358486015
369,3_4_7,4,7.0,1479.15046387,3_D,test,04,2,13.0,10101,kill,0.0,200.0,15.0953678063
370,3_4_7,4,7.0,1492.90116866,3_D,test,04,2,14.0,10001,kill,0.0,100.0,11.9668188836
371,3_4_7,4,7.0,1497.07326107,3_D,test,04,2,15.0,00000,ignore,1.0,200.0,2.38200138682
372,3_4_7,4,7.0,1503.7611714,3_D,test,04,2,16.0,00100,kill,0.0,100.0,4.92439153307
373,3_4_7,4,7.0,1509.27703743,3_D,test,04,2,17.0,00010,kill,1.0,200.0,3.74702092871
374,3_4_7,4,7.0,1512.15218617,3_D,test,04,2,18.0,10010,kill,1.0,300.0,1.10649895219
375,3_4_7,4,7.0,1514.82418685,3_D,test,04,2,19.0,11100,ignore,0.0,200.0,0.933998584953
376,3_4_7,4,7.0,1521.54327664,3_D,test,04,2,20.0,01001,ignore,0.0,100.0,4.93564295148
377,3_4_7,4,7.0,1525.27784117,3_D,test,04,2,21.0,10011,kill,1.0,200.0,1.98301719288
378,3_4_7,4,7.0,1533.20013836,3_D,test,04,2,22.0,01101,kill,1.0,300.0,6.18257952903
379,3_4_7,4,7.0,1538.20040649,3_D,test,04,2,23.0,01011,kill,0.0,200.0,3.21764491561
380,3_4_7,4,7.0,1543.37434788,3_D,test,04,2,24.0,10110,kill,1.0,300.0,3.42303678288
381,3_4_7,4,7.0,1548.5152156,3_D,test,04,2,25.0,01000,ignore,0.0,200.0,3.37937431324
382,3_4_7,4,7.0,1553.96862329,3_D,test,04,2,26.0,11110,kill,0.0,100.0,3.7313046719
383,3_4_7,4,7.0,1570.78202826,3_D,test,04,2,27.0,01100,ignore,0.0,0.0,15.0599377533
384,3_4_7,4,7.0,1577.32921263,3_D,test,04,2,28.0,00101,ignore,1.0,100.0,4.77264860718
385,3_4_7,4,7.0,1590.32058733,3_D,test,04,2,29.0,01000,ignore,0.0,0.0,11.2592563371
386,3_4_7,4,7.0,1593.97697951,3_D,test,04,2,30.0,10001,ignore,1.0,100.0,1.87886115029
387,3_4_7,4,7.0,1597.21151358,3_D,test,04,2,31.0,11001,ignore,0.0,0.0,1.50008274753
388,3_4_7,4,7.0,1605.63383097,3_D,test,04,2,32.0,11110,kill,0.0,0.0,6.65465544636
389,3_4_7,4,7.0,1612.89981969,3_D,test,04,2,33.0,01110,ignore,1.0,100.0,5.49530487973
390,3_4_7,4,7.0,1626.57245444,3_D,test,04,2,34.0,11100,kill,1.0,200.0,11.9356573842
391,3_4_7,4,7.0,1631.35394452,3_D,test,04,2,35.0,11000,ignore,0.0,100.0,3.02502054255
392,3_4_7,4,7.0,1696.15420996,3_D,test,04,2,36.0,10111,kill,1.0,200.0,62.3184766245
393,3_4_7,4,7.0,1767.84553795,3_D,test,04,2,37.0,01100,ignore,0.0,100.0,69.2072472721
394,3_4_7,4,7.0,1775.5334656,3_D,test,04,3,0.0,11010,kill,0.0,0.0,5.92538546556
395,3_4_7,4,7.0,1785.73712907,3_D,test,04,3,1.0,00110,kill,1.0,100.0,8.42710552362
396,3_4_7,4,7.0,1790.72175214,3_D,test,04,3,2.0,11111,ignore,1.0,200.0,3.26040582209
397,3_4_7,4,7.0,1799.20657342,3_D,test,04,3,3.0,01111,kill,0.0,100.0,6.71164924799
398,3_4_7,4,7.0,1805.67564477,3_D,test,04,3,4.0,00100,kill,1.0,200.0,4.71010494824
399,3_4_7,4,7.0,1816.55120564,3_D,test,04,3,5.0,10100,kill,1.0,300.0,9.09317563836
400,3_4_7,4,7.0,1825.77043367,3_D,test,04,3,6.0,01010,ignore,1.0,400.0,7.46616331796
401,3_4_7,4,7.0,1832.84529612,3_D,test,04,3,7.0,01001,kill,1.0,500.0,5.33071203284
402,3_4_7,4,7.0,1837.95490805,3_D,test,04,3,8.0,01101,kill,0.0,400.0,3.32081023298
403,3_4_7,4,7.0,1846.5959929,3_D,test,04,3,9.0,00011,ignore,0.0,300.0,6.897920343
404,3_4_7,4,7.0,1851.73687538,3_D,test,04,3,10.0,11101,kill,0.0,200.0,3.38474777079
405,3_4_7,4,7.0,1858.45600269,3_D,test,04,3,11.0,00010,ignore,1.0,300.0,4.94226916808
406,3_4_7,4,7.0,1863.94064052,3_D,test,04,3,12.0,11011,kill,1.0,400.0,3.75808760846
407,3_4_7,4,7.0,1867.72211328,3_D,test,04,3,13.0,10011,kill,1.0,500.0,2.0455473813
408,3_4_7,4,7.0,1871.56606428,3_D,test,04,3,14.0,10000,ignore,1.0,600.0,2.05769523124
409,3_4_7,4,7.0,1879.83208955,3_D,test,04,3,15.0,00000,kill,0.0,500.0,6.50982129742
410,3_4_7,4,7.0,1887.19187997,3_D,test,04,3,16.0,00001,kill,1.0,600.0,5.57983692964
411,3_4_7,4,7.0,1891.52021509,3_D,test,04,3,17.0,10110,kill,1.0,700.0,2.60960422949
412,3_4_7,4,7.0,1897.72366303,3_D,test,04,3,18.0,00111,kill,0.0,600.0,4.43060818148
413,3_4_7,4,7.0,1903.98962064,3_D,test,04,3,19.0,01011,ignore,0.0,500.0,4.49826294341
414,3_4_7,4,7.0,1911.00558033,3_D,test,04,3,20.0,10010,kill,0.0,400.0,5.27584785745
415,3_4_7,4,7.0,2003.8385429,3_D,test,04,3,21.0,10101,kill,0.0,300.0,90.3414983973
416,3_4_7,4,7.0,2016.69857097,3_D,test,04,3,22.0,00100,ignore,0.0,200.0,11.0642194567
417,3_4_7,4,7.0,2024.26146647,3_D,test,04,3,23.0,00101,kill,0.0,100.0,5.82118869066
418,3_4_7,4,7.0,2031.01196343,3_D,test,04,3,24.0,00001,ignore,0.0,0.0,4.95890559021
419,3_4_7,4,7.0,2035.70104409,3_D,test,04,3,25.0,01101,kill,0.0,0.0,2.90815217078
420,3_4_7,4,7.0,2045.09216759,3_D,test,04,3,26.0,10010,ignore,1.0,100.0,7.66273359338
421,3_4_7,4,7.0,2051.06122355,3_D,test,04,3,27.0,01001,ignore,0.0,0.0,4.18979043066
422,3_4_7,4,7.0,2060.53045205,3_D,test,04,3,28.0,10100,ignore,0.0,0.0,7.72332723311
423,3_4_7,4,7.0,2065.29633781,3_D,test,04,3,29.0,01010,ignore,1.0,100.0,3.01693758463
424,3_4_7,4,7.0,2073.40609503,3_D,test,04,3,30.0,11100,kill,1.0,200.0,6.34163438551
425,3_4_7,4,7.0,2078.20323883,3_D,test,04,3,31.0,11101,ignore,1.0,300.0,3.05213158268
426,3_4_7,4,7.0,2087.2682261,3_D,test,04,3,32.0,11001,ignore,0.0,200.0,7.32804903785
427,3_4_7,4,7.0,2107.34744211,3_D,test,04,3,33.0,00011,kill,1.0,300.0,18.3087839385
428,3_4_7,4,7.0,2112.7980707,3_D,test,04,3,34.0,00010,kill,0.0,200.0,3.71460923604
429,3_4_7,4,7.0,2120.81411314,3_D,test,04,3,35.0,11000,kill,0.0,100.0,6.24335149289
430,3_4_7,4,7.0,2149.00312837,3_D,test,04,3,36.0,01111,ignore,1.0,200.0,25.7214224364
431,3_4_7,4,7.0,2157.05272717,3_D,test,04,3,37.0,00000,ignore,1.0,300.0,6.31214740093
432,3_4_7,4,7.0,2177.47575786,3_D,test,04,3,38.0,00111,kill,0.0,200.0,18.6372069439
433,3_4_7,4,7.0,2186.56994732,3_D,test,04,3,39.0,10000,ignore,1.0,300.0,7.31651666272
434,3_4_7,4,7.0,2190.05451298,3_D,test,04,3,40.0,10001,ignore,0.0,200.0,1.74693465319
435,3_4_7,4,7.0,2195.3204244,3_D,test,04,4,0.0,01000,ignore,1.0,300.0,3.4913772588
436,3_4_7,4,7.0,2200.69572099,3_D,test,04,4,1.0,10110,kill,0.0,200.0,3.63821370543
437,3_4_7,4,7.0,2206.03971208,3_D,test,04,4,2.0,11111,kill,1.0,300.0,3.59450152313
438,3_4_7,4,7.0,2210.13370685,3_D,test,04,4,3.0,00110,kill,1.0,400.0,2.30249673019
439,3_4_7,4,7.0,2218.29038641,3_D,test,04,4,4.0,11110,kill,1.0,500.0,6.43449603229
440,3_4_7,4,7.0,2222.44683985,3_D,test,04,4,5.0,11010,ignore,0.0,400.0,2.43769303747
441,3_4_7,4,7.0,2230.82228237,3_D,test,04,4,6.0,11011,ignore,0.0,300.0,6.61014016404
442,3_4_7,4,7.0,2235.57248427,3_D,test,04,4,7.0,01011,kill,0.0,200.0,2.98859495343
443,3_4_7,4,7.0,2242.63535795,3_D,test,04,4,8.0,01100,kill,0.0,100.0,5.27395973852
444,3_4_7,4,7.0,2254.54222497,3_D,test,04,4,9.0,10101,ignore,1.0,200.0,10.155266431
445,3_4_7,4,7.0,2258.87059826,3_D,test,04,4,10.0,10011,ignore,1.0,300.0,2.55624458373
446,3_4_7,4,7.0,2263.63645965,3_D,test,04,4,11.0,10111,kill,0.0,200.0,2.97137801571
447,3_4_7,4,7.0,2270.12220046,3_D,test,04,4,12.0,01110,kill,0.0,100.0,4.75542878293
448,3_4_7,4,7.0,2274.606786,3_D,test,04,4,13.0,00110,ignore,0.0,0.0,2.7047507343
449,3_4_7,4,7.0,2279.99771161,3_D,test,04,4,14.0,11011,ignore,0.0,0.0,3.66819204354
450,3_4_7,4,7.0,2286.49804741,3_D,test,04,4,15.0,00011,kill,1.0,100.0,4.71800637477
451,3_4_7,4,7.0,2315.43704517,3_D,test,04,4,16.0,10100,kill,0.0,0.0,26.4223404849
452,3_4_7,4,7.0,2322.51554082,3_D,test,04,4,17.0,10101,kill,0.0,0.0,5.33775679797
453,3_4_7,4,7.0,2329.01588688,3_D,test,04,4,18.0,11000,ignore,0.0,0.0,4.77721607816
454,3_4_7,4,7.0,2338.98855486,3_D,test,04,4,19.0,01110,ignore,1.0,100.0,8.20627546972
455,3_4_7,4,7.0,2343.42628927,3_D,test,04,4,20.0,00100,kill,1.0,200.0,2.6961924592
456,3_4_7,4,7.0,2349.64535661,3_D,test,04,4,21.0,00101,kill,1.0,300.0,4.4416864074
457,3_4_7,4,7.0,2354.3799792,3_D,test,04,4,22.0,10110,ignore,1.0,400.0,2.99001224535
458,3_4_7,4,7.0,2357.61451744,3_D,test,04,4,23.0,10111,ignore,1.0,500.0,1.45956949477
459,3_4_7,4,7.0,2361.05222235,3_D,test,04,4,24.0,11010,kill,1.0,600.0,1.68000248884
460,3_4_7,4,7.0,2364.39613357,3_D,test,04,4,25.0,01111,ignore,1.0,700.0,1.61265434178
461,3_4_7,4,7.0,2367.05254564,3_D,test,04,4,26.0,00010,kill,1.0,800.0,0.874372898837
462,3_4_7,4,7.0,2369.88077044,3_D,test,04,5,0.0,01100,kill,1.0,900.0,1.09563368889
463,3_4_7,4,7.0,2372.88093946,3_D,test,04,5,1.0,01000,ignore,1.0,1000.0,1.24301537115
464,3_4_7,4,7.0,2376.88113286,3_D,test,04,5,2.0,10011,kill,1.0,1100.0,2.19981346527
465,3_4_7,4,7.0,2379.35004962,3_D,test,04,5,3.0,01010,kill,0.0,1000.0,0.743416921163
466,3_4_7,4,7.0,2384.80344608,3_D,test,04,5,4.0,11110,ignore,0.0,900.0,3.67244680585
467,3_4_7,4,7.0,2391.49124127,3_D,test,04,5,5.0,10010,kill,0.0,800.0,4.96404106843
468,3_4_7,4,7.0,2397.24161059,3_D,test,04,5,6.0,01011,ignore,0.0,700.0,3.98620040681
469,3_4_7,4,7.0,2414.7581386,3_D,test,04,5,7.0,01001,kill,1.0,800.0,15.7261473842
470,3_4_7,4,7.0,2417.94578401,3_D,test,04,5,8.0,10001,kill,1.0,900.0,1.43714427384
471,3_4_7,4,7.0,2425.02428961,3_D,test,04,5,9.0,11111,kill,0.0,800.0,5.35595002819
472,3_4_7,4,7.0,2430.43081601,3_D,test,04,5,10.0,11101,kill,0.0,700.0,3.64125547882
473,3_4_7,4,7.0,2436.77491294,3_D,test,04,5,11.0,00001,kill,1.0,800.0,4.57282038848
474,3_4_7,4,7.0,2443.25960144,3_D,test,04,5,12.0,11001,ignore,0.0,700.0,4.71338149368
475,3_4_7,4,7.0,2450.29117988,3_D,test,04,5,13.0,00111,ignore,1.0,800.0,5.29115230099
476,3_4_7,4,7.0,2454.76018324,3_D,test,04,5,14.0,00000,ignore,1.0,900.0,2.67368224566
477,3_4_7,4,7.0,2458.52691796,3_D,test,04,5,15.0,11100,kill,1.0,1000.0,1.99582413649
478,3_4_7,4,7.0,2461.58956618,3_D,test,04,5,16.0,01101,kill,0.0,900.0,1.31545730195
479,3_4_7,4,7.0,2469.13686377,3_D,test,04,5,17.0,10000,ignore,1.0,1000.0,5.75680117309
480,3_4_7,4,7.0,2472.69953989,3_D,test,04,5,18.0,10000,ignore,1.0,1100.0,1.84326592297
481,3_4_7,4,7.0,2478.69986478,3_D,test,04,5,19.0,00111,ignore,1.0,1200.0,4.20763984172
482,3_4_7,4,7.0,2483.77822252,3_D,test,04,5,20.0,11001,ignore,0.0,1100.0,3.29927663268
483,3_4_7,4,7.0,2492.73181559,3_D,test,04,5,21.0,11010,kill,0.0,1000.0,7.24633008309
484,3_4_7,4,7.0,2497.07580122,3_D,test,04,5,22.0,10010,ignore,1.0,1100.0,2.55835464563
485,3_4_7,4,7.0,2500.23220142,3_D,test,04,5,23.0,01001,kill,1.0,1200.0,1.41553241618
486,3_4_7,4,7.0,2503.90427619,3_D,test,04,5,24.0,11110,kill,1.0,1300.0,1.91808764695
487,3_4_7,4,7.0,2506.88884217,3_D,test,04,5,25.0,00010,ignore,1.0,1400.0,1.20694803391
488,3_4_7,4,7.0,2510.46711139,3_D,test,04,5,26.0,10100,ignore,0.0,1300.0,1.84654214768
489,3_4_7,4,7.0,2518.98318173,3_D,test,04,5,27.0,10011,kill,1.0,1400.0,6.77296227804
490,3_4_7,4,7.0,2525.35850847,3_D,test,04,5,28.0,00101,ignore,1.0,1500.0,4.59908086101
491,3_4_7,4,7.0,2530.31193476,3_D,test,04,5,29.0,01110,kill,1.0,1600.0,3.21297577422
492,3_4_7,4,7.0,2533.45267066,3_D,test,04,5,30.0,10110,kill,1.0,1700.0,1.3612214946
493,3_4_7,4,7.0,2536.71848843,3_D,test,04,6,0.0,00011,ignore,0.0,1600.0,1.51457639361
494,3_4_7,4,7.0,2544.20325711,3_D,test,04,6,1.0,11101,ignore,0.0,1500.0,5.74185241562
495,3_4_7,4,7.0,2552.1880569,3_D,test,04,6,2.0,00000,kill,0.0,1400.0,6.19409298128
496,3_4_7,4,7.0,2559.68844017,3_D,test,04,6,3.0,01111,ignore,0.0,1300.0,5.77502679673
497,3_4_7,4,7.0,2564.73555526,3_D,test,04,6,4.0,01010,ignore,0.0,1200.0,3.26734378518
498,3_4_7,4,7.0,2572.03282543,3_D,test,04,6,5.0,10001,ignore,0.0,1100.0,5.55836362598
499,3_4_7,4,7.0,2577.34556586,3_D,test,04,6,6.0,01101,ignore,1.0,1200.0,3.53972234036
500,3_4_7,4,7.0,2582.65836369,3_D,test,04,6,7.0,01000,ignore,1.0,1300.0,3.54661347733
501,3_4_7,4,7.0,2591.12755403,3_D,test,04,6,8.0,01011,ignore,0.0,1200.0,6.73965960619
