,unique_id,pair_id,sbj_id,wall_time,condition,block,rule_id,rule_num,trial,stimulus,choice,correct,points,reaction_time
0,1_32_1,32,1.0,36.1563893625,1_I,training,02,1_B,1.0,01000,ignore,0.0,0.0,2.17847634663
1,1_32_1,32,1.0,40.7660223107,1_I,training,02,1_B,2.0,01001,kill,1.0,100.0,2.37890953906
2,1_32_1,32,1.0,44.7662230604,1_I,training,02,1_B,3.0,01111,kill,1.0,200.0,1.74643628208
3,1_32_1,32,1.0,48.6414786674,1_I,training,02,1_B,4.0,10011,ignore,1.0,300.0,1.63791115204
4,1_32_1,32,1.0,53.4697888105,1_I,training,02,1_B,5.0,10101,kill,0.0,200.0,2.59872759988
5,1_32_1,32,1.0,57.0950124986,1_I,training,02,1_B,6.0,11011,kill,0.0,100.0,1.42076318554
6,1_32_1,32,1.0,60.907708091,1_I,training,02,1_B,7.0,01110,ignore,0.0,0.0,1.56335008163
7,1_32_1,32,1.0,64.3922214208,1_I,training,02,1_B,8.0,00101,ignore,0.0,0.0,1.22939451998
8,1_32_1,32,1.0,68.9862644502,1_I,training,02,1_B,9.0,01100,kill,1.0,100.0,2.36964959938
9,1_32_1,32,1.0,75.7366003673,1_I,training,02,1_B,10.0,10111,kill,0.0,0.0,4.51193434458
10,1_32_1,32,1.0,80.5091837862,1_I,training,02,1_B,11.0,00111,kill,1.0,100.0,2.55005462116
11,1_32_1,32,1.0,84.5406197952,1_I,training,02,1_B,12.0,11111,ignore,1.0,200.0,1.71895902448
12,1_32_1,32,1.0,89.0096076595,1_I,training,02,1_B,13.0,00010,ignore,1.0,300.0,2.23225017437
13,1_32_1,32,1.0,93.1661210024,1_I,training,02,1_B,14.0,00011,kill,0.0,200.0,1.92463018331
14,1_32_1,32,1.0,96.8537889353,1_I,training,02,1_B,15.0,11100,kill,0.0,100.0,1.4620121197
15,1_32_1,32,1.0,100.65091103,1_I,training,02,1_B,16.0,01011,ignore,0.0,0.0,1.58471329944
16,1_32_1,32,1.0,104.197953585,1_I,training,02,1_B,17.0,11110,ignore,1.0,100.0,1.34206067732
17,1_32_1,32,1.0,110.026369645,1_I,training,02,1_B,18.0,00000,kill,0.0,0.0,3.65210772829
18,1_32_1,32,1.0,114.729767487,1_I,training,02,1_B,19.0,11101,ignore,1.0,100.0,2.44611881838
19,1_32_1,32,1.0,118.229968032,1_I,training,02,1_B,20.0,11001,kill,0.0,0.0,1.26292752196
20,1_32_1,32,1.0,122.417681329,1_I,training,02,1_B,21.0,10010,kill,0.0,0.0,1.97068192091
21,1_32_1,32,1.0,126.058452651,1_I,training,02,1_B,22.0,00110,ignore,0.0,0.0,1.43331106886
22,1_32_1,32,1.0,129.808711799,1_I,training,02,1_B,23.0,10000,kill,0.0,0.0,1.52364843922
23,1_32_1,32,1.0,135.621528087,1_I,training,02,1_B,24.0,11010,kill,0.0,0.0,3.63200730417
24,1_32_1,32,1.0,140.449857936,1_I,training,02,1_B,25.0,01010,ignore,0.0,0.0,2.64762308646
25,1_32_1,32,1.0,145.568360203,1_I,training,02,1_B,26.0,00001,ignore,1.0,100.0,2.91282166652
26,1_32_1,32,1.0,153.068777508,1_I,training,02,1_B,27.0,10110,kill,0.0,0.0,5.29383476698
27,1_32_1,32,1.0,156.490805951,1_I,training,02,1_B,28.0,10001,kill,0.0,0.0,1.19965975182
28,1_32_1,32,1.0,160.084781653,1_I,training,02,1_B,29.0,00100,kill,1.0,100.0,1.36905432928
29,1_32_1,32,1.0,164.663121046,1_I,training,02,1_B,30.0,01101,kill,1.0,200.0,2.34634990634
30,1_32_1,32,1.0,168.772727926,1_I,training,02,1_B,31.0,11000,ignore,1.0,300.0,1.95660645133
31,1_32_1,32,1.0,173.476122074,1_I,training,02,1_B,32.0,10100,ignore,1.0,400.0,2.51868963397
32,1_32_1,32,1.0,177.288847635,1_I,training,02,1_B,33.0,10111,kill,0.0,300.0,1.58258469565
33,1_32_1,32,1.0,184.023590349,1_I,training,02,1_B,34.0,11100,ignore,1.0,400.0,4.51657334611
34,1_32_1,32,1.0,188.289475337,1_I,training,02,1_B,35.0,10010,kill,0.0,300.0,2.05435390819
35,1_32_1,32,1.0,191.805233779,1_I,training,02,1_B,36.0,10100,kill,0.0,200.0,1.28084392059
36,1_32_1,32,1.0,196.352299734,1_I,training,02,1_B,37.0,00111,kill,1.0,300.0,2.31251885877
37,1_32_1,32,1.0,201.258904728,1_I,training,02,1_B,38.0,00001,ignore,1.0,400.0,2.70280339378
38,1_32_1,32,1.0,205.477845483,1_I,training,02,1_B,39.0,10001,kill,0.0,300.0,1.99526739739
39,1_32_1,32,1.0,209.993728727,1_I,training,02,1_B,40.0,10000,ignore,1.0,400.0,2.29278503893
40,1_32_1,32,1.0,216.025243147,1_I,training,02,1_B,41.0,01111,kill,1.0,500.0,3.7640768038
41,1_32_1,32,1.0,221.681835517,1_I,training,02,1_B,42.0,01100,ignore,0.0,400.0,3.31347539625
42,1_32_1,32,1.0,228.960894038,1_I,training,02,1_B,43.0,10011,kill,0.0,300.0,5.04477621744
43,1_32_1,32,1.0,233.758090029,1_I,training,02,1_B,44.0,01010,kill,1.0,400.0,2.57572225764
44,1_32_1,32,1.0,237.164466562,1_I,training,02,1_B,45.0,11011,kill,0.0,300.0,1.17270674244
45,1_32_1,32,1.0,242.117854039,1_I,training,02,1_B,46.0,11010,kill,0.0,200.0,2.74514351962
46,1_32_1,32,1.0,245.836852064,1_I,training,02,1_B,47.0,00000,kill,0.0,100.0,1.47611920017
47,1_32_1,32,1.0,249.727701284,1_I,training,02,1_B,48.0,11000,ignore,1.0,200.0,1.69434152658
48,1_32_1,32,1.0,253.915453992,1_I,training,02,1_B,49.0,00101,kill,1.0,300.0,1.9499271102
49,1_32_1,32,1.0,257.68119632,1_I,training,02,1_B,50.0,00011,kill,0.0,200.0,1.54994172511
50,1_32_1,32,1.0,261.790804842,1_I,training,02,1_B,51.0,11101,ignore,1.0,300.0,1.90441439995
51,1_32_1,32,1.0,266.103503103,1_I,training,02,1_B,52.0,00110,kill,1.0,400.0,2.10468789578
52,1_32_1,32,1.0,270.806907514,1_I,training,02,1_B,53.0,11111,ignore,1.0,500.0,2.46287710874
53,1_32_1,32,1.0,275.963512406,1_I,training,02,1_B,54.0,01011,kill,1.0,600.0,2.93777251568
54,1_32_1,32,1.0,280.901203636,1_I,training,02,1_B,55.0,01101,kill,1.0,700.0,2.7074543007
55,1_32_1,32,1.0,284.9639254,1_I,training,02,1_B,56.0,01000,ignore,0.0,600.0,1.8635337122
56,1_32_1,32,1.0,288.901642083,1_I,training,02,1_B,57.0,10101,kill,0.0,500.0,1.73570664104
57,1_32_1,32,1.0,295.745749053,1_I,training,02,1_B,58.0,01110,ignore,0.0,400.0,4.65239140529
58,1_32_1,32,1.0,301.324200111,1_I,training,02,1_B,59.0,00010,ignore,1.0,500.0,3.36741672069
59,1_32_1,32,1.0,305.605636838,1_I,training,02,1_B,60.0,00100,kill,1.0,600.0,2.04612522266
60,1_32_1,32,1.0,310.49653286,1_I,training,02,1_B,61.0,11001,ignore,1.0,700.0,2.67242737602
61,1_32_1,32,1.0,315.356218253,1_I,training,02,1_B,62.0,01001,kill,1.0,800.0,2.59524054865
62,1_32_1,32,1.0,322.997200588,1_I,training,02,1_B,63.0,11110,kill,0.0,700.0,5.44723546299
63,1_32_1,32,1.0,327.559943905,1_I,training,02,1_B,64.0,10110,ignore,1.0,800.0,2.36428724205
64,1_32_1,32,1.0,331.84146356,1_I,training,02,1_B,65.0,00000,kill,0.0,700.0,2.06916997589
65,1_32_1,32,1.0,338.326177639,1_I,training,02,1_B,66.0,10011,ignore,1.0,800.0,4.26657098555
66,1_32_1,32,1.0,343.826474248,1_I,training,02,1_B,67.0,00100,ignore,0.0,700.0,3.25935508026
67,1_32_1,32,1.0,348.65491494,1_I,training,02,1_B,68.0,01000,ignore,0.0,600.0,2.61719616285
68,1_32_1,32,1.0,352.170649982,1_I,training,02,1_B,69.0,10000,kill,0.0,500.0,1.27247688607
69,1_32_1,32,1.0,359.952371002,1_I,training,02,1_B,70.0,00101,ignore,0.0,400.0,5.56513671302
70,1_32_1,32,1.0,363.608770422,1_I,training,02,1_B,71.0,11111,ignore,1.0,500.0,1.46651728808
71,1_32_1,32,1.0,367.405819443,1_I,training,02,1_B,72.0,01001,kill,1.0,600.0,1.58716170697
72,1_32_1,32,1.0,371.312323856,1_I,training,02,1_B,73.0,01101,ignore,0.0,500.0,1.68012278164
73,1_32_1,32,1.0,376.375108842,1_I,training,02,1_B,74.0,11001,ignore,1.0,600.0,2.85978802637
74,1_32_1,32,1.0,380.609762266,1_I,training,02,1_B,75.0,01011,ignore,0.0,500.0,2.04578037653
75,1_32_1,32,1.0,385.469328605,1_I,training,02,1_B,76.0,10100,kill,0.0,400.0,2.64299968512
76,1_32_1,32,1.0,390.40713889,1_I,training,02,1_B,77.0,01111,kill,1.0,500.0,2.72544664758
77,1_32_1,32,1.0,393.985448314,1_I,training,02,1_B,78.0,00010,kill,0.0,400.0,1.34889684133
78,1_32_1,32,1.0,398.751353213,1_I,training,02,1_B,79.0,11000,kill,0.0,300.0,2.56954212234
79,1_32_1,32,1.0,402.876503211,1_I,training,02,1_B,80.0,11011,ignore,1.0,400.0,1.90537791647
80,1_32_1,32,1.0,406.595458541,1_I,training,02,1_B,81.0,10110,ignore,1.0,500.0,1.48368118318
81,1_32_1,32,1.0,415.064689439,1_I,training,02,1_B,82.0,01100,kill,1.0,600.0,6.25381208924
82,1_32_1,32,1.0,419.549281181,1_I,training,02,1_B,83.0,11110,ignore,1.0,700.0,2.28548292211
83,1_32_1,32,1.0,424.283929472,1_I,training,02,1_B,84.0,11101,ignore,1.0,800.0,2.51854594808
84,1_32_1,32,1.0,430.299865469,1_I,training,02,1_B,85.0,00001,kill,0.0,700.0,3.81094755096
85,1_32_1,32,1.0,434.487573429,1_I,training,02,1_B,86.0,10010,ignore,1.0,800.0,2.00291312874
86,1_32_1,32,1.0,439.065975633,1_I,training,02,1_B,87.0,01010,kill,1.0,900.0,2.39801976215
87,1_32_1,32,1.0,443.847449924,1_I,training,02,1_B,88.0,01110,ignore,0.0,800.0,2.57737177163
88,1_32_1,32,1.0,450.019702619,1_I,training,02,1_B,89.0,10001,ignore,1.0,900.0,3.94804564613
89,1_32_1,32,1.0,453.555387831,1_I,training,02,1_B,90.0,00011,ignore,1.0,1000.0,1.32966263785
90,1_32_1,32,1.0,460.245498013,1_I,training,02,1_B,91.0,00110,kill,1.0,1100.0,4.4551299762
91,1_32_1,32,1.0,466.089574193,1_I,training,02,1_B,92.0,10101,ignore,1.0,1200.0,3.59284017326
92,1_32_1,32,1.0,471.386666524,1_I,training,02,1_B,93.0,10111,kill,0.0,1100.0,3.08186934519
93,1_32_1,32,1.0,476.735984571,1_I,training,02,1_B,94.0,11010,kill,0.0,1000.0,3.18701210944
94,1_32_1,32,1.0,481.017449214,1_I,training,02,1_B,95.0,11100,ignore,1.0,1100.0,1.96332930876
95,1_32_1,32,1.0,485.142616454,1_I,training,02,1_B,96.0,00111,ignore,0.0,1000.0,1.86573292734
96,1_32_1,32,1.0,489.361647938,1_I,training,02,1_B,97.0,00100,kill,1.0,1100.0,1.98061841585
97,1_32_1,32,1.0,493.002407354,1_I,training,02,1_B,98.0,00001,ignore,1.0,1200.0,1.45563205575
98,1_32_1,32,1.0,497.299584666,1_I,training,02,1_B,99.0,01010,kill,1.0,1300.0,2.09811241902
99,1_32_1,32,1.0,500.940392525,1_I,training,02,1_B,100.0,00010,kill,0.0,1200.0,1.42987204977
100,1_32_1,32,1.0,506.581365008,1_I,training,02,1_B,101.0,10100,kill,0.0,1100.0,3.40245924555
101,1_32_1,32,1.0,509.894016468,1_I,training,02,1_B,102.0,11100,ignore,1.0,1200.0,1.1203344679
102,1_32_1,32,1.0,513.784836541,1_I,training,02,1_B,103.0,10010,ignore,1.0,1300.0,1.68685179704
103,1_32_1,32,1.0,522.441580808,1_I,training,02,1_B,104.0,11101,ignore,1.0,1400.0,6.45057061771
104,1_32_1,32,1.0,526.066692421,1_I,training,02,1_B,105.0,00110,ignore,0.0,1300.0,1.43400486644
105,1_32_1,32,1.0,530.551327678,1_I,training,02,1_B,106.0,11001,kill,0.0,1200.0,2.27681825254
106,1_32_1,32,1.0,534.817208561,1_I,training,02,1_B,107.0,11011,ignore,1.0,1300.0,2.04669380825
107,1_32_1,32,1.0,538.395539744,1_I,training,02,1_B,108.0,01111,ignore,0.0,1200.0,1.37938575515
108,1_32_1,32,1.0,542.411360792,1_I,training,02,1_B,109.0,11010,kill,0.0,1100.0,1.81423426301
109,1_32_1,32,1.0,545.692755645,1_I,training,02,1_B,110.0,00000,ignore,1.0,1200.0,1.07173169
110,1_32_1,32,1.0,550.052372275,1_I,training,02,1_B,111.0,00011,kill,0.0,1100.0,2.16741704911
111,1_32_1,32,1.0,553.490096963,1_I,training,02,1_B,112.0,10101,kill,0.0,1000.0,1.22594154283
112,1_32_1,32,1.0,556.834006673,1_I,training,02,1_B,113.0,11111,ignore,1.0,1100.0,1.15485972357
113,1_32_1,32,1.0,563.646924363,1_I,training,02,1_B,114.0,01101,ignore,0.0,1000.0,4.51260597347
114,1_32_1,32,1.0,567.225650066,1_I,training,02,1_B,115.0,01100,kill,1.0,1100.0,1.37632114042
115,1_32_1,32,1.0,572.679057864,1_I,training,02,1_B,116.0,00101,kill,1.0,1200.0,3.20129038138
116,1_32_1,32,1.0,577.132418451,1_I,training,02,1_B,117.0,10000,ignore,1.0,1300.0,2.24083479038
117,1_32_1,32,1.0,582.10143731,1_I,training,02,1_B,118.0,01110,kill,1.0,1400.0,2.75689866738
118,1_32_1,32,1.0,586.36727714,1_I,training,02,1_B,119.0,00111,ignore,0.0,1300.0,2.03296400586
119,1_32_1,32,1.0,589.695560804,1_I,training,02,1_B,120.0,11000,kill,0.0,1200.0,1.12596490205
120,1_32_1,32,1.0,593.633275435,1_I,training,02,1_B,121.0,01011,ignore,0.0,1100.0,1.70670754462
121,1_32_1,32,1.0,600.477369678,1_I,training,02,1_B,122.0,10011,ignore,1.0,1200.0,4.62781167624
122,1_32_1,32,1.0,603.586929757,1_I,training,02,1_B,123.0,10110,ignore,1.0,1300.0,0.906843512521
123,1_32_1,32,1.0,606.962184337,1_I,training,02,1_B,124.0,10001,kill,0.0,1200.0,1.16325877952
124,1_32_1,32,1.0,610.337303032,1_I,training,02,1_B,125.0,10111,ignore,1.0,1300.0,1.16055379004
125,1_32_1,32,1.0,617.447072893,1_I,training,02,1_B,126.0,01000,kill,1.0,1400.0,4.91745902592
126,1_32_1,32,1.0,622.931703224,1_I,training,02,1_B,127.0,01001,ignore,0.0,1300.0,3.2738180912
127,1_32_1,32,1.0,629.71333598,1_I,training,02,1_B,128.0,11110,ignore,1.0,1400.0,4.58602740952
128,1_32_1,32,1.0,633.244771373,1_I,training,02,1_B,129.0,01111,ignore,0.0,1300.0,1.33571386639
129,1_32_1,32,1.0,636.744986697,1_I,training,02,1_B,130.0,00101,kill,1.0,1400.0,1.27244773836
130,1_32_1,32,1.0,641.604642943,1_I,training,02,1_B,131.0,01010,ignore,0.0,1300.0,2.70005817226
131,1_32_1,32,1.0,644.745440334,1_I,training,02,1_B,132.0,00010,kill,0.0,1200.0,0.934656995101
132,1_32_1,32,1.0,652.339560543,1_I,training,02,1_B,133.0,11101,ignore,1.0,1300.0,5.40188162828
133,1_32_1,32,1.0,656.386689514,1_I,training,02,1_B,134.0,10011,ignore,1.0,1400.0,1.86696575226
134,1_32_1,32,1.0,660.402508509,1_I,training,02,1_B,135.0,11001,kill,0.0,1300.0,1.78966931309
135,1_32_1,32,1.0,664.027675134,1_I,training,02,1_B,136.0,00111,ignore,0.0,1200.0,1.40706047821
136,1_32_1,32,1.0,667.60601699,1_I,training,02,1_B,137.0,10101,ignore,1.0,1300.0,1.33229619491
137,1_32_1,32,1.0,673.590669285,1_I,training,02,1_B,138.0,10001,kill,0.0,1200.0,3.73232714896
138,1_32_1,32,1.0,678.29781035,1_I,training,02,1_B,139.0,01000,kill,1.0,1300.0,2.50896743626
139,1_32_1,32,1.0,681.251101352,1_I,training,02,1_B,140.0,00000,kill,0.0,1200.0,0.703865027224
140,1_32_1,32,1.0,686.34510846,1_I,training,02,1_B,141.0,11000,ignore,1.0,1300.0,2.92209925903
141,1_32_1,32,1.0,690.126618468,1_I,training,02,1_B,142.0,11010,kill,0.0,1200.0,1.6126228463
142,1_32_1,32,1.0,693.657966418,1_I,training,02,1_B,143.0,10100,ignore,1.0,1300.0,1.3112720758
143,1_32_1,32,1.0,697.408154133,1_I,training,02,1_B,144.0,01011,ignore,0.0,1200.0,1.54350788158
144,1_32_1,32,1.0,704.205423198,1_I,training,02,1_B,145.0,00100,kill,1.0,1300.0,4.56096407483
145,1_32_1,32,1.0,709.033797384,1_I,training,02,1_B,146.0,11110,ignore,1.0,1400.0,2.65567401202
146,1_32_1,32,1.0,713.65905843,1_I,training,02,1_B,147.0,00011,ignore,1.0,1500.0,2.38969378074
147,1_32_1,32,1.0,717.674877015,1_I,training,02,1_B,148.0,11111,kill,0.0,1400.0,1.80815758154
148,1_32_1,32,1.0,729.003660295,1_I,training,02,1_B,149.0,10110,kill,0.0,1300.0,9.14847842803
149,1_32_1,32,1.0,734.082047516,1_I,training,02,1_B,150.0,01101,ignore,0.0,1200.0,2.86411995062
150,1_32_1,32,1.0,738.597924191,1_I,training,02,1_B,151.0,00001,ignore,1.0,1300.0,2.28401157862
151,1_32_1,32,1.0,742.926252192,1_I,training,02,1_B,152.0,10000,kill,0.0,1200.0,2.13179239113
152,1_32_1,32,1.0,749.28595257,1_I,training,02,1_B,153.0,01100,ignore,0.0,1100.0,4.06764280017
153,1_32_1,32,1.0,752.891551639,1_I,training,02,1_B,154.0,11011,kill,0.0,1000.0,1.44658477119
154,1_32_1,32,1.0,757.251181816,1_I,training,02,1_B,155.0,10010,kill,0.0,900.0,2.12596531258
155,1_32_1,32,1.0,760.532583649,1_I,training,02,1_B,156.0,01110,ignore,0.0,800.0,1.09211332793
156,1_32_1,32,1.0,763.814042134,1_I,training,02,1_B,157.0,00110,ignore,0.0,700.0,1.07582550622
157,1_32_1,32,1.0,767.892408828,1_I,training,02,1_B,158.0,10111,ignore,1.0,800.0,1.86471932604
158,1_32_1,32,1.0,771.798791314,1_I,training,02,1_B,159.0,01001,ignore,0.0,700.0,1.73340397206
159,1_32_1,32,1.0,776.674126564,1_I,training,02,1_B,160.0,11100,kill,0.0,600.0,2.65556234757
160,1_32_1,32,1.0,779.658653236,1_I,training,02,1_B,161.0,11100,kill,0.0,500.0,0.75766430789
161,1_32_1,32,1.0,783.09639722,1_I,training,02,1_B,162.0,11110,ignore,1.0,600.0,1.21013732676
162,1_32_1,32,1.0,786.98720703,1_I,training,02,1_B,163.0,00011,kill,0.0,500.0,1.67942528929
163,1_32_1,32,1.0,791.831185503,1_I,training,02,1_B,164.0,01110,ignore,0.0,400.0,2.66368142129
164,1_32_1,32,1.0,795.89394093,1_I,training,02,1_B,165.0,11011,kill,0.0,300.0,1.86066492081
165,1_32_1,32,1.0,799.956661873,1_I,training,02,1_B,166.0,11000,kill,0.0,200.0,1.81713014945
166,1_32_1,32,1.0,803.459256224,1_I,training,02,1_B,167.0,11001,ignore,1.0,300.0,1.29328835007
167,1_32_1,32,1.0,806.790771179,1_I,training,02,1_B,168.0,10000,ignore,1.0,400.0,1.12438476782
168,1_32_1,32,1.0,809.869050429,1_I,training,02,1_B,169.0,11101,ignore,1.0,500.0,0.855567766575
169,1_32_1,32,1.0,813.0879489,1_I,training,02,1_B,170.0,10010,kill,0.0,400.0,1.01129699504
170,1_32_1,32,1.0,816.385037126,1_I,training,02,1_B,171.0,01100,ignore,0.0,300.0,1.08633222887
171,1_32_1,32,1.0,820.275899894,1_I,training,02,1_B,172.0,10111,kill,0.0,200.0,1.68893975825
172,1_32_1,32,1.0,824.35418325,1_I,training,02,1_B,173.0,10100,ignore,1.0,300.0,1.827213204
173,1_32_1,32,1.0,828.916976652,1_I,training,02,1_B,174.0,10011,kill,0.0,200.0,2.32885183891
174,1_32_1,32,1.0,832.776673951,1_I,training,02,1_B,175.0,00000,ignore,1.0,300.0,1.63134060165
175,1_32_1,32,1.0,836.306448746,1_I,training,02,1_B,176.0,01001,ignore,0.0,200.0,1.28625759431
176,1_32_1,32,1.0,843.13327564,1_I,training,02,1_B,177.0,00111,kill,1.0,300.0,4.52554796666
177,1_32_1,32,1.0,928.806176358,1_I,test,02,2,0.0,01000,ignore,1.0,100.0,2.80416475598
178,1_32_1,32,1.0,935.869029492,1_I,test,02,2,1.0,10101,kill,0.0,0.0,4.81557382601
179,1_32_1,32,1.0,939.681728779,1_I,test,02,2,2.0,10001,ignore,1.0,100.0,1.55702667098
180,1_32_1,32,1.0,943.885069764,1_I,test,02,2,3.0,00010,kill,1.0,200.0,1.95998471182
181,1_32_1,32,1.0,947.697789167,1_I,test,02,2,4.0,01010,ignore,1.0,300.0,1.62606486638
182,1_32_1,32,1.0,951.385528943,1_I,test,02,2,5.0,00110,kill,1.0,400.0,1.48710378103
183,1_32_1,32,1.0,955.432578681,1_I,test,02,2,6.0,01111,ignore,1.0,500.0,1.79719763255
184,1_32_1,32,1.0,960.04217345,1_I,test,02,2,7.0,10110,ignore,0.0,400.0,2.41732991388
185,1_32_1,32,1.0,964.136193285,1_I,test,02,2,8.0,00100,ignore,1.0,500.0,1.89604120747
186,1_32_1,32,1.0,967.417595938,1_I,test,02,2,9.0,00101,ignore,1.0,600.0,1.07558945083
187,1_32_1,32,1.0,970.902152374,1_I,test,02,2,10.0,01101,kill,0.0,500.0,1.28287481798
188,1_32_1,32,1.0,974.589866696,1_I,test,02,2,11.0,11111,kill,1.0,600.0,1.48159404303
189,1_32_1,32,1.0,977.965067497,1_I,test,02,2,12.0,11010,kill,1.0,700.0,1.21981477657
190,1_32_1,32,1.0,982.277788338,1_I,test,02,2,13.0,00001,ignore,1.0,800.0,2.11377910717
191,1_32_1,32,1.0,986.653014592,1_I,test,02,2,14.0,01011,ignore,1.0,900.0,2.18643572376
192,1_32_1,32,1.0,991.887652415,1_I,test,02,2,15.0,10011,ignore,0.0,800.0,3.01078998912
193,1_32_1,32,1.0,995.278484188,1_I,test,02,2,16.0,10111,kill,1.0,900.0,1.18857459083
194,1_32_1,32,1.0,998.872370805,1_I,test,02,2,17.0,00101,ignore,1.0,1000.0,1.39921563927
195,1_32_1,32,1.0,1003.34143585,1_I,test,02,2,18.0,10101,kill,0.0,900.0,2.22690218563
196,1_32_1,32,1.0,1008.29483769,1_I,test,02,2,19.0,10000,ignore,1.0,1000.0,2.74636443914
197,1_32_1,32,1.0,1014.27946864,1_I,test,02,2,20.0,01111,ignore,1.0,1100.0,3.78180394759
198,1_32_1,32,1.0,1017.42037688,1_I,test,02,2,21.0,00111,ignore,0.0,1000.0,0.927903347838
199,1_32_1,32,1.0,1020.74860389,1_I,test,02,2,22.0,00001,ignore,1.0,1100.0,1.14496961865
200,1_32_1,32,1.0,1024.06127464,1_I,test,02,2,23.0,00100,ignore,1.0,1200.0,1.08004658707
201,1_32_1,32,1.0,1027.95206885,1_I,test,02,2,24.0,10001,kill,0.0,1100.0,1.6837658347
202,1_32_1,32,1.0,1031.18662662,1_I,test,02,2,25.0,11000,kill,0.0,1000.0,1.08082372246
203,1_32_1,32,1.0,1034.38992778,1_I,test,02,2,26.0,00010,ignore,0.0,900.0,1.00870900693
204,1_32_1,32,1.0,1038.53080974,1_I,test,02,2,27.0,01100,ignore,1.0,1000.0,1.95528700435
205,1_32_1,32,1.0,1042.48413605,1_I,test,02,2,28.0,11111,ignore,0.0,900.0,1.77184815768
206,1_32_1,32,1.0,1046.40616634,1_I,test,02,2,29.0,11101,ignore,1.0,1000.0,1.71046431479
207,1_32_1,32,1.0,1051.609635,1_I,test,02,2,30.0,11010,kill,1.0,1100.0,3.07187044952
208,1_32_1,32,1.0,1055.20354912,1_I,test,02,2,31.0,01101,ignore,1.0,1200.0,1.41717842791
209,1_32_1,32,1.0,1058.984984,1_I,test,02,2,32.0,11011,kill,1.0,1300.0,1.57821623412
210,1_32_1,32,1.0,1062.18835455,1_I,test,02,2,33.0,01000,ignore,1.0,1400.0,0.985554231363
211,1_32_1,32,1.0,1066.01666428,1_I,test,02,2,34.0,01010,kill,0.0,1300.0,1.59751324886
212,1_32_1,32,1.0,1069.39180555,1_I,test,02,2,35.0,11100,ignore,1.0,1400.0,1.17867052785
213,1_32_1,32,1.0,1072.29820528,1_I,test,02,2,36.0,11001,ignore,1.0,1500.0,0.689348647236
214,1_32_1,32,1.0,1075.45465048,1_I,test,02,2,37.0,11110,kill,1.0,1600.0,0.944347992441
215,1_32_1,32,1.0,1079.0642551,1_I,test,02,2,38.0,00000,ignore,1.0,1700.0,1.41865880308
216,1_32_1,32,1.0,1082.42377033,1_I,test,02,2,39.0,10100,ignore,1.0,1800.0,1.15654166952
217,1_32_1,32,1.0,1085.22083207,1_I,test,02,2,40.0,01001,ignore,1.0,1900.0,0.617096403788
218,1_32_1,32,1.0,1088.50218752,1_I,test,02,2,41.0,10110,kill,1.0,2000.0,1.04656695413
219,1_32_1,32,1.0,1091.90871512,1_I,test,02,2,42.0,01011,kill,0.0,1900.0,1.15899582449
220,1_32_1,32,1.0,1095.22132923,1_I,test,02,2,43.0,00110,kill,1.0,2000.0,1.13528272662
221,1_32_1,32,1.0,1098.03401209,1_I,test,02,2,44.0,00011,kill,1.0,2100.0,0.604700827509
222,1_32_1,32,1.0,1100.69040659,1_I,test,02,2,45.0,01110,kill,0.0,2000.0,0.505552227973
223,1_32_1,32,1.0,1105.69062745,1_I,test,02,2,46.0,10010,kill,1.0,2100.0,2.8140019024
224,1_32_1,32,1.0,1109.01894026,1_I,test,02,2,47.0,10111,kill,1.0,2200.0,1.12027411983
225,1_32_1,32,1.0,1112.08167229,1_I,test,02,2,48.0,00001,ignore,1.0,2300.0,0.880295286817
226,1_32_1,32,1.0,1115.78490223,1_I,test,02,2,49.0,10110,kill,1.0,2400.0,1.50529071966
227,1_32_1,32,1.0,1119.65077761,1_I,test,02,2,50.0,10011,kill,1.0,2500.0,1.68757351073
228,1_32_1,32,1.0,1122.99467993,1_I,test,02,2,51.0,10100,ignore,1.0,2600.0,1.1310489193
229,1_32_1,32,1.0,1126.85431113,1_I,test,02,2,52.0,00011,kill,1.0,2700.0,1.64257396436
230,1_32_1,32,1.0,1130.17652222,1_I,test,02,2,53.0,01100,ignore,1.0,2800.0,1.14735973076
231,1_32_1,32,1.0,1133.05166452,1_I,test,02,2,54.0,10000,ignore,1.0,2900.0,0.659242758949
232,1_32_1,32,1.0,1135.81749306,1_I,test,02,2,55.0,11100,ignore,1.0,3000.0,0.567622478877
233,1_32_1,32,1.0,1138.91140041,1_I,test,02,3,0.0,01110,kill,0.0,2900.0,0.933986597804
234,1_32_1,32,1.0,1142.20844758,1_I,test,02,3,1.0,11000,ignore,0.0,2800.0,1.09513976326
235,1_32_1,32,1.0,1145.19294346,1_I,test,02,3,2.0,10001,ignore,1.0,2900.0,0.821729739982
236,1_32_1,32,1.0,1148.9118992,1_I,test,02,3,3.0,11111,kill,0.0,2800.0,1.49545932068
237,1_32_1,32,1.0,1153.79029168,1_I,test,02,3,4.0,00111,ignore,1.0,2900.0,2.67235306989
238,1_32_1,32,1.0,1157.11855317,1_I,test,02,3,5.0,00000,ignore,0.0,2800.0,1.12685123871
239,1_32_1,32,1.0,1160.99372955,1_I,test,02,3,6.0,00010,ignore,0.0,2700.0,1.68632262244
240,1_32_1,32,1.0,1166.35622195,1_I,test,02,3,7.0,10010,kill,1.0,2800.0,3.19618994289
241,1_32_1,32,1.0,1169.51576871,1_I,test,02,3,8.0,11011,kill,0.0,2700.0,0.92566225852
242,1_32_1,32,1.0,1174.14415061,1_I,test,02,3,9.0,11101,ignore,1.0,2800.0,2.42082845999
243,1_32_1,32,1.0,1177.09767849,1_I,test,02,3,10.0,01101,ignore,1.0,2900.0,0.714774070362
244,1_32_1,32,1.0,1179.83218145,1_I,test,02,3,11.0,01111,ignore,1.0,3000.0,0.528938132549
245,1_32_1,32,1.0,1183.28551043,1_I,test,02,3,12.0,01011,kill,0.0,2900.0,1.24390925785
246,1_32_1,32,1.0,1187.87949598,1_I,test,02,3,13.0,01001,ignore,1.0,3000.0,2.39350679368
247,1_32_1,32,1.0,1191.66090048,1_I,test,02,3,14.0,10101,ignore,1.0,3100.0,1.5412236865
248,1_32_1,32,1.0,1196.47371144,1_I,test,02,3,15.0,00100,kill,1.0,3200.0,2.58578806989
249,1_32_1,32,1.0,1199.64571494,1_I,test,02,3,16.0,00101,ignore,1.0,3300.0,0.933885607148
250,1_32_1,32,1.0,1203.92722885,1_I,test,02,3,17.0,00110,ignore,1.0,3400.0,1.90717563219
251,1_32_1,32,1.0,1207.3337466,1_I,test,02,3,18.0,01010,kill,1.0,3500.0,1.21766236197
252,1_32_1,32,1.0,1210.44316053,1_I,test,02,3,19.0,11010,kill,1.0,3600.0,0.918559659814
253,1_32_1,32,1.0,1215.11530669,1_I,test,02,3,20.0,11110,kill,0.0,3500.0,2.43784374283
254,1_32_1,32,1.0,1218.45923447,1_I,test,02,3,21.0,01000,kill,1.0,3600.0,1.10938478219
255,1_32_1,32,1.0,1221.3656461,1_I,test,02,3,22.0,11001,kill,0.0,3500.0,0.721471064331
256,1_32_1,32,1.0,1225.22528428,1_I,test,02,3,23.0,11101,ignore,1.0,3600.0,1.68157893548
257,1_32_1,32,1.0,1228.41291383,1_I,test,02,3,24.0,11100,ignore,0.0,3500.0,0.947468849929
258,1_32_1,32,1.0,1232.36626149,1_I,test,02,3,25.0,10011,kill,0.0,3400.0,1.79049448061
259,1_32_1,32,1.0,1235.39766835,1_I,test,02,3,26.0,01011,kill,0.0,3300.0,0.814474834238
260,1_32_1,32,1.0,1241.24177942,1_I,test,02,3,27.0,10110,kill,0.0,3200.0,3.648263515
261,1_32_1,32,1.0,1245.49198541,1_I,test,02,3,28.0,00011,ignore,1.0,3300.0,2.07891967918
262,1_32_1,32,1.0,1252.27359066,1_I,test,02,3,29.0,10100,ignore,0.0,3200.0,4.56493226852
263,1_32_1,32,1.0,1257.07068032,1_I,test,02,3,30.0,00100,kill,1.0,3300.0,2.52677217043
264,1_32_1,32,1.0,1263.75859006,1_I,test,02,3,31.0,10101,kill,0.0,3200.0,4.49607183309
265,1_32_1,32,1.0,1267.32129355,1_I,test,02,3,32.0,10001,ignore,1.0,3300.0,1.3526548431
266,1_32_1,32,1.0,1270.89957013,1_I,test,02,3,33.0,10010,ignore,0.0,3200.0,1.41059679318
267,1_32_1,32,1.0,1274.39412259,1_I,test,02,3,34.0,11010,kill,1.0,3300.0,1.34480056194
268,1_32_1,32,1.0,1277.25364008,1_I,test,02,3,35.0,11111,kill,0.0,3200.0,0.669389856354
269,1_32_1,32,1.0,1282.5976557,1_I,test,02,3,36.0,11110,ignore,1.0,3300.0,3.16098690036
270,1_32_1,32,1.0,1287.11352786,1_I,test,02,3,37.0,11001,kill,0.0,3200.0,2.30706987937
271,1_32_1,32,1.0,1290.26991558,1_I,test,02,3,38.0,01110,ignore,1.0,3300.0,1.00824633837
272,1_32_1,32,1.0,1293.66081263,1_I,test,02,3,39.0,11000,ignore,0.0,3200.0,1.18324425492
273,1_32_1,32,1.0,1298.23916188,1_I,test,02,3,40.0,01111,ignore,1.0,3300.0,2.39139337953
274,1_32_1,32,1.0,1301.94716834,1_I,test,02,3,41.0,00001,kill,0.0,3200.0,1.51122576789
275,1_32_1,32,1.0,1306.71935601,1_I,test,02,3,42.0,11011,ignore,1.0,3300.0,2.57944741692
276,1_32_1,32,1.0,1309.95385918,1_I,test,02,3,43.0,00111,kill,0.0,3200.0,1.04315338797
277,1_32_1,32,1.0,1315.46977896,1_I,test,02,3,44.0,10000,kill,1.0,3300.0,2.95731502802
278,1_32_1,32,1.0,1318.76689387,1_I,test,02,3,45.0,00110,ignore,1.0,3400.0,0.928360268965
279,1_32_1,32,1.0,1322.06386099,1_I,test,02,3,46.0,00000,kill,1.0,3500.0,0.975380449439
280,1_32_1,32,1.0,1325.23592976,1_I,test,02,3,47.0,01000,kill,1.0,3600.0,0.794506601138
281,1_32_1,32,1.0,1328.3767288,1_I,test,02,3,48.0,01100,ignore,0.0,3500.0,0.835924674113
282,1_32_1,32,1.0,1333.03324686,1_I,test,02,3,49.0,01001,kill,0.0,3400.0,2.36886548497
283,1_32_1,32,1.0,1336.43975189,1_I,test,02,3,50.0,01101,kill,0.0,3300.0,0.952399739068
284,1_32_1,32,1.0,1341.0805462,1_I,test,02,3,51.0,01010,ignore,0.0,3200.0,2.34093664314
285,1_32_1,32,1.0,1345.92453494,1_I,test,02,3,52.0,10111,kill,0.0,3100.0,2.43953882577
286,1_32_1,32,1.0,1349.08097562,1_I,test,02,3,53.0,00010,kill,1.0,3200.0,0.761178454177
287,1_32_1,32,1.0,1352.92496148,1_I,test,02,3,54.0,00101,ignore,1.0,3300.0,1.45983343111
288,1_32_1,32,1.0,1356.30014299,1_I,test,02,3,55.0,10010,kill,1.0,3400.0,1.06644569146
289,1_32_1,32,1.0,1360.23783709,1_I,test,02,3,56.0,11111,kill,0.0,3300.0,1.71851647194
290,1_32_1,32,1.0,1363.47239445,1_I,test,02,3,57.0,10001,kill,0.0,3200.0,1.06113957688
291,1_32_1,32,1.0,1366.72255815,1_I,test,02,3,58.0,11001,ignore,1.0,3300.0,1.12187519115
292,1_32_1,32,1.0,1369.87894669,1_I,test,02,3,59.0,00010,kill,1.0,3400.0,1.01692783972
293,1_32_1,32,1.0,1372.70723302,1_I,test,02,3,60.0,01000,kill,1.0,3500.0,0.684625076308
294,1_32_1,32,1.0,1375.33241648,1_I,test,02,3,61.0,01100,kill,1.0,3600.0,0.488612072324
295,1_32_1,32,1.0,1378.0512975,1_I,test,02,3,62.0,11000,kill,1.0,3700.0,0.498169236522
296,1_32_1,32,1.0,1380.85240011,1_I,test,02,3,63.0,11010,kill,1.0,3800.0,0.648582908194
297,1_32_1,32,1.0,1383.96189327,1_I,test,02,3,64.0,10111,ignore,1.0,3900.0,0.962243864509
298,1_32_1,32,1.0,1386.72986355,1_I,test,02,3,65.0,00011,ignore,1.0,4000.0,0.597850294904
299,1_32_1,32,1.0,1389.41756145,1_I,test,02,3,66.0,10101,ignore,1.0,4100.0,0.430399992776
300,1_32_1,32,1.0,1392.87085184,1_I,test,02,3,67.0,00100,kill,1.0,4200.0,1.23059450241
301,1_32_1,32,1.0,1395.68343864,1_I,test,02,4,0.0,10110,kill,1.0,4300.0,0.644347048219
302,1_32_1,32,1.0,1398.93363272,1_I,test,02,4,1.0,01001,ignore,1.0,4400.0,1.03334497873
303,1_32_1,32,1.0,1402.10570191,1_I,test,02,4,2.0,00000,kill,0.0,4300.0,0.985837497832
304,1_32_1,32,1.0,1405.94972677,1_I,test,02,4,3.0,00111,ignore,1.0,4400.0,1.69976423199
305,1_32_1,32,1.0,1408.74662759,1_I,test,02,4,4.0,00101,ignore,1.0,4500.0,0.628900404743
306,1_32_1,32,1.0,1411.41871135,1_I,test,02,4,5.0,01011,ignore,1.0,4600.0,0.487808662947
307,1_32_1,32,1.0,1414.95327007,1_I,test,02,4,6.0,00110,kill,0.0,4500.0,1.41740093576
308,1_32_1,32,1.0,1418.09406869,1_I,test,02,4,7.0,10100,ignore,0.0,4400.0,0.983612419222
309,1_32_1,32,1.0,1420.79736923,1_I,test,02,4,8.0,01101,ignore,1.0,4500.0,0.534086192649
310,1_32_1,32,1.0,1423.45371939,1_I,test,02,4,9.0,11101,ignore,0.0,4400.0,0.485962094019
311,1_32_1,32,1.0,1427.53208609,1_I,test,02,4,10.0,01110,ignore,1.0,4500.0,1.89139194267
312,1_32_1,32,1.0,1430.71972631,1_I,test,02,4,11.0,11011,ignore,0.0,4400.0,0.981555247839
313,1_32_1,32,1.0,1433.78234708,1_I,test,02,4,12.0,01111,ignore,1.0,4500.0,0.815942072419
314,1_32_1,32,1.0,1437.01692291,1_I,test,02,4,13.0,00001,kill,0.0,4400.0,1.05961281169
315,1_32_1,32,1.0,1440.62653082,1_I,test,02,4,14.0,10000,kill,1.0,4500.0,1.45588576397
316,1_32_1,32,1.0,1445.98930813,1_I,test,02,4,15.0,10011,kill,1.0,4600.0,3.13831203567
317,1_32_1,32,1.0,1449.61452278,1_I,test,02,4,16.0,11110,ignore,1.0,4700.0,1.46481317345
318,1_32_1,32,1.0,1452.69277371,1_I,test,02,4,17.0,11100,ignore,1.0,4800.0,0.810235279485
319,1_32_1,32,1.0,1456.25547187,1_I,test,02,4,18.0,01010,kill,0.0,4700.0,1.37667091293
320,1_32_1,32,1.0,1459.59937665,1_I,test,02,4,19.0,00110,ignore,1.0,4800.0,1.11430581858
321,1_32_1,32,1.0,1462.19332567,1_I,test,02,4,20.0,01100,ignore,1.0,4900.0,0.43787124841
322,1_32_1,32,1.0,1465.19346853,1_I,test,02,4,21.0,11011,kill,1.0,5000.0,0.852401750668
323,1_32_1,32,1.0,1467.77178001,1_I,test,02,4,22.0,00111,kill,0.0,4900.0,0.398653622178
324,1_32_1,32,1.0,1471.38128487,1_I,test,02,4,23.0,11100,ignore,1.0,5000.0,1.41169003752
325,1_32_1,32,1.0,1474.3189995,1_I,test,02,4,24.0,00010,ignore,1.0,5100.0,0.767892690452
326,1_32_1,32,1.0,1477.63165137,1_I,test,02,4,25.0,11111,ignore,0.0,5000.0,1.12549484393
327,1_32_1,32,1.0,1481.13182113,1_I,test,02,4,26.0,10101,ignore,0.0,4900.0,1.35051063912
328,1_32_1,32,1.0,1485.25706062,1_I,test,02,4,27.0,10001,kill,1.0,5000.0,1.93017522699
329,1_32_1,32,1.0,1488.28846215,1_I,test,02,4,28.0,10110,ignore,0.0,4900.0,0.841105576696
330,1_32_1,32,1.0,1492.28866946,1_I,test,02,4,29.0,01010,ignore,1.0,5000.0,1.86766242355
331,1_32_1,32,1.0,1497.53897192,1_I,test,02,4,30.0,11001,ignore,0.0,4900.0,3.08672059129
332,1_32_1,32,1.0,1500.88288122,1_I,test,02,4,31.0,10011,ignore,0.0,4800.0,1.16310318822
333,1_32_1,32,1.0,1503.99243391,1_I,test,02,4,32.0,10000,kill,1.0,4900.0,0.933938155129
334,1_32_1,32,1.0,1507.13322104,1_I,test,02,4,33.0,11110,kill,0.0,4800.0,0.974079065829
335,1_32_1,32,1.0,1512.72729609,1_I,test,02,4,34.0,11101,ignore,0.0,4700.0,3.44181316811
336,1_32_1,32,1.0,1516.08684621,1_I,test,02,4,35.0,00100,ignore,1.0,4800.0,1.12897614773
337,1_32_1,32,1.0,1519.25889036,1_I,test,02,4,36.0,00000,ignore,1.0,4900.0,0.971393781849
338,1_32_1,32,1.0,1523.41569107,1_I,test,02,4,37.0,11010,kill,0.0,4800.0,1.99494143569
339,1_32_1,32,1.0,1526.759664,1_I,test,02,4,38.0,00101,ignore,1.0,4900.0,1.12521937756
340,1_32_1,32,1.0,1530.0879099,1_I,test,02,4,39.0,01001,ignore,1.0,5000.0,1.19197912531
341,1_32_1,32,1.0,1532.97868235,1_I,test,02,4,40.0,01000,ignore,1.0,5100.0,0.682652063802
342,1_32_1,32,1.0,1538.01023372,1_I,test,02,4,41.0,01011,kill,0.0,5000.0,2.85091480699
343,1_32_1,32,1.0,1542.0729563,1_I,test,02,4,42.0,10100,ignore,0.0,4900.0,1.87621091282
344,1_32_1,32,1.0,1545.29184944,1_I,test,02,4,43.0,10010,kill,1.0,5000.0,0.990045441689
345,1_32_1,32,1.0,1548.60454811,1_I,test,02,4,44.0,01110,ignore,1.0,5100.0,1.19332648841
346,1_32_1,32,1.0,1551.71407986,1_I,test,02,4,45.0,11000,kill,0.0,5000.0,0.933834701293
347,1_32_1,32,1.0,1554.83930252,1_I,test,02,4,46.0,01111,ignore,1.0,5100.0,0.952290948324
348,1_32_1,32,1.0,1557.84048157,1_I,test,02,4,47.0,00011,ignore,1.0,5200.0,0.854310309791
349,1_32_1,32,1.0,1561.156274,1_I,test,02,4,48.0,10111,kill,1.0,5300.0,1.15388183847
350,1_32_1,32,1.0,1564.57836279,1_I,test,02,4,49.0,01101,ignore,1.0,5400.0,1.2203574987
351,1_32_1,32,1.0,1567.57850607,1_I,test,02,4,50.0,00001,ignore,1.0,5500.0,0.811649969684
352,1_32_1,32,1.0,1570.75056623,1_I,test,02,4,51.0,00111,ignore,1.0,5600.0,0.966288416988
353,1_32_1,32,1.0,1573.82882618,1_I,test,02,4,52.0,01100,ignore,1.0,5700.0,0.918749325188
354,1_32_1,32,1.0,1578.78226497,1_I,test,02,4,53.0,11110,kill,0.0,5600.0,2.75015117808
355,1_32_1,32,1.0,1582.00111952,1_I,test,02,4,54.0,00011,ignore,1.0,5700.0,1.01405042718
356,1_32_1,32,1.0,1584.73571034,1_I,test,02,4,55.0,01111,ignore,1.0,5800.0,0.560706261298
357,1_32_1,32,1.0,1587.93898769,1_I,test,02,4,56.0,11111,ignore,0.0,5700.0,1.03509671497
358,1_32_1,32,1.0,1591.47041446,1_I,test,02,4,57.0,10011,ignore,0.0,5600.0,1.40331971876
359,1_32_1,32,1.0,1594.45502242,1_I,test,02,4,58.0,00001,ignore,1.0,5700.0,0.74610539401
360,1_32_1,32,1.0,1598.01765612,1_I,test,02,4,59.0,01110,ignore,1.0,5800.0,1.34384895082
361,1_32_1,32,1.0,1601.29904687,1_I,test,02,4,60.0,01000,ignore,1.0,5900.0,1.15762670324
362,1_32_1,32,1.0,1604.26801318,1_I,test,02,4,61.0,01101,ignore,1.0,6000.0,0.758582665978
363,1_32_1,32,1.0,1607.06500473,1_I,test,02,4,62.0,00101,ignore,1.0,6100.0,0.64853241287
364,1_32_1,32,1.0,1610.9714726,1_I,test,02,4,63.0,11000,kill,0.0,6000.0,1.73553955488
365,1_32_1,32,1.0,1614.45606927,1_I,test,02,4,64.0,10101,kill,1.0,6100.0,1.27193129023
366,1_32_1,32,1.0,1618.37812173,1_I,test,02,4,65.0,11101,ignore,0.0,6000.0,1.77047575219
367,1_32_1,32,1.0,1622.4564679,1_I,test,02,4,66.0,10111,kill,1.0,6100.0,1.93937810284
368,1_32_1,32,1.0,1626.03478184,1_I,test,02,4,67.0,00000,ignore,1.0,6200.0,1.40093863833
369,1_32_1,32,1.0,1629.23808711,1_I,test,02,4,68.0,01010,ignore,1.0,6300.0,1.01440061021
370,1_32_1,32,1.0,1633.33201827,1_I,test,02,4,69.0,11001,kill,1.0,6400.0,1.89003924267
371,1_32_1,32,1.0,1636.61348086,1_I,test,02,4,70.0,00010,ignore,1.0,6500.0,1.13022252018
372,1_32_1,32,1.0,1642.97321941,1_I,test,02,4,71.0,10001,kill,1.0,6600.0,4.1831752857
373,1_32_1,32,1.0,1646.17650169,1_I,test,02,4,72.0,10000,kill,1.0,6700.0,1.00139375311
374,1_32_1,32,1.0,1650.5517029,1_I,test,02,4,73.0,11010,kill,0.0,6600.0,2.19482574802
375,1_32_1,32,1.0,1654.75504594,1_I,test,02,4,74.0,01011,ignore,1.0,6700.0,1.98963080527
376,1_32_1,32,1.0,1658.70840673,1_I,test,02,4,75.0,10110,kill,1.0,6800.0,1.77439262949
377,1_32_1,32,1.0,1661.84919509,1_I,test,02,4,76.0,10010,kill,1.0,6900.0,0.740904785929
378,1_32_1,32,1.0,1665.4118953,1_I,test,02,4,77.0,00110,ignore,1.0,7000.0,1.37104047878
379,1_32_1,32,1.0,1671.58410982,1_I,test,02,4,78.0,11100,ignore,1.0,7100.0,3.97390212692
380,1_32_1,32,1.0,1675.55304493,1_I,test,02,4,79.0,11011,ignore,0.0,7000.0,1.74353670087
381,1_32_1,32,1.0,1678.8813873,1_I,test,02,4,80.0,00100,ignore,1.0,7100.0,1.17824439656
382,1_32_1,32,1.0,1682.16280761,1_I,test,02,4,81.0,01001,ignore,1.0,7200.0,1.02823961387
383,1_32_1,32,1.0,1686.16301492,1_I,test,02,4,82.0,10100,kill,1.0,7300.0,1.78575038313
384,1_32_1,32,1.0,1689.79135701,1_I,test,02,4,83.0,01001,ignore,1.0,7400.0,1.46523519943
385,1_32_1,32,1.0,1692.6664755,1_I,test,02,4,84.0,01101,ignore,1.0,7500.0,0.659095378283
386,1_32_1,32,1.0,1697.21368924,1_I,test,02,4,85.0,11001,ignore,0.0,7400.0,2.39640842755
387,1_32_1,32,1.0,1701.69822556,1_I,test,02,4,86.0,10101,kill,1.0,7500.0,2.26450314036
388,1_32_1,32,1.0,1705.0734124,1_I,test,02,4,87.0,01110,ignore,1.0,7600.0,1.19655531558
389,1_32_1,32,1.0,1707.90167041,1_I,test,02,4,88.0,00011,ignore,1.0,7700.0,0.683589306322
390,1_32_1,32,1.0,1711.08935784,1_I,test,02,4,89.0,00100,ignore,1.0,7800.0,1.02386006801
391,1_32_1,32,1.0,1714.98021897,1_I,test,02,4,90.0,10011,kill,1.0,7900.0,1.68010553934
392,1_32_1,32,1.0,1720.66803716,1_I,test,02,4,91.0,10001,kill,1.0,8000.0,3.49248789651
393,1_32_1,32,1.0,1723.9057088,1_I,test,02,4,92.0,10000,kill,1.0,8100.0,1.06843348308
394,1_32_1,32,1.0,1726.93711936,1_I,test,02,4,93.0,00001,kill,0.0,8000.0,0.867420210197
395,1_32_1,32,1.0,1729.95288088,1_I,test,02,4,94.0,00111,ignore,1.0,8100.0,0.77367050527
396,1_32_1,32,1.0,1733.1758666,1_I,test,02,4,95.0,01111,ignore,1.0,8200.0,1.01523645155
397,1_32_1,32,1.0,1735.98851006,1_I,test,02,4,96.0,01011,ignore,1.0,8300.0,0.608976098469
398,1_32_1,32,1.0,1738.7543074,1_I,test,02,4,97.0,00110,ignore,1.0,8400.0,0.554642306299
399,1_32_1,32,1.0,1741.59818939,1_I,test,02,4,98.0,00010,ignore,1.0,8500.0,0.681005423528
400,1_32_1,32,1.0,1744.84836869,1_I,test,02,4,99.0,01100,ignore,1.0,8600.0,0.991876820961
401,1_32_1,32,1.0,1748.45791132,1_I,test,02,4,100.0,11101,ignore,0.0,8500.0,1.41709591115
402,1_32_1,32,1.0,1751.97374982,1_I,test,02,4,101.0,10010,kill,1.0,8600.0,1.33594992177
403,1_32_1,32,1.0,1755.27077113,1_I,test,02,4,102.0,01010,ignore,1.0,8700.0,1.08439739576
404,1_32_1,32,1.0,1757.97405895,1_I,test,02,4,103.0,01000,ignore,1.0,8800.0,0.542387131656
405,1_32_1,32,1.0,1761.36485788,1_I,test,02,4,104.0,11000,kill,0.0,8700.0,1.2237649069
406,1_32_1,32,1.0,1764.63064352,1_I,test,02,4,105.0,00000,ignore,1.0,8800.0,1.02998355002
407,1_32_1,32,1.0,1769.67783161,1_I,test,02,4,106.0,11100,kill,0.0,8700.0,2.89153275484
408,1_32_1,32,1.0,1774.47499065,1_I,test,02,4,107.0,11110,kill,0.0,8600.0,2.5282960619
409,1_32_1,32,1.0,1777.75639741,1_I,test,02,4,108.0,11111,ignore,0.0,8500.0,1.13307981669
410,1_32_1,32,1.0,1782.41289207,1_I,test,02,4,109.0,11011,ignore,0.0,8400.0,2.45167658852
411,1_32_1,32,1.0,1786.78812531,1_I,test,02,4,110.0,10100,kill,1.0,8500.0,2.16221192519
412,1_32_1,32,1.0,1790.81960401,1_I,test,02,4,111.0,10110,kill,1.0,8600.0,1.87995700918
413,1_32_1,32,1.0,1795.4917083,1_I,test,02,4,112.0,10111,kill,1.0,8700.0,2.48600684191
414,1_32_1,32,1.0,1798.9762947,1_I,test,02,4,113.0,11010,ignore,1.0,8800.0,1.28677322139
415,1_32_1,32,1.0,1801.91391409,1_I,test,02,4,114.0,00101,ignore,1.0,8900.0,0.714396792275
416,1_32_1,32,1.0,1805.71102099,1_I,test,02,4,115.0,10100,kill,1.0,9000.0,1.55752095043
417,1_32_1,32,1.0,1809.05492824,1_I,test,02,4,116.0,00001,ignore,1.0,9100.0,1.17124689382
418,1_32_1,32,1.0,1812.13323541,1_I,test,02,4,117.0,00000,ignore,1.0,9200.0,0.808815252378
419,1_32_1,32,1.0,1816.7584903,1_I,test,02,4,118.0,10110,kill,1.0,9300.0,2.41571118973
420,1_32_1,32,1.0,1822.30564657,1_I,test,02,5,0.0,10000,kill,0.0,9200.0,3.35391886838
421,1_32_1,32,1.0,1825.72773864,1_I,test,02,5,1.0,00111,ignore,0.0,9100.0,1.17614822472
422,1_32_1,32,1.0,1829.04042459,1_I,test,02,5,2.0,01101,ignore,1.0,9200.0,1.14198793121
423,1_32_1,32,1.0,1833.6968667,1_I,test,02,5,3.0,10011,kill,1.0,9300.0,2.42752134864
424,1_32_1,32,1.0,1837.27520897,1_I,test,02,5,4.0,00100,ignore,1.0,9400.0,1.34899742146
425,1_32_1,32,1.0,1840.13470963,1_I,test,02,5,5.0,00010,ignore,0.0,9300.0,0.703487338604
426,1_32_1,32,1.0,1843.94745161,1_I,test,02,5,6.0,10001,kill,0.0,9200.0,1.59714253927
427,1_32_1,32,1.0,1847.44758893,1_I,test,02,5,7.0,01111,kill,0.0,9100.0,1.34255454624
428,1_32_1,32,1.0,1850.525947,1_I,test,02,5,8.0,11001,kill,0.0,9000.0,0.84836048244
429,1_32_1,32,1.0,1854.04170627,1_I,test,02,5,9.0,11000,ignore,1.0,9100.0,1.24627350649
430,1_32_1,32,1.0,1857.8075812,1_I,test,02,5,10.0,10111,ignore,0.0,9000.0,1.36260899088
431,1_32_1,32,1.0,1861.15155782,1_I,test,02,5,11.0,00011,ignore,0.0,8900.0,1.10260732412
432,1_32_1,32,1.0,1865.35483394,1_I,test,02,5,12.0,01110,kill,0.0,8800.0,1.98687203622
433,1_32_1,32,1.0,1868.76130202,1_I,test,02,5,13.0,00101,ignore,1.0,8900.0,1.16102220604
434,1_32_1,32,1.0,1873.27715201,1_I,test,02,5,14.0,00110,kill,1.0,9000.0,2.29080997377
435,1_32_1,32,1.0,1876.98043039,1_I,test,02,5,15.0,11101,ignore,1.0,9100.0,1.49726073118
436,1_32_1,32,1.0,1879.91809822,1_I,test,02,5,16.0,01000,ignore,1.0,9200.0,0.687555447359
437,1_32_1,32,1.0,1882.73076631,1_I,test,02,5,17.0,11100,ignore,1.0,9300.0,0.603355106534
438,1_32_1,32,1.0,1886.0122326,1_I,test,02,5,18.0,11011,kill,1.0,9400.0,1.09798720703
439,1_32_1,32,1.0,1888.7154691,1_I,test,02,5,19.0,11010,kill,1.0,9500.0,0.50654735538
440,1_32_1,32,1.0,1892.07505699,1_I,test,02,5,20.0,01001,ignore,1.0,9600.0,1.18810904855
441,1_32_1,32,1.0,1895.38772036,1_I,test,02,5,21.0,10010,kill,1.0,9700.0,1.08815991336
442,1_32_1,32,1.0,1898.66914149,1_I,test,02,5,22.0,01100,ignore,1.0,9800.0,1.06379324997
443,1_32_1,32,1.0,1902.27870752,1_I,test,02,6,0.0,01011,kill,0.0,9700.0,1.43308117144
444,1_32_1,32,1.0,1905.24763401,1_I,test,02,6,1.0,11110,kill,0.0,9600.0,0.777660457112
445,1_32_1,32,1.0,1908.32590505,1_I,test,02,6,2.0,10101,ignore,1.0,9700.0,0.877315652033
446,1_32_1,32,1.0,1912.27921534,1_I,test,02,6,3.0,11111,kill,0.0,9600.0,1.75924567372
447,1_32_1,32,1.0,1915.52945294,1_I,test,02,6,4.0,01010,ignore,0.0,9500.0,1.05348440331
448,1_32_1,32,1.0,1918.87332077,1_I,test,02,6,5.0,10010,kill,1.0,9600.0,1.17970670837
449,1_32_1,32,1.0,1922.06111125,1_I,test,02,6,6.0,00110,ignore,1.0,9700.0,1.02338303086
450,1_32_1,32,1.0,1924.8625197,1_I,test,02,6,7.0,01111,ignore,1.0,9800.0,0.64571822212
451,1_32_1,32,1.0,1927.94083303,1_I,test,02,6,8.0,10011,kill,0.0,9700.0,0.866645948532
452,1_32_1,32,1.0,1931.03465786,1_I,test,02,6,9.0,01110,ignore,1.0,9800.0,0.871019746955
453,1_32_1,32,1.0,1934.26923369,1_I,test,02,6,10.0,10101,ignore,1.0,9900.0,1.04560138497
454,1_32_1,32,1.0,1937.47255374,1_I,test,02,6,11.0,00111,ignore,1.0,10000.0,0.956853180527
455,1_32_1,32,1.0,1940.6914596,1_I,test,02,6,12.0,00010,ignore,0.0,9900.0,0.978133881585
456,1_32_1,32,1.0,1943.91033631,1_I,test,02,6,13.0,10000,kill,1.0,10000.0,0.983022896551
457,1_32_1,32,1.0,1947.25433962,1_I,test,02,6,14.0,11110,ignore,1.0,10100.0,1.1487485575
458,1_32_1,32,1.0,1950.61385198,1_I,test,02,6,15.0,11000,kill,1.0,10200.0,1.17810851076
459,1_32_1,32,1.0,1953.78593102,1_I,test,02,6,16.0,00101,ignore,1.0,10300.0,0.921058562672
460,1_32_1,32,1.0,1957.08292441,1_I,test,02,6,17.0,00011,kill,0.0,10200.0,1.07508162385
461,1_32_1,32,1.0,1960.16120489,1_I,test,02,6,18.0,10100,ignore,0.0,10100.0,0.8980224306
462,1_32_1,32,1.0,1963.66139764,1_I,test,02,6,19.0,01101,ignore,1.0,10200.0,1.28443114141
463,1_32_1,32,1.0,1966.66159223,1_I,test,02,6,20.0,10110,ignore,1.0,10300.0,0.807328719235
464,1_32_1,32,1.0,1970.30238941,1_I,test,02,6,21.0,01011,kill,0.0,10200.0,1.4003220206
465,1_32_1,32,1.0,1973.8964308,1_I,test,02,6,22.0,00100,ignore,0.0,10100.0,1.33240785937
466,1_32_1,32,1.0,1979.03728608,1_I,test,02,6,23.0,10111,kill,0.0,10000.0,2.94983268805
467,1_32_1,32,1.0,1982.56870259,1_I,test,02,6,24.0,01010,ignore,0.0,9900.0,1.31174623923
468,1_32_1,32,1.0,1986.28760865,1_I,test,02,6,25.0,00000,ignore,0.0,9800.0,1.55783213301
469,1_32_1,32,1.0,1990.75662649,1_I,test,02,6,26.0,11001,ignore,1.0,9900.0,2.24069192555
470,1_32_1,32,1.0,1994.24117019,1_I,test,02,6,27.0,01001,kill,0.0,9800.0,1.2414764505
471,1_32_1,32,1.0,1998.27263207,1_I,test,02,6,28.0,01100,ignore,0.0,9700.0,1.87672612936
472,1_32_1,32,1.0,2001.46039011,1_I,test,02,6,29.0,11011,ignore,1.0,9800.0,1.03764857634
473,1_32_1,32,1.0,2005.02300863,1_I,test,02,6,30.0,00001,kill,0.0,9700.0,1.33636661085
474,1_32_1,32,1.0,2008.10131169,1_I,test,02,6,31.0,01000,ignore,0.0,9600.0,0.870182674025
475,1_32_1,32,1.0,2011.11711426,1_I,test,02,6,32.0,11100,ignore,0.0,9500.0,0.790247751418
476,1_32_1,32,1.0,2014.75789133,1_I,test,02,6,33.0,11101,kill,0.0,9400.0,1.50478699799
477,1_32_1,32,1.0,2019.39882194,1_I,test,02,6,34.0,10001,ignore,1.0,9500.0,2.39832971313
478,1_32_1,32,1.0,2023.14905481,1_I,test,02,6,35.0,11010,ignore,0.0,9400.0,1.54055369972
479,1_32_1,32,1.0,2026.36793851,1_I,test,02,6,36.0,11111,kill,0.0,9300.0,1.0128709713
480,1_32_1,32,1.0,2030.25878157,1_I,test,02,6,37.0,11010,ignore,0.0,9200.0,1.64036777019
481,1_32_1,32,1.0,2034.96216956,1_I,test,02,6,38.0,10001,ignore,1.0,9300.0,2.56109996063
482,1_32_1,32,1.0,2037.89979962,1_I,test,02,6,39.0,00000,ignore,0.0,9200.0,0.668131167971
483,1_32_1,32,1.0,2041.41369425,1_I,test,02,6,40.0,01011,kill,0.0,9100.0,1.28878564488
484,1_32_1,32,1.0,2044.88451267,1_I,test,02,6,41.0,01100,ignore,0.0,9000.0,1.23015646572
485,1_32_1,32,1.0,2047.65029852,1_I,test,02,6,42.0,10101,ignore,1.0,9100.0,0.569305656423
486,1_32_1,32,1.0,2050.728618,1_I,test,02,6,43.0,01111,kill,0.0,9000.0,0.884040151584
487,1_32_1,32,1.0,2054.43190664,1_I,test,02,6,44.0,11100,kill,1.0,9100.0,1.52118155779
488,1_32_1,32,1.0,2058.26026482,1_I,test,02,6,45.0,10111,ignore,1.0,9200.0,1.59899321351
489,1_32_1,32,1.0,2061.13540301,1_I,test,02,6,46.0,10010,ignore,0.0,9100.0,0.677504414238
490,1_32_1,32,1.0,2064.57308911,1_I,test,02,6,47.0,01010,ignore,0.0,9000.0,1.25900448669
491,1_32_1,32,1.0,2067.62015404,1_I,test,02,6,48.0,00110,ignore,1.0,9100.0,0.883579946214
492,1_32_1,32,1.0,2070.91720901,1_I,test,02,6,49.0,11110,kill,0.0,9000.0,1.1402801218
493,1_32_1,32,1.0,2074.71428431,1_I,test,02,6,50.0,00001,kill,0.0,8900.0,1.55589196299
494,1_32_1,32,1.0,2078.16758988,1_I,test,02,6,51.0,10011,ignore,1.0,9000.0,1.30079409032
495,1_32_1,32,1.0,2081.49586164,1_I,test,02,6,52.0,01110,kill,0.0,8900.0,1.20847057046
496,1_32_1,32,1.0,2084.3553779,1_I,test,02,6,53.0,00010,ignore,0.0,8800.0,0.653409111903
497,1_32_1,32,1.0,2087.152438,1_I,test,02,6,54.0,00111,ignore,1.0,8900.0,0.590025161451
498,1_32_1,32,1.0,2090.57448574,1_I,test,02,6,55.0,11011,kill,0.0,8800.0,1.26026112242
499,1_32_1,32,1.0,2093.13717979,1_I,test,02,6,56.0,01001,ignore,1.0,8900.0,0.400616371404
500,1_32_1,32,1.0,2096.41864895,1_I,test,02,6,57.0,10110,ignore,1.0,9000.0,1.03100248823
501,1_32_1,32,1.0,2100.16879479,1_I,test,02,6,58.0,11000,kill,1.0,9100.0,1.54101349457
502,1_32_1,32,1.0,2103.49707394,1_I,test,02,6,59.0,11111,ignore,1.0,9200.0,1.16397022993
503,1_32_1,32,1.0,2106.99731759,1_I,test,02,6,60.0,11001,kill,0.0,9100.0,1.34437196746
504,1_32_1,32,1.0,2110.34120226,1_I,test,02,6,61.0,11101,ignore,1.0,9200.0,1.16721588887
505,1_32_1,32,1.0,2114.01330039,1_I,test,02,6,62.0,01101,kill,0.0,9100.0,1.49544372049
506,1_32_1,32,1.0,2117.1540674,1_I,test,02,6,63.0,10100,ignore,0.0,9000.0,0.914684656687
507,1_32_1,32,1.0,2121.81052922,1_I,test,02,6,64.0,00100,ignore,0.0,8900.0,2.46176251678
508,1_32_1,32,1.0,2124.71698848,1_I,test,02,6,65.0,00011,ignore,1.0,9000.0,0.711371178004
509,1_32_1,32,1.0,2128.13900912,1_I,test,02,6,66.0,01000,kill,1.0,9100.0,1.30010932443
510,1_32_1,32,1.0,2131.60797522,1_I,test,02,6,67.0,00101,ignore,1.0,9200.0,1.26272102482
511,1_32_1,32,1.0,2135.40506324,1_I,test,02,6,68.0,10000,kill,1.0,9300.0,1.59395763894
512,1_32_1,32,1.0,2138.38958417,1_I,test,02,6,69.0,00110,ignore,1.0,9400.0,0.761235107471
513,1_32_1,32,1.0,2141.38973771,1_I,test,02,6,70.0,01010,kill,1.0,9500.0,0.871550153148
514,1_32_1,32,1.0,2144.31175117,1_I,test,02,6,71.0,00101,ignore,1.0,9600.0,0.68142621791
515,1_32_1,32,1.0,2147.42133834,1_I,test,02,6,72.0,01000,kill,1.0,9700.0,0.912859435379
516,1_32_1,32,1.0,2150.35899221,1_I,test,02,6,73.0,10110,ignore,1.0,9800.0,0.752972758386
517,1_32_1,32,1.0,2153.29661365,1_I,test,02,6,74.0,01001,kill,0.0,9700.0,0.772232414798
518,1_32_1,32,1.0,2156.06236912,1_I,test,02,6,75.0,00001,kill,0.0,9600.0,0.539537224704
519,1_32_1,32,1.0,2159.18754949,1_I,test,02,6,76.0,00011,ignore,1.0,9700.0,0.895457021703
520,1_32_1,32,1.0,2162.14089797,1_I,test,02,6,77.0,11001,ignore,1.0,9800.0,0.775287587305
521,1_32_1,32,1.0,2164.75039668,1_I,test,02,6,78.0,11011,ignore,1.0,9900.0,0.417494947389
522,1_32_1,32,1.0,2167.89114275,1_I,test,02,6,79.0,00111,kill,0.0,9800.0,0.97544900814
