,unique_id,pair_id,sbj_id,wall_time,condition,block,rule_id,rule_num,trial,stimulus,choice,correct,points,reaction_time
0,3_39_1,39,1.0,37.8643391742,3_D,training,05,1_A,1.0,10100,kill,0.0,0.0,4.56543681126
1,3_39_1,39,1.0,45.0835278909,3_D,training,05,1_A,2.0,01011,ignore,1.0,100.0,4.70876512653
2,3_39_1,39,1.0,55.5841295242,3_D,training,05,1_A,3.0,10011,kill,0.0,0.0,8.29327069723
3,3_39_1,39,1.0,59.5061844459,3_D,training,05,1_A,4.0,11100,kill,0.0,0.0,1.73341710905
4,3_39_1,39,1.0,62.9281853827,3_D,training,05,1_A,5.0,00001,ignore,1.0,100.0,1.18448118516
5,3_39_1,39,1.0,69.0223805139,3_D,training,05,1_A,6.0,01110,ignore,0.0,0.0,3.76310138189
6,3_39_1,39,1.0,76.1945597239,3_D,training,05,1_A,7.0,01000,ignore,0.0,0.0,4.72262178303
7,3_39_1,39,1.0,80.2260839971,3_D,training,05,1_A,8.0,00100,kill,1.0,100.0,1.56781091266
8,3_39_1,39,1.0,83.6334195312,3_D,training,05,1_A,9.0,11000,kill,1.0,200.0,1.05313668346
9,3_39_1,39,1.0,86.7741163421,3_D,training,05,1_A,10.0,10000,kill,1.0,300.0,0.779635111739
10,3_39_1,39,1.0,89.9805498572,3_D,training,05,1_A,11.0,10110,ignore,1.0,400.0,1.07595318139
11,3_39_1,39,1.0,93.3432717441,3_D,training,05,1_A,12.0,01010,ignore,0.0,300.0,1.16854272541
12,3_39_1,39,1.0,100.046736093,3_D,training,05,1_A,13.0,00010,ignore,0.0,200.0,4.50890708819
13,3_39_1,39,1.0,104.171973944,3_D,training,05,1_A,14.0,00101,kill,0.0,100.0,1.80296969993
14,3_39_1,39,1.0,108.547303242,3_D,training,05,1_A,15.0,11010,ignore,0.0,0.0,2.15762670324
15,3_39_1,39,1.0,112.625620261,3_D,training,05,1_A,16.0,01001,kill,0.0,0.0,1.86682165585
16,3_39_1,39,1.0,116.282097272,3_D,training,05,1_A,17.0,01101,ignore,1.0,100.0,1.27491174607
17,3_39_1,39,1.0,121.000993896,3_D,training,05,1_A,18.0,00110,ignore,0.0,0.0,2.40437806795
18,3_39_1,39,1.0,126.032550191,3_D,training,05,1_A,19.0,10001,ignore,1.0,100.0,2.29763423238
19,3_39_1,39,1.0,129.923354253,3_D,training,05,1_A,20.0,00011,kill,0.0,0.0,1.67925163463
20,3_39_1,39,1.0,134.057441923,3_D,training,05,1_A,21.0,11110,ignore,1.0,100.0,1.70828480514
21,3_39_1,39,1.0,140.205188374,3_D,training,05,1_A,22.0,01111,ignore,1.0,200.0,3.75664742233
22,3_39_1,39,1.0,146.080549898,3_D,training,05,1_A,23.0,10010,ignore,0.0,100.0,3.72015736479
23,3_39_1,39,1.0,150.799510565,3_D,training,05,1_A,24.0,01100,kill,1.0,200.0,2.51714316328
24,3_39_1,39,1.0,159.784359504,3_D,training,05,1_A,25.0,00111,ignore,1.0,300.0,6.81041386052
25,3_39_1,39,1.0,163.097040933,3_D,training,05,1_A,26.0,00000,kill,1.0,400.0,1.13013056121
26,3_39_1,39,1.0,166.300359748,3_D,training,05,1_A,27.0,11101,ignore,1.0,500.0,1.06405147403
27,3_39_1,39,1.0,169.503594816,3_D,training,05,1_A,28.0,11111,ignore,1.0,600.0,0.958826603564
28,3_39_1,39,1.0,173.363236282,3_D,training,05,1_A,29.0,10111,ignore,1.0,700.0,1.62457463846
29,3_39_1,39,1.0,177.01963365,3_D,training,05,1_A,30.0,11001,kill,0.0,600.0,1.42816095611
30,3_39_1,39,1.0,184.160664633,3_D,training,05,1_A,31.0,11011,kill,0.0,500.0,4.94019875453
31,3_39_1,39,1.0,187.442107108,3_D,training,05,1_A,32.0,10101,ignore,1.0,600.0,1.03588041886
32,3_39_1,39,1.0,190.551625313,3_D,training,05,1_A,33.0,11011,ignore,1.0,700.0,0.870584583983
33,3_39_1,39,1.0,193.864355595,3_D,training,05,1_A,34.0,00110,kill,1.0,800.0,1.07436853131
34,3_39_1,39,1.0,197.848919215,3_D,training,05,1_A,35.0,10001,ignore,1.0,900.0,1.70546774067
35,3_39_1,39,1.0,201.395961359,3_D,training,05,1_A,36.0,00111,kill,0.0,800.0,1.283805492
36,3_39_1,39,1.0,205.630632435,3_D,training,05,1_A,37.0,00001,ignore,1.0,900.0,1.94135275748
37,3_39_1,39,1.0,208.849509559,3_D,training,05,1_A,38.0,11010,kill,1.0,1000.0,0.974620556361
38,3_39_1,39,1.0,211.974636978,3_D,training,05,1_A,39.0,01000,kill,1.0,1100.0,0.85904742825
39,3_39_1,39,1.0,214.959225229,3_D,training,05,1_A,40.0,01111,kill,0.0,1000.0,0.789910705378
40,3_39_1,39,1.0,220.693867774,3_D,training,05,1_A,41.0,11001,ignore,1.0,1100.0,3.51951603309
41,3_39_1,39,1.0,223.694035681,3_D,training,05,1_A,42.0,00100,kill,1.0,1200.0,0.786956523523
42,3_39_1,39,1.0,226.928617672,3_D,training,05,1_A,43.0,10010,ignore,0.0,1100.0,1.00162775584
43,3_39_1,39,1.0,231.772578903,3_D,training,05,1_A,44.0,10111,kill,0.0,1000.0,2.61824424877
44,3_39_1,39,1.0,237.929185436,3_D,training,05,1_A,45.0,01110,ignore,0.0,900.0,3.93613490709
45,3_39_1,39,1.0,242.070092029,3_D,training,05,1_A,46.0,11111,kill,0.0,800.0,1.89209148768
46,3_39_1,39,1.0,247.226609066,3_D,training,05,1_A,47.0,10100,ignore,1.0,900.0,2.89975938772
47,3_39_1,39,1.0,250.070443854,3_D,training,05,1_A,48.0,00000,ignore,0.0,800.0,0.652533449047
48,3_39_1,39,1.0,252.851878324,3_D,training,05,1_A,49.0,10110,ignore,1.0,900.0,0.547862385047
49,3_39_1,39,1.0,256.586431783,3_D,training,05,1_A,50.0,01011,kill,0.0,800.0,1.50918583881
50,3_39_1,39,1.0,262.133648402,3_D,training,05,1_A,51.0,11100,ignore,1.0,900.0,3.38423659072
51,3_39_1,39,1.0,265.680729547,3_D,training,05,1_A,52.0,00010,kill,1.0,1000.0,1.36688467237
52,3_39_1,39,1.0,268.88399992,3_D,training,05,1_A,53.0,00011,kill,0.0,900.0,1.02416386103
53,3_39_1,39,1.0,273.681110519,3_D,training,05,1_A,54.0,01001,kill,0.0,800.0,2.63463182954
54,3_39_1,39,1.0,277.400091302,3_D,training,05,1_A,55.0,10000,ignore,0.0,700.0,1.48321071453
55,3_39_1,39,1.0,280.400224725,3_D,training,05,1_A,56.0,11000,kill,1.0,800.0,0.84212944128
56,3_39_1,39,1.0,283.853533174,3_D,training,05,1_A,57.0,10101,ignore,1.0,900.0,1.26999276234
57,3_39_1,39,1.0,286.978741468,3_D,training,05,1_A,58.0,01010,kill,1.0,1000.0,0.957862676525
58,3_39_1,39,1.0,290.900810758,3_D,training,05,1_A,59.0,11101,ignore,1.0,1100.0,1.77184076812
59,3_39_1,39,1.0,294.197830836,3_D,training,05,1_A,60.0,01101,ignore,1.0,1200.0,1.12000768514
60,3_39_1,39,1.0,297.823052061,3_D,training,05,1_A,61.0,01100,ignore,0.0,1100.0,1.44408053143
61,3_39_1,39,1.0,300.729535127,3_D,training,05,1_A,62.0,00101,ignore,1.0,1200.0,0.655323828993
62,3_39_1,39,1.0,305.557844038,3_D,training,05,1_A,63.0,10011,ignore,1.0,1300.0,2.58306583811
63,3_39_1,39,1.0,309.683068753,3_D,training,05,1_A,64.0,11110,kill,0.0,1200.0,1.91484147957
64,3_39_1,39,1.0,313.18327874,3_D,training,05,1_A,65.0,10010,ignore,0.0,1100.0,1.19300750574
65,3_39_1,39,1.0,317.31166167,3_D,training,05,1_A,66.0,10110,ignore,1.0,1200.0,1.90407078541
66,3_39_1,39,1.0,323.068821024,3_D,training,05,1_A,67.0,01001,kill,0.0,1100.0,3.50132909447
67,3_39_1,39,1.0,326.365894061,3_D,training,05,1_A,68.0,10000,ignore,0.0,1000.0,1.14784292587
68,3_39_1,39,1.0,329.006654709,3_D,training,05,1_A,69.0,11101,ignore,1.0,1100.0,0.45923446622
69,3_39_1,39,1.0,332.256861925,3_D,training,05,1_A,70.0,10111,ignore,1.0,1200.0,1.06265197349
70,3_39_1,39,1.0,335.772592451,3_D,training,05,1_A,71.0,01000,kill,1.0,1300.0,1.32362249366
71,3_39_1,39,1.0,340.49164056,3_D,training,05,1_A,72.0,10011,kill,0.0,1200.0,2.56817792747
72,3_39_1,39,1.0,343.726203667,3_D,training,05,1_A,73.0,01110,ignore,0.0,1100.0,1.06927425079
73,3_39_1,39,1.0,346.913853331,3_D,training,05,1_A,74.0,11100,kill,0.0,1000.0,0.99817313657
74,3_39_1,39,1.0,349.882722347,3_D,training,05,1_A,75.0,01011,ignore,1.0,1100.0,0.794393294549
75,3_39_1,39,1.0,353.164207106,3_D,training,05,1_A,76.0,11001,ignore,1.0,1200.0,1.10931868668
76,3_39_1,39,1.0,356.289353409,3_D,training,05,1_A,77.0,11110,ignore,1.0,1300.0,0.966994530496
77,3_39_1,39,1.0,359.492644719,3_D,training,05,1_A,78.0,00001,kill,0.0,1200.0,1.00856203679
78,3_39_1,39,1.0,362.914722426,3_D,training,05,1_A,79.0,11010,ignore,0.0,1100.0,1.26520638015
79,3_39_1,39,1.0,366.149270343,3_D,training,05,1_A,80.0,00111,ignore,1.0,1200.0,1.01672339522
80,3_39_1,39,1.0,369.821319209,3_D,training,05,1_A,81.0,10100,kill,0.0,1100.0,1.50078842499
81,3_39_1,39,1.0,373.118395529,3_D,training,05,1_A,82.0,01100,kill,1.0,1200.0,1.13114908889
82,3_39_1,39,1.0,377.649924934,3_D,training,05,1_A,83.0,00101,ignore,1.0,1300.0,2.30217758016
83,3_39_1,39,1.0,381.400085555,3_D,training,05,1_A,84.0,01111,kill,0.0,1200.0,1.56931263545
84,3_39_1,39,1.0,384.947175731,3_D,training,05,1_A,85.0,00011,ignore,1.0,1300.0,1.38880128611
85,3_39_1,39,1.0,389.978674551,3_D,training,05,1_A,86.0,00000,kill,1.0,1400.0,2.88900922012
86,3_39_1,39,1.0,393.744477228,3_D,training,05,1_A,87.0,10101,ignore,1.0,1500.0,1.6061417917
87,3_39_1,39,1.0,396.854022938,3_D,training,05,1_A,88.0,00100,kill,1.0,1600.0,0.919484175873
88,3_39_1,39,1.0,399.99484455,3_D,training,05,1_A,89.0,10001,ignore,1.0,1700.0,0.975552872504
89,3_39_1,39,1.0,403.682556,3_D,training,05,1_A,90.0,01010,kill,1.0,1800.0,1.55091796808
90,3_39_1,39,1.0,407.026456677,3_D,training,05,1_A,91.0,01101,kill,0.0,1700.0,1.19084236467
91,3_39_1,39,1.0,410.55793025,3_D,training,05,1_A,92.0,00010,ignore,0.0,1600.0,1.39223414724
92,3_39_1,39,1.0,413.542438038,3_D,training,05,1_A,93.0,11011,kill,0.0,1500.0,0.848762392397
93,3_39_1,39,1.0,416.964476743,3_D,training,05,1_A,94.0,11000,ignore,0.0,1400.0,1.29141099131
94,3_39_1,39,1.0,420.027153759,3_D,training,05,1_A,95.0,00110,ignore,0.0,1300.0,0.794197471212
95,3_39_1,39,1.0,423.230470111,3_D,training,05,1_A,96.0,11111,kill,0.0,1200.0,1.01140537525
96,3_39_1,39,1.0,426.496222087,3_D,training,05,1_A,97.0,11000,kill,1.0,1300.0,1.12130537398
97,3_39_1,39,1.0,430.262087165,3_D,training,05,1_A,98.0,00100,ignore,0.0,1200.0,1.59573359651
98,3_39_1,39,1.0,437.074995412,3_D,training,05,1_A,99.0,10111,ignore,1.0,1300.0,4.63487322184
99,3_39_1,39,1.0,441.106435116,3_D,training,05,1_A,100.0,11100,kill,0.0,1200.0,1.87855874023
100,3_39_1,39,1.0,444.106614108,3_D,training,05,1_A,101.0,11010,ignore,0.0,1100.0,0.850751826143
101,3_39_1,39,1.0,446.766158607,3_D,training,05,1_A,102.0,10010,ignore,0.0,1000.0,0.519220450689
102,3_39_1,39,1.0,450.016291516,3_D,training,05,1_A,103.0,10000,kill,1.0,1100.0,1.09755204406
103,3_39_1,39,1.0,453.500881205,3_D,training,05,1_A,104.0,01001,ignore,1.0,1200.0,1.29672367438
104,3_39_1,39,1.0,456.547899743,3_D,training,05,1_A,105.0,01110,ignore,0.0,1100.0,0.899371025287
105,3_39_1,39,1.0,460.829420219,3_D,training,05,1_A,106.0,10100,ignore,1.0,1200.0,2.14222727084
106,3_39_1,39,1.0,465.454625433,3_D,training,05,1_A,107.0,11111,ignore,1.0,1300.0,2.47879996831
107,3_39_1,39,1.0,469.282974988,3_D,training,05,1_A,108.0,00000,kill,1.0,1400.0,1.67907756944
108,3_39_1,39,1.0,474.142591001,3_D,training,05,1_A,109.0,00010,kill,1.0,1500.0,2.70283952052
109,3_39_1,39,1.0,478.611593234,3_D,training,05,1_A,110.0,01111,ignore,1.0,1600.0,2.29855628525
110,3_39_1,39,1.0,483.189983944,3_D,training,05,1_A,111.0,11011,ignore,1.0,1700.0,2.43228145684
111,3_39_1,39,1.0,486.752696881,3_D,training,05,1_A,112.0,00011,kill,0.0,1600.0,1.41009964
112,3_39_1,39,1.0,490.096586064,3_D,training,05,1_A,113.0,01000,ignore,0.0,1500.0,1.21378079035
113,3_39_1,39,1.0,493.115514422,3_D,training,05,1_A,114.0,00111,ignore,1.0,1600.0,0.843366371508
114,3_39_1,39,1.0,497.787697532,3_D,training,05,1_A,115.0,01101,kill,0.0,1500.0,2.48043552424
115,3_39_1,39,1.0,501.147189771,3_D,training,05,1_A,116.0,00101,ignore,1.0,1600.0,1.16762683051
116,3_39_1,39,1.0,506.81939546,3_D,training,05,1_A,117.0,10011,kill,0.0,1500.0,3.48582990301
117,3_39_1,39,1.0,511.397775907,3_D,training,05,1_A,118.0,10101,ignore,1.0,1600.0,2.42324033025
118,3_39_1,39,1.0,515.75742661,3_D,training,05,1_A,119.0,01010,kill,1.0,1700.0,2.19940275935
119,3_39_1,39,1.0,519.710690928,3_D,training,05,1_A,120.0,10001,ignore,1.0,1800.0,1.78174852589
120,3_39_1,39,1.0,524.445337988,3_D,training,05,1_A,121.0,11001,ignore,1.0,1900.0,2.62655914583
121,3_39_1,39,1.0,528.476829008,3_D,training,05,1_A,122.0,10110,ignore,1.0,2000.0,1.84902595336
122,3_39_1,39,1.0,532.961411307,3_D,training,05,1_A,123.0,11101,ignore,1.0,2100.0,2.32775613138
123,3_39_1,39,1.0,536.758514928,3_D,training,05,1_A,124.0,01011,kill,0.0,2000.0,1.66139640514
124,3_39_1,39,1.0,540.352440135,3_D,training,05,1_A,125.0,00001,ignore,1.0,2100.0,1.40002561714
125,3_39_1,39,1.0,544.649553814,3_D,training,05,1_A,126.0,00110,kill,1.0,2200.0,2.1341911244
126,3_39_1,39,1.0,548.509145607,3_D,training,05,1_A,127.0,01100,ignore,0.0,2100.0,1.68781695567
127,3_39_1,39,1.0,552.274983589,3_D,training,05,1_A,128.0,11110,ignore,1.0,2200.0,1.59795333821
128,3_39_1,39,1.0,555.931459368,3_D,training,05,1_A,129.0,00110,kill,1.0,2300.0,1.48755947056
129,3_39_1,39,1.0,559.712805984,3_D,training,05,1_A,130.0,10011,kill,0.0,2200.0,1.61824424877
130,3_39_1,39,1.0,562.869275811,3_D,training,05,1_A,131.0,10101,ignore,1.0,2300.0,0.970049702999
131,3_39_1,39,1.0,566.150705149,3_D,training,05,1_A,132.0,11100,ignore,1.0,2400.0,1.12922739277
132,3_39_1,39,1.0,569.80717477,3_D,training,05,1_A,133.0,00000,kill,1.0,2500.0,1.48947624031
133,3_39_1,39,1.0,573.057334364,3_D,training,05,1_A,134.0,00111,ignore,1.0,2600.0,1.08324955078
134,3_39_1,39,1.0,576.495001578,3_D,training,05,1_A,135.0,11001,kill,0.0,2500.0,1.26825046831
135,3_39_1,39,1.0,580.276460269,3_D,training,05,1_A,136.0,10010,ignore,0.0,2400.0,1.63990222791
136,3_39_1,39,1.0,583.057886528,3_D,training,05,1_A,137.0,11101,ignore,1.0,2500.0,0.610594412097
137,3_39_1,39,1.0,586.073631628,3_D,training,05,1_A,138.0,11110,ignore,1.0,2600.0,0.877510654307
138,3_39_1,39,1.0,589.136332455,3_D,training,05,1_A,139.0,01001,kill,0.0,2500.0,0.899653470693
139,3_39_1,39,1.0,592.386471522,3_D,training,05,1_A,140.0,01101,ignore,1.0,2600.0,1.07886425748
140,3_39_1,39,1.0,595.824170347,3_D,training,05,1_A,141.0,00011,kill,0.0,2500.0,1.30221493849
141,3_39_1,39,1.0,599.465025418,3_D,training,05,1_A,142.0,10100,ignore,1.0,2600.0,1.49000048853
142,3_39_1,39,1.0,602.262040364,3_D,training,05,1_A,143.0,01000,ignore,0.0,2500.0,0.625314826044
143,3_39_1,39,1.0,606.246624511,3_D,training,05,1_A,144.0,11000,kill,1.0,2600.0,1.8312832094
144,3_39_1,39,1.0,610.871837935,3_D,training,05,1_A,145.0,11111,ignore,1.0,2700.0,2.469914433
145,3_39_1,39,1.0,615.137734008,3_D,training,05,1_A,146.0,01100,kill,1.0,2800.0,2.14420931503
146,3_39_1,39,1.0,620.325454283,3_D,training,05,1_A,147.0,11011,ignore,1.0,2900.0,3.03301819597
147,3_39_1,39,1.0,624.185107245,3_D,training,05,1_A,148.0,00001,kill,0.0,2800.0,1.60665823983
148,3_39_1,39,1.0,627.779021778,3_D,training,05,1_A,149.0,00010,kill,1.0,2900.0,1.46101699229
149,3_39_1,39,1.0,631.216708288,3_D,training,05,1_A,150.0,10111,ignore,1.0,3000.0,1.25016164662
150,3_39_1,39,1.0,634.529432001,3_D,training,05,1_A,151.0,00100,ignore,0.0,2900.0,1.13261099016
151,3_39_1,39,1.0,637.779559985,3_D,training,05,1_A,152.0,01010,kill,1.0,3000.0,1.08178806003
152,3_39_1,39,1.0,642.357956442,3_D,training,05,1_A,153.0,00101,ignore,1.0,3100.0,2.37881963275
153,3_39_1,39,1.0,646.217494455,3_D,training,05,1_A,154.0,01011,kill,0.0,3000.0,1.706785135
154,3_39_1,39,1.0,651.874053982,3_D,training,05,1_A,155.0,10000,ignore,0.0,2900.0,3.47661389016
155,3_39_1,39,1.0,655.077386345,3_D,training,05,1_A,156.0,01111,ignore,1.0,3000.0,1.03854640787
156,3_39_1,39,1.0,658.343193333,3_D,training,05,1_A,157.0,01110,ignore,0.0,2900.0,1.13090933872
157,3_39_1,39,1.0,661.640208895,3_D,training,05,1_A,158.0,11010,kill,1.0,3000.0,1.14716431795
158,3_39_1,39,1.0,664.952896482,3_D,training,05,1_A,159.0,10110,ignore,1.0,3100.0,1.18209394676
159,3_39_1,39,1.0,670.578215824,3_D,training,05,1_A,160.0,10001,kill,0.0,3000.0,3.44334362809
160,3_39_1,39,1.0,674.812780162,3_D,training,05,1_A,161.0,10110,ignore,1.0,3100.0,2.05414002149
161,3_39_1,39,1.0,678.328622352,3_D,training,05,1_A,162.0,00010,ignore,0.0,3000.0,1.36480615337
162,3_39_1,39,1.0,681.125652077,3_D,training,05,1_A,163.0,01111,ignore,1.0,3100.0,0.626737726863
163,3_39_1,39,1.0,684.110155349,3_D,training,05,1_A,164.0,01101,ignore,1.0,3200.0,0.87466238948
164,3_39_1,39,1.0,688.17291365,3_D,training,05,1_A,165.0,11101,ignore,1.0,3300.0,1.9130154372
165,3_39_1,39,1.0,691.54806724,3_D,training,05,1_A,166.0,01110,ignore,0.0,3200.0,1.21199744321
166,3_39_1,39,1.0,695.50139519,3_D,training,05,1_A,167.0,00000,kill,1.0,3300.0,1.79599929224
167,3_39_1,39,1.0,698.595314444,3_D,training,05,1_A,168.0,11100,ignore,1.0,3400.0,0.945442468375
168,3_39_1,39,1.0,702.829926404,3_D,training,05,1_A,169.0,10001,ignore,1.0,3500.0,2.04791144351
169,3_39_1,39,1.0,706.267609219,3_D,training,05,1_A,170.0,10101,ignore,1.0,3600.0,1.25602690457
170,3_39_1,39,1.0,712.47107131,3_D,training,05,1_A,171.0,00111,ignore,1.0,3700.0,4.02337892555
171,3_39_1,39,1.0,715.924400696,3_D,training,05,1_A,172.0,11000,kill,1.0,3800.0,1.30296621042
172,3_39_1,39,1.0,721.205908446,3_D,training,05,1_A,173.0,00011,ignore,1.0,3900.0,3.02035043756
173,3_39_1,39,1.0,724.909296846,3_D,training,05,1_A,174.0,10010,kill,1.0,4000.0,1.52219310644
174,3_39_1,39,1.0,728.362528527,3_D,training,05,1_A,175.0,00101,ignore,1.0,4100.0,1.2375160569
175,3_39_1,39,1.0,732.269060036,3_D,training,05,1_A,176.0,11001,kill,0.0,4000.0,1.73976802529
176,3_39_1,39,1.0,735.30344489,3_D,training,05,1_A,177.0,01100,ignore,0.0,3900.0,0.819259984833
177,3_39_1,39,1.0,738.647387031,3_D,training,05,1_A,178.0,00001,ignore,1.0,4000.0,1.15511958977
178,3_39_1,39,1.0,742.288229375,3_D,training,05,1_A,179.0,00110,ignore,0.0,3900.0,1.48652821642
179,3_39_1,39,1.0,745.288326671,3_D,training,05,1_A,180.0,10011,ignore,1.0,4000.0,0.840346094144
180,3_39_1,39,1.0,748.526082889,3_D,training,05,1_A,181.0,01000,kill,1.0,4100.0,1.02003720233
181,3_39_1,39,1.0,751.948101889,3_D,training,05,1_A,182.0,00100,ignore,0.0,4000.0,1.24774772371
182,3_39_1,39,1.0,754.995164354,3_D,training,05,1_A,183.0,01011,ignore,1.0,4100.0,0.888514119601
183,3_39_1,39,1.0,758.151601338,3_D,training,05,1_A,184.0,11011,ignore,1.0,4200.0,0.999886282883
184,3_39_1,39,1.0,761.120604187,3_D,training,05,1_A,185.0,11110,ignore,1.0,4300.0,0.850623740436
185,3_39_1,39,1.0,765.073771619,3_D,training,05,1_A,186.0,01001,kill,0.0,4200.0,1.82275647829
186,3_39_1,39,1.0,768.527137543,3_D,training,05,1_A,187.0,11111,ignore,1.0,4300.0,1.22877543907
187,3_39_1,39,1.0,772.418019606,3_D,training,05,1_A,188.0,11010,ignore,0.0,4200.0,1.769193253
188,3_39_1,39,1.0,776.449406351,3_D,training,05,1_A,189.0,01010,kill,1.0,4300.0,1.88989760944
189,3_39_1,39,1.0,779.887125293,3_D,training,05,1_A,190.0,10111,ignore,1.0,4400.0,1.30399212765
190,3_39_1,39,1.0,784.059307787,3_D,training,05,1_A,191.0,10000,ignore,0.0,4300.0,2.009937316
191,3_39_1,39,1.0,787.325013373,3_D,training,05,1_A,192.0,10100,ignore,1.0,4400.0,0.988974366024
192,3_39_1,39,1.0,791.075164962,3_D,training,05,1_A,193.0,10001,kill,0.0,4300.0,1.48792566431
193,3_39_1,39,1.0,794.278618021,3_D,training,05,1_A,194.0,11101,ignore,1.0,4400.0,0.957225942777
194,3_39_1,39,1.0,800.341378375,3_D,training,05,1_A,195.0,10011,kill,0.0,4300.0,3.79755643674
195,3_39_1,39,1.0,804.372799605,3_D,training,05,1_A,196.0,11011,ignore,1.0,4400.0,1.75239185687
196,3_39_1,39,1.0,807.533905148,3_D,training,05,1_A,197.0,00110,ignore,0.0,4300.0,1.00609269218
197,3_39_1,39,1.0,811.693608729,3_D,training,05,1_A,198.0,10000,ignore,0.0,4200.0,2.01997315948
198,3_39_1,39,1.0,814.568763755,3_D,training,05,1_A,199.0,01101,ignore,1.0,4300.0,0.697489068581
199,3_39_1,39,1.0,819.001146203,3_D,training,05,1_A,200.0,10010,ignore,0.0,4200.0,2.29148037107
200,3_39_1,39,1.0,822.204449829,3_D,training,05,1_A,201.0,01010,ignore,0.0,4100.0,1.02072032609
201,3_39_1,39,1.0,824.985936025,3_D,training,05,1_A,202.0,11110,ignore,1.0,4200.0,0.626750042797
202,3_39_1,39,1.0,828.142349199,3_D,training,05,1_A,203.0,01110,ignore,0.0,4100.0,0.990531510521
203,3_39_1,39,1.0,832.097466654,3_D,training,05,1_A,204.0,01001,kill,0.0,4000.0,1.76979221789
204,3_39_1,39,1.0,835.242749507,3_D,training,05,1_A,205.0,00010,kill,1.0,4100.0,0.976231069897
205,3_39_1,39,1.0,838.586674407,3_D,training,05,1_A,206.0,00111,ignore,1.0,4200.0,1.17452498472
206,3_39_1,39,1.0,841.758682015,3_D,training,05,1_A,207.0,00100,ignore,0.0,4100.0,0.96319875987
207,3_39_1,39,1.0,1016.26342385,3_D,test,05,2,0.0,01100,ignore,1.0,100.0,8.51358016379
208,3_39_1,39,1.0,1022.76515527,3_D,test,05,2,1.0,01111,ignore,0.0,0.0,4.18873880328
209,3_39_1,39,1.0,1031.67936576,3_D,test,05,2,2.0,11010,ignore,1.0,100.0,6.65947840381
210,3_39_1,39,1.0,1039.32038956,3_D,test,05,2,3.0,10100,kill,1.0,200.0,5.51730327041
211,3_39_1,39,1.0,1045.44573497,3_D,test,05,2,4.0,10101,kill,1.0,300.0,3.83689681177
212,3_39_1,39,1.0,1050.85223384,3_D,test,05,2,5.0,00001,kill,0.0,200.0,3.01941976354
213,3_39_1,39,1.0,1066.18121295,3_D,test,05,2,6.0,11100,ignore,1.0,300.0,12.9278372523
214,3_39_1,39,1.0,1071.25965682,3_D,test,05,2,7.0,10111,ignore,0.0,200.0,2.8023793562
215,3_39_1,39,1.0,1078.85380166,3_D,test,05,2,8.0,00101,kill,1.0,300.0,5.46654848844
216,3_39_1,39,1.0,1084.7916296,3_D,test,05,2,9.0,01011,kill,0.0,200.0,3.80346028461
217,3_39_1,39,1.0,1094.46400196,3_D,test,05,2,10.0,00000,ignore,1.0,300.0,7.48546658297
218,3_39_1,39,1.0,1101.9019233,3_D,test,05,2,11.0,11111,kill,1.0,400.0,5.15839850173
219,3_39_1,39,1.0,1106.23027593,3_D,test,05,2,12.0,01000,ignore,1.0,500.0,2.11393593005
220,3_39_1,39,1.0,1118.82467612,3_D,test,05,2,13.0,00011,kill,0.0,400.0,10.4396722484
221,3_39_1,39,1.0,1130.85657562,3_D,test,05,2,14.0,11001,kill,0.0,300.0,9.7626329659
222,3_39_1,39,1.0,1136.18497875,3_D,test,05,2,15.0,11000,ignore,1.0,400.0,3.20124481243
223,3_39_1,39,1.0,1142.16966922,3_D,test,05,2,16.0,10110,kill,1.0,500.0,3.79154995609
224,3_39_1,39,1.0,1148.16996604,3_D,test,05,2,17.0,00100,ignore,0.0,400.0,3.72206920816
225,3_39_1,39,1.0,1170.49934623,3_D,test,05,2,18.0,11100,ignore,1.0,500.0,20.1950425084
226,3_39_1,39,1.0,1175.31204593,3_D,test,05,2,19.0,10011,kill,0.0,400.0,2.50886849827
227,3_39_1,39,1.0,1184.6563596,3_D,test,05,2,20.0,11000,ignore,1.0,500.0,7.03974967455
228,3_39_1,39,1.0,1191.01604807,3_D,test,05,2,21.0,00010,ignore,1.0,600.0,3.87205387482
229,3_39_1,39,1.0,1198.21957913,3_D,test,05,2,22.0,00101,ignore,0.0,500.0,4.93774706276
230,3_39_1,39,1.0,1205.70435931,3_D,test,05,2,23.0,01010,ignore,1.0,600.0,5.19200868355
231,3_39_1,39,1.0,1210.12643701,3_D,test,05,2,24.0,10010,kill,0.0,500.0,2.27761057758
232,3_39_1,39,1.0,1218.7050646,3_D,test,05,2,25.0,01001,ignore,1.0,600.0,5.8722357401
233,3_39_1,39,1.0,1223.90842611,3_D,test,05,2,26.0,00011,ignore,1.0,700.0,2.96689189771
234,3_39_1,39,1.0,1229.00249316,3_D,test,05,2,27.0,00001,ignore,1.0,800.0,2.92645458356
235,3_39_1,39,1.0,1233.44019814,3_D,test,05,2,28.0,01101,kill,0.0,700.0,2.29857886446
236,3_39_1,39,1.0,1241.08128598,3_D,test,05,2,29.0,10110,kill,1.0,800.0,5.43413007842
237,3_39_1,39,1.0,1248.39419649,3_D,test,05,2,30.0,11110,ignore,0.0,700.0,5.07602543486
238,3_39_1,39,1.0,1255.03511232,3_D,test,05,2,31.0,00000,ignore,1.0,800.0,4.34896991587
239,3_39_1,39,1.0,1258.14475368,3_D,test,05,2,32.0,10101,ignore,0.0,700.0,0.931681055095
240,3_39_1,39,1.0,1264.16062522,3_D,test,05,2,33.0,11010,kill,0.0,600.0,3.80334451483
241,3_39_1,39,1.0,1270.28597433,3_D,test,05,2,34.0,11111,ignore,0.0,500.0,3.84019830295
242,3_39_1,39,1.0,1275.38001838,3_D,test,05,2,35.0,10111,kill,1.0,600.0,2.8502312727
243,3_39_1,39,1.0,1280.38023597,3_D,test,05,2,36.0,10001,ignore,1.0,700.0,2.66845836127
244,3_39_1,39,1.0,1287.48997873,3_D,test,05,2,37.0,10000,ignore,1.0,800.0,4.91053418718
245,3_39_1,39,1.0,1291.47459777,3_D,test,05,2,38.0,11101,kill,0.0,700.0,1.68001809621
246,3_39_1,39,1.0,1295.75610142,3_D,test,05,2,39.0,00111,kill,1.0,800.0,2.08594263485
247,3_39_1,39,1.0,1299.72500081,3_D,test,05,2,40.0,00110,kill,1.0,900.0,1.77681188931
248,3_39_1,39,1.0,1303.1782912,3_D,test,05,2,41.0,01011,ignore,1.0,1000.0,1.32794087038
249,3_39_1,39,1.0,1307.67854265,3_D,test,05,2,42.0,01000,kill,0.0,900.0,2.30965170951
250,3_39_1,39,1.0,1311.94443831,3_D,test,05,2,43.0,01100,ignore,1.0,1000.0,1.88869844807
251,3_39_1,39,1.0,1315.72589454,3_D,test,05,2,44.0,01111,ignore,0.0,900.0,1.3564793509
252,3_39_1,39,1.0,1319.96052702,3_D,test,05,2,45.0,01110,ignore,0.0,800.0,1.80068961016
253,3_39_1,39,1.0,1327.50783068,3_D,test,05,2,46.0,11001,ignore,1.0,900.0,5.39778534888
254,3_39_1,39,1.0,1331.25801839,3_D,test,05,2,47.0,10100,ignore,0.0,800.0,1.49904530991
255,3_39_1,39,1.0,1337.57077741,3_D,test,05,2,48.0,11011,ignore,1.0,900.0,3.97779847767
256,3_39_1,39,1.0,1341.43040861,3_D,test,05,2,49.0,00111,kill,1.0,1000.0,1.54193801063
257,3_39_1,39,1.0,1346.71193689,3_D,test,05,2,50.0,10100,ignore,0.0,900.0,3.05666191408
258,3_39_1,39,1.0,1351.14972152,3_D,test,05,2,51.0,00011,kill,0.0,800.0,2.22349395636
259,3_39_1,39,1.0,1355.75933886,3_D,test,05,2,52.0,01100,ignore,1.0,900.0,2.28457113252
260,3_39_1,39,1.0,1363.00969551,3_D,test,05,2,53.0,00001,ignore,1.0,1000.0,4.94693064364
261,3_39_1,39,1.0,1367.66617663,3_D,test,05,2,54.0,00101,ignore,0.0,900.0,2.46393668954
262,3_39_1,39,1.0,1372.04139549,3_D,test,05,2,55.0,10011,kill,0.0,800.0,2.20990660828
263,3_39_1,39,1.0,1385.87031897,3_D,test,05,2,56.0,11101,kill,0.0,700.0,11.6114204007
264,3_39_1,39,1.0,1389.40172768,3_D,test,05,2,57.0,10001,ignore,1.0,800.0,1.39769174779
265,3_39_1,39,1.0,1394.01137376,3_D,test,05,2,58.0,01111,ignore,0.0,700.0,2.45918068665
266,3_39_1,39,1.0,1398.13659191,3_D,test,05,2,59.0,11001,ignore,1.0,800.0,2.00390250872
267,3_39_1,39,1.0,1402.08993874,3_D,test,05,2,60.0,00110,kill,1.0,900.0,1.63689755073
268,3_39_1,39,1.0,1406.19949102,3_D,test,05,2,61.0,00010,kill,0.0,800.0,1.92900028696
269,3_39_1,39,1.0,1410.826597,3_D,test,05,2,62.0,00000,ignore,1.0,900.0,2.47189031923
270,3_39_1,39,1.0,1415.2825739,3_D,test,05,2,63.0,01110,kill,1.0,1000.0,2.25357644438
271,3_39_1,39,1.0,1419.23592771,3_D,test,05,2,64.0,01010,ignore,1.0,1100.0,1.8673528831
272,3_39_1,39,1.0,1422.64234981,3_D,test,05,2,65.0,11111,kill,1.0,1200.0,1.19731520866
273,3_39_1,39,1.0,1426.12691487,3_D,test,05,2,66.0,01011,ignore,1.0,1300.0,1.30742006241
274,3_39_1,39,1.0,1429.31645955,3_D,test,05,3,0.0,10010,ignore,0.0,1200.0,1.0475813765
275,3_39_1,39,1.0,1432.53535843,3_D,test,05,3,1.0,11110,kill,1.0,1300.0,1.07530248959
276,3_39_1,39,1.0,1436.66056754,3_D,test,05,3,2.0,10000,ignore,0.0,1200.0,2.00561154972
277,3_39_1,39,1.0,1440.08260748,3_D,test,05,3,3.0,01101,kill,0.0,1100.0,1.21255001808
278,3_39_1,39,1.0,1443.92660155,3_D,test,05,3,4.0,10101,kill,0.0,1000.0,1.64785257335
279,3_39_1,39,1.0,1446.86424024,3_D,test,05,3,5.0,00100,ignore,1.0,1100.0,0.799602523781
280,3_39_1,39,1.0,1449.92692177,3_D,test,05,3,6.0,10110,ignore,0.0,1000.0,0.911031750886
281,3_39_1,39,1.0,1453.6770947,3_D,test,05,3,7.0,01001,kill,0.0,900.0,1.62115573539
282,3_39_1,39,1.0,1458.41171672,3_D,test,05,3,8.0,11010,ignore,0.0,800.0,2.54578879242
283,3_39_1,39,1.0,1463.2401061,3_D,test,05,3,9.0,11000,ignore,0.0,700.0,2.6869581246
284,3_39_1,39,1.0,1468.11537525,3_D,test,05,3,10.0,01000,kill,0.0,600.0,2.76709954436
285,3_39_1,39,1.0,1474.05321345,3_D,test,05,3,11.0,10111,kill,0.0,500.0,3.78238525963
286,3_39_1,39,1.0,1479.77226444,3_D,test,05,3,12.0,11011,ignore,0.0,400.0,3.62168573105
287,3_39_1,39,1.0,1484.70999672,3_D,test,05,3,13.0,11100,ignore,0.0,300.0,2.80423700946
288,3_39_1,39,1.0,1489.68181828,3_D,test,05,3,14.0,11010,kill,1.0,400.0,2.82418307388
289,3_39_1,39,1.0,1494.32898444,3_D,test,05,3,15.0,01101,kill,0.0,300.0,2.53820587232
290,3_39_1,39,1.0,1498.75419039,3_D,test,05,3,16.0,10101,ignore,1.0,400.0,2.32683736277
291,3_39_1,39,1.0,1504.02014353,3_D,test,05,3,17.0,11111,kill,0.0,300.0,3.15987271893
292,3_39_1,39,1.0,1508.46069144,3_D,test,05,3,18.0,10001,ignore,0.0,200.0,2.33549135852
293,3_39_1,39,1.0,1513.13556805,3_D,test,05,3,19.0,00010,ignore,1.0,300.0,2.53740821038
294,3_39_1,39,1.0,1517.83895563,3_D,test,05,3,20.0,00111,ignore,1.0,400.0,2.59127892346
295,3_39_1,39,1.0,1521.24544013,3_D,test,05,3,21.0,00011,ignore,1.0,500.0,1.2310218653
296,3_39_1,39,1.0,1524.51120483,3_D,test,05,3,22.0,01111,ignore,1.0,600.0,1.13434055772
297,3_39_1,39,1.0,1527.42078043,3_D,test,05,3,23.0,01010,ignore,1.0,700.0,0.823885849361
298,3_39_1,39,1.0,1530.51784722,3_D,test,05,3,24.0,01110,ignore,1.0,800.0,0.980125778518
299,3_39_1,39,1.0,1533.92743206,3_D,test,05,3,25.0,10100,kill,1.0,900.0,1.33244932301
300,3_39_1,39,1.0,1537.21220722,3_D,test,05,3,26.0,00101,ignore,1.0,1000.0,1.11826580165
301,3_39_1,39,1.0,1540.30609405,3_D,test,05,3,27.0,10000,kill,1.0,1100.0,0.963314119108
302,3_39_1,39,1.0,1543.39997184,3_D,test,05,3,28.0,00110,ignore,1.0,1200.0,0.969508212471
303,3_39_1,39,1.0,1546.47834223,3_D,test,05,4,0.0,00000,ignore,1.0,1300.0,0.932133870912
304,3_39_1,39,1.0,1549.27530503,3_D,test,05,4,1.0,01011,ignore,0.0,1200.0,0.704925018548
305,3_39_1,39,1.0,1554.61937034,3_D,test,05,4,2.0,10111,kill,1.0,1300.0,3.22967696538
306,3_39_1,39,1.0,1558.32262696,3_D,test,05,4,3.0,10011,kill,1.0,1400.0,1.52128090632
307,3_39_1,39,1.0,1562.21354268,3_D,test,05,4,4.0,11100,ignore,1.0,1500.0,1.78770615333
308,3_39_1,39,1.0,1565.41684672,3_D,test,05,4,5.0,01100,ignore,1.0,1600.0,1.09094290374
309,3_39_1,39,1.0,1568.96388106,3_D,test,05,4,6.0,11000,ignore,1.0,1700.0,1.42128866536
310,3_39_1,39,1.0,1573.44848348,3_D,test,05,4,7.0,11011,kill,0.0,1600.0,2.35749295221
311,3_39_1,39,1.0,1580.1988157,3_D,test,05,4,8.0,00100,kill,0.0,1500.0,4.57902662253
312,3_39_1,39,1.0,1584.41780038,3_D,test,05,4,9.0,01001,ignore,1.0,1600.0,2.11651776019
313,3_39_1,39,1.0,1587.58983303,3_D,test,05,4,10.0,01000,ignore,1.0,1700.0,1.00626388365
314,3_39_1,39,1.0,1591.59009865,3_D,test,05,4,11.0,11101,ignore,1.0,1800.0,1.78112328701
315,3_39_1,39,1.0,1595.01209876,3_D,test,05,4,12.0,11001,ignore,1.0,1900.0,1.30085238574
316,3_39_1,39,1.0,1598.59043364,3_D,test,05,4,13.0,10010,kill,1.0,2000.0,1.45124019395
317,3_39_1,39,1.0,1601.80937316,3_D,test,05,4,14.0,10110,kill,1.0,2100.0,1.11988083103
318,3_39_1,39,1.0,1606.79400124,3_D,test,05,4,15.0,00001,ignore,1.0,2200.0,2.8044697806
319,3_39_1,39,1.0,1610.82544546,3_D,test,05,4,16.0,11110,kill,0.0,2100.0,1.86773837181
320,3_39_1,39,1.0,1614.04438334,3_D,test,05,4,17.0,11000,ignore,1.0,2200.0,1.11486249876
321,3_39_1,39,1.0,1617.20084372,3_D,test,05,4,18.0,01001,ignore,1.0,2300.0,1.0080131567
322,3_39_1,39,1.0,1620.43533704,3_D,test,05,4,19.0,01010,ignore,0.0,2200.0,1.13947055445
323,3_39_1,39,1.0,1624.06059152,3_D,test,05,4,20.0,00101,ignore,1.0,2300.0,1.48568005915
324,3_39_1,39,1.0,1628.8889267,3_D,test,05,4,21.0,00000,kill,0.0,2200.0,2.69299826879
325,3_39_1,39,1.0,1632.98292232,3_D,test,05,4,22.0,00110,ignore,0.0,2100.0,2.00293201318
326,3_39_1,39,1.0,1636.3268468,3_D,test,05,4,23.0,10001,ignore,1.0,2200.0,1.21215139238
327,3_39_1,39,1.0,1639.92078515,3_D,test,05,4,24.0,00100,ignore,1.0,2300.0,1.4956337964
328,3_39_1,39,1.0,1643.45222547,3_D,test,05,4,25.0,01111,ignore,0.0,2200.0,1.42789657407
329,3_39_1,39,1.0,1647.03058621,3_D,test,05,4,26.0,01011,kill,1.0,2300.0,1.46062739827
330,3_39_1,39,1.0,1650.20259546,3_D,test,05,4,27.0,10110,ignore,0.0,2200.0,1.08262636455
331,3_39_1,39,1.0,1654.67159975,3_D,test,05,4,28.0,11110,kill,0.0,2100.0,2.37414819927
332,3_39_1,39,1.0,1658.78120129,3_D,test,05,4,29.0,00111,kill,1.0,2200.0,1.95203313479
333,3_39_1,39,1.0,1662.0469664,3_D,test,05,4,30.0,10010,kill,1.0,2300.0,1.15948394598
334,3_39_1,39,1.0,1665.40653295,3_D,test,05,4,31.0,01100,ignore,1.0,2400.0,1.21582071942
335,3_39_1,39,1.0,1668.5785734,3_D,test,05,4,32.0,11100,ignore,1.0,2500.0,1.08083152255
336,3_39_1,39,1.0,1672.01626565,3_D,test,05,4,33.0,10011,kill,1.0,2600.0,1.2815738449
337,3_39_1,39,1.0,1675.71961587,3_D,test,05,4,34.0,11011,kill,0.0,2500.0,1.56696809229
338,3_39_1,39,1.0,1679.11037621,3_D,test,05,4,35.0,01110,ignore,0.0,2400.0,1.29701145669
339,3_39_1,39,1.0,1683.78252197,3_D,test,05,4,36.0,10000,ignore,1.0,2500.0,2.5382518518
340,3_39_1,39,1.0,1688.22027375,3_D,test,05,4,37.0,00011,kill,1.0,2600.0,2.33367065306
341,3_39_1,39,1.0,1692.0173277,3_D,test,05,4,38.0,01101,ignore,1.0,2700.0,1.63123345303
342,3_39_1,39,1.0,1695.33001405,3_D,test,05,4,39.0,00010,kill,1.0,2800.0,1.18309892691
343,3_39_1,39,1.0,1698.47082745,3_D,test,05,4,40.0,11101,ignore,1.0,2900.0,1.02462283481
344,3_39_1,39,1.0,1706.42436519,3_D,test,05,4,41.0,10101,ignore,1.0,3000.0,5.79939110026
345,3_39_1,39,1.0,1710.47144695,3_D,test,05,4,42.0,00001,ignore,1.0,3100.0,1.95626899476
346,3_39_1,39,1.0,1713.51852501,3_D,test,05,4,43.0,01000,ignore,1.0,3200.0,0.937599271554
347,3_39_1,39,1.0,1716.59677101,3_D,test,05,4,44.0,11001,ignore,1.0,3300.0,0.960027407058
348,3_39_1,39,1.0,1720.15948312,3_D,test,05,4,45.0,11010,kill,0.0,3200.0,1.50171458317
349,3_39_1,39,1.0,1724.09720063,3_D,test,05,4,46.0,10100,ignore,1.0,3300.0,1.82534241373
350,3_39_1,39,1.0,1727.30051945,3_D,test,05,4,47.0,11111,ignore,1.0,3400.0,1.05803678277
351,3_39_1,39,1.0,1730.89447585,3_D,test,05,4,48.0,10111,kill,1.0,3500.0,1.45851398413
352,3_39_1,39,1.0,1733.92586096,3_D,test,05,4,49.0,01100,ignore,1.0,3600.0,0.885796814197
353,3_39_1,39,1.0,1737.33228757,3_D,test,05,4,50.0,01010,ignore,0.0,3500.0,1.32145078409
354,3_39_1,39,1.0,1742.94198744,3_D,test,05,4,51.0,11101,ignore,1.0,3600.0,3.45299931975
355,3_39_1,39,1.0,1748.33290255,3_D,test,05,4,52.0,10011,kill,1.0,3700.0,2.95925150326
356,3_39_1,39,1.0,1751.27249331,3_D,test,05,4,53.0,11100,ignore,1.0,3800.0,0.834622469432
357,3_39_1,39,1.0,1754.64764115,3_D,test,05,4,54.0,10111,kill,1.0,3900.0,1.22727166363
358,3_39_1,39,1.0,1758.98236892,3_D,test,05,4,55.0,11110,ignore,1.0,4000.0,2.25881276867
359,3_39_1,39,1.0,1762.71693141,3_D,test,05,4,56.0,01000,ignore,1.0,4100.0,1.53508706749
360,3_39_1,39,1.0,1767.07652136,3_D,test,05,4,57.0,01011,kill,1.0,4200.0,2.2130939718
361,3_39_1,39,1.0,1770.48297753,3_D,test,05,4,58.0,00000,ignore,1.0,4300.0,1.31206440084
362,3_39_1,39,1.0,1773.70188052,3_D,test,05,4,59.0,11000,ignore,1.0,4400.0,1.09653803222
363,3_39_1,39,1.0,1776.79578253,3_D,test,05,4,60.0,01001,ignore,1.0,4500.0,1.00147832252
364,3_39_1,39,1.0,1780.01474258,3_D,test,05,5,0.0,11001,ignore,1.0,4600.0,1.12628511632
365,3_39_1,39,1.0,1783.43680756,3_D,test,05,5,1.0,10101,ignore,0.0,4500.0,1.25489589136
366,3_39_1,39,1.0,1790.35902464,3_D,test,05,5,2.0,00101,kill,1.0,4600.0,4.82995924658
367,3_39_1,39,1.0,1798.0313186,3_D,test,05,5,3.0,11011,ignore,1.0,4700.0,5.51481257818
368,3_39_1,39,1.0,1802.29720359,3_D,test,05,5,4.0,01111,kill,1.0,4800.0,2.2187712065
369,3_39_1,39,1.0,1805.78172513,3_D,test,05,5,5.0,01101,ignore,1.0,4900.0,1.35464222419
370,3_39_1,39,1.0,1809.86008197,3_D,test,05,5,6.0,11010,ignore,1.0,5000.0,1.94671716747
371,3_39_1,39,1.0,1813.70926269,3_D,test,05,5,7.0,01110,kill,1.0,5100.0,1.77088340958
372,3_39_1,39,1.0,1817.27193088,3_D,test,05,5,8.0,10110,kill,1.0,5200.0,1.44594311106
373,3_39_1,39,1.0,1823.5242552,3_D,test,05,5,9.0,10001,ignore,1.0,5300.0,4.10872423763
374,3_39_1,39,1.0,1828.39953052,3_D,test,05,5,10.0,11111,ignore,0.0,5200.0,2.74430152032
375,3_39_1,39,1.0,1834.41546405,3_D,test,05,5,11.0,00111,kill,1.0,5300.0,3.84874720274
376,3_39_1,39,1.0,1837.71254858,3_D,test,05,5,12.0,00011,kill,0.0,5200.0,1.19881857358
377,3_39_1,39,1.0,1841.90313149,3_D,test,05,5,13.0,10010,ignore,1.0,5300.0,2.0084565303
378,3_39_1,39,1.0,1845.82526277,3_D,test,05,5,14.0,00110,kill,1.0,5400.0,1.75842091673
379,3_39_1,39,1.0,1849.16991308,3_D,test,05,5,15.0,00010,ignore,1.0,5500.0,1.2149323301
380,3_39_1,39,1.0,1854.7171728,3_D,test,05,5,16.0,00100,kill,1.0,5600.0,3.38970445455
381,3_39_1,39,1.0,1857.89547057,3_D,test,05,5,17.0,10000,ignore,1.0,5700.0,1.07503153905
382,3_39_1,39,1.0,1861.27077318,3_D,test,05,5,18.0,00001,ignore,1.0,5800.0,1.19190440865
383,3_39_1,39,1.0,1864.45847991,3_D,test,05,5,19.0,10100,kill,1.0,5900.0,1.05574068228
384,3_39_1,39,1.0,1867.62110442,3_D,test,05,5,20.0,10001,ignore,1.0,6000.0,1.03514679976
385,3_39_1,39,1.0,1870.79322944,3_D,test,05,5,21.0,10100,kill,1.0,6100.0,1.01855846928
386,3_39_1,39,1.0,1873.79344497,3_D,test,05,5,22.0,11110,kill,1.0,6200.0,0.923388737243
387,3_39_1,39,1.0,1877.78361234,3_D,test,05,6,0.0,11111,kill,0.0,6100.0,1.87316066669
388,3_39_1,39,1.0,1881.12749741,3_D,test,05,6,1.0,00000,ignore,1.0,6200.0,1.17437924617
389,3_39_1,39,1.0,1885.24049651,3_D,test,05,6,2.0,11010,ignore,0.0,6100.0,2.07262993207
390,3_39_1,39,1.0,1890.52524746,3_D,test,05,6,3.0,10011,ignore,0.0,6000.0,3.20294646387
391,3_39_1,39,1.0,1895.65368499,3_D,test,05,6,4.0,10111,kill,0.0,5900.0,2.9693119786
392,3_39_1,39,1.0,1900.68830877,3_D,test,05,6,5.0,10101,ignore,1.0,6000.0,2.91273052861
393,3_39_1,39,1.0,1904.62628778,3_D,test,05,6,6.0,10000,ignore,0.0,5900.0,1.7751225538
394,3_39_1,39,1.0,1907.86054464,3_D,test,05,6,7.0,00010,kill,0.0,5800.0,1.1178335124
395,3_39_1,39,1.0,1916.07976291,3_D,test,05,6,8.0,01111,kill,0.0,5700.0,6.04668723975
396,3_39_1,39,1.0,1920.89577641,3_D,test,05,6,9.0,11001,ignore,0.0,5600.0,2.54110134822
397,3_39_1,39,1.0,1928.55245992,3_D,test,05,6,10.0,00001,kill,0.0,5500.0,5.50410962166
398,3_39_1,39,1.0,1931.38073271,3_D,test,05,6,11.0,11000,kill,1.0,5600.0,0.586841903238
399,3_39_1,39,1.0,1934.4645919,3_D,test,05,6,12.0,01100,kill,0.0,5500.0,0.904704234916
400,3_39_1,39,1.0,1941.07429669,3_D,test,05,6,13.0,00110,ignore,1.0,5600.0,4.43391947597
401,3_39_1,39,1.0,1945.10580865,3_D,test,05,6,14.0,01001,kill,0.0,5500.0,1.88901045171
402,3_39_1,39,1.0,1948.43413747,3_D,test,05,6,15.0,11100,ignore,0.0,5400.0,1.21789882789
403,3_39_1,39,1.0,1972.98231596,3_D,test,05,6,16.0,00101,ignore,1.0,5500.0,22.3794391242
404,3_39_1,39,1.0,1976.98569381,3_D,test,05,6,17.0,00011,kill,0.0,5400.0,1.91872756704
405,3_39_1,39,1.0,1981.47343884,3_D,test,05,6,18.0,01010,ignore,1.0,5500.0,2.40462438661
406,3_39_1,39,1.0,1986.1792658,3_D,test,05,6,19.0,10010,kill,1.0,5600.0,2.58083295941
407,3_39_1,39,1.0,1989.97945579,3_D,test,05,6,20.0,00100,ignore,1.0,5700.0,1.72644218552
408,3_39_1,39,1.0,1993.04216442,3_D,test,05,6,21.0,01101,ignore,1.0,5800.0,0.970709837024
409,3_39_1,39,1.0,1996.24543972,3_D,test,05,6,22.0,01000,ignore,1.0,5900.0,1.13799592671
410,3_39_1,39,1.0,1999.46436611,3_D,test,05,6,23.0,01110,ignore,1.0,6000.0,1.08040169648
411,3_39_1,39,1.0,2002.73019937,3_D,test,05,6,24.0,11101,kill,0.0,5900.0,1.12080329443
412,3_39_1,39,1.0,2008.82741601,3_D,test,05,6,25.0,00111,ignore,1.0,6000.0,4.01732277064
413,3_39_1,39,1.0,2015.34618775,3_D,test,05,6,26.0,10110,kill,1.0,6100.0,4.42087115522
414,3_39_1,39,1.0,2020.38089446,3_D,test,05,6,27.0,11011,kill,1.0,6200.0,2.91974568419
415,3_39_1,39,1.0,2024.17791269,3_D,test,05,6,28.0,01011,ignore,1.0,6300.0,1.65518876426
416,3_39_1,39,1.0,2028.06870854,3_D,test,05,6,29.0,11100,kill,1.0,6400.0,1.67377391805
417,3_39_1,39,1.0,2032.14710233,3_D,test,05,6,30.0,00001,ignore,1.0,6500.0,1.83352511978
418,3_39_1,39,1.0,2035.5098197,3_D,test,05,6,31.0,11110,kill,1.0,6600.0,1.18780320288
419,3_39_1,39,1.0,2039.63824081,3_D,test,05,6,32.0,00010,ignore,1.0,6700.0,1.97672247563
420,3_39_1,39,1.0,2043.62592734,3_D,test,05,6,33.0,10110,kill,1.0,6800.0,1.90145447066
421,3_39_1,39,1.0,2048.07930435,3_D,test,05,6,34.0,11010,kill,1.0,6900.0,2.33461897992
422,3_39_1,39,1.0,2051.70448493,3_D,test,05,7,0.0,01010,ignore,0.0,6800.0,1.55687231128
423,3_39_1,39,1.0,2055.7828508,3_D,test,05,7,1.0,11111,kill,0.0,6700.0,1.91111755189
424,3_39_1,39,1.0,2064.08013814,3_D,test,05,7,2.0,10010,ignore,0.0,6600.0,6.15955004148
425,3_39_1,39,1.0,2068.7835019,3_D,test,05,7,3.0,01001,ignore,1.0,6700.0,2.58599046172
426,3_39_1,39,1.0,2071.95557068,3_D,test,05,7,4.0,00000,kill,0.0,6600.0,1.02906067609
427,3_39_1,39,1.0,2075.45578724,3_D,test,05,7,5.0,01110,kill,1.0,6700.0,1.4202056843
428,3_39_1,39,1.0,2078.39349489,3_D,test,05,7,6.0,00111,kill,1.0,6800.0,0.764057508841
429,3_39_1,39,1.0,2081.17481112,3_D,test,05,7,7.0,11011,kill,0.0,6700.0,0.63797888967
430,3_39_1,39,1.0,2084.70630112,3_D,test,05,7,8.0,10001,ignore,1.0,6800.0,1.41439995337
431,3_39_1,39,1.0,2090.1284482,3_D,test,05,7,9.0,10011,ignore,0.0,6700.0,3.29998164926
432,3_39_1,39,1.0,2093.59731907,3_D,test,05,7,10.0,00011,kill,1.0,6800.0,1.32615547059
433,3_39_1,39,1.0,2097.01941402,3_D,test,05,7,11.0,01111,kill,1.0,6900.0,1.29196931362
434,3_39_1,39,1.0,2100.66027812,3_D,test,05,7,12.0,11101,ignore,1.0,7000.0,1.49058180058
435,3_39_1,39,1.0,2104.20730015,3_D,test,05,7,13.0,10111,kill,1.0,7100.0,1.43723081988
436,3_39_1,39,1.0,2107.75437185,3_D,test,05,7,14.0,11000,ignore,1.0,7200.0,1.37150355787
437,3_39_1,39,1.0,2111.3014378,3_D,test,05,7,15.0,00110,kill,1.0,7300.0,1.38141911573
438,3_39_1,39,1.0,2115.3016599,3_D,test,05,7,16.0,00100,ignore,1.0,7400.0,1.85297854687
439,3_39_1,39,1.0,2119.12999796,3_D,test,05,7,17.0,10101,ignore,1.0,7500.0,1.6507525651
440,3_39_1,39,1.0,2122.91142381,3_D,test,05,7,18.0,00101,ignore,1.0,7600.0,1.6412454857
441,3_39_1,39,1.0,2126.03664154,3_D,test,05,7,19.0,11001,ignore,1.0,7700.0,0.907152231914
442,3_39_1,39,1.0,2129.22429408,3_D,test,05,8,0.0,01011,kill,1.0,7800.0,1.03648061534
443,3_39_1,39,1.0,2132.64636111,3_D,test,05,8,1.0,10100,ignore,1.0,7900.0,1.28121380912
444,3_39_1,39,1.0,2135.80276772,3_D,test,05,8,2.0,01101,ignore,0.0,7800.0,0.992253688521
445,3_39_1,39,1.0,2141.53750099,3_D,test,05,8,3.0,10000,ignore,1.0,7900.0,3.66148590093
446,3_39_1,39,1.0,2145.83455761,3_D,test,05,8,4.0,01000,ignore,0.0,7800.0,2.17363618487
447,3_39_1,39,1.0,2149.61602451,3_D,test,05,8,5.0,01100,ignore,0.0,7700.0,1.63062053009
448,3_39_1,39,1.0,2154.02249341,3_D,test,05,8,6.0,11010,kill,0.0,7600.0,2.28195769149
449,3_39_1,39,1.0,2157.49145705,3_D,test,05,8,7.0,01100,kill,1.0,7700.0,1.29568420962
450,3_39_1,39,1.0,2160.67913504,3_D,test,05,8,8.0,10000,ignore,1.0,7800.0,1.04815570952
451,3_39_1,39,1.0,2163.81991683,3_D,test,05,8,9.0,10111,ignore,1.0,7900.0,0.961853449426
452,3_39_1,39,1.0,2166.96068138,3_D,test,05,8,10.0,11110,ignore,1.0,8000.0,1.0053011882
453,3_39_1,39,1.0,2170.08589666,3_D,test,05,8,11.0,10010,ignore,1.0,8100.0,0.974650935659
454,3_39_1,39,1.0,2174.07043934,3_D,test,05,8,12.0,11000,ignore,1.0,8200.0,1.86390688498
455,3_39_1,39,1.0,2177.820625,3_D,test,05,8,13.0,00111,kill,0.0,8100.0,1.59683751466
456,3_39_1,39,1.0,2180.97702709,3_D,test,05,8,14.0,11100,ignore,1.0,8200.0,1.0218948556
457,3_39_1,39,1.0,2184.39914215,3_D,test,05,8,15.0,01010,kill,1.0,8300.0,1.27764136741
458,3_39_1,39,1.0,2187.50867801,3_D,test,05,8,16.0,11101,ignore,1.0,8400.0,1.0031302997
459,3_39_1,39,1.0,2190.41507897,3_D,test,05,8,17.0,01000,kill,1.0,8500.0,0.735878653573
460,3_39_1,39,1.0,2193.83715298,3_D,test,05,8,18.0,10011,ignore,1.0,8600.0,1.27905605761
461,3_39_1,39,1.0,2197.19670023,3_D,test,05,8,19.0,10100,ignore,1.0,8700.0,1.21939028741
462,3_39_1,39,1.0,2200.46253349,3_D,test,05,8,20.0,10001,ignore,1.0,8800.0,1.10063308002
463,3_39_1,39,1.0,2203.68144387,3_D,test,05,8,21.0,00100,kill,0.0,8700.0,1.10574213966
464,3_39_1,39,1.0,2207.0097456,3_D,test,05,8,22.0,01001,kill,1.0,8800.0,1.12248482985
465,3_39_1,39,1.0,2209.9474122,3_D,test,05,8,23.0,00000,kill,1.0,8900.0,0.770909273033
466,3_39_1,39,1.0,2213.38513237,3_D,test,05,8,24.0,11011,ignore,1.0,9000.0,1.31435105911
467,3_39_1,39,1.0,2217.46341819,3_D,test,05,8,25.0,00011,kill,1.0,9100.0,1.90966960867
468,3_39_1,39,1.0,2220.58856285,3_D,test,05,8,26.0,10110,ignore,1.0,9200.0,1.02341094698
469,3_39_1,39,1.0,2225.8075853,3_D,test,05,8,27.0,00110,kill,0.0,9100.0,3.0732637921
470,3_39_1,39,1.0,2229.30783183,3_D,test,05,8,28.0,00001,ignore,0.0,9000.0,1.35561189867
471,3_39_1,39,1.0,2232.97985154,3_D,test,05,8,29.0,01011,ignore,0.0,8900.0,1.56898954747
