,unique_id,pair_id,sbj_id,wall_time,condition,block,rule_id,rule_num,trial,stimulus,choice,correct,points,reaction_time
0,1_33_2,33,2.0,70.7295273268,1_I,training,03,1_A,1.0,01100,ignore,0.0,0.0,3.20225759267
1,1_33_2,33,2.0,75.6260094447,1_I,training,03,1_A,2.0,10111,kill,0.0,0.0,2.65347479688
2,1_33_2,33,2.0,80.6740288579,1_I,training,03,1_A,3.0,00011,ignore,1.0,100.0,2.89814805312
3,1_33_2,33,2.0,84.2368817863,1_I,training,03,1_A,4.0,01010,ignore,0.0,0.0,1.41733196654
4,1_33_2,33,2.0,89.0658442634,1_I,training,03,1_A,5.0,00000,ignore,1.0,100.0,2.65123658128
5,1_33_2,33,2.0,93.3165182528,1_I,training,03,1_A,6.0,00111,kill,0.0,0.0,1.99526616579
6,1_33_2,33,2.0,96.8947981193,1_I,training,03,1_A,7.0,11010,kill,1.0,100.0,1.44740419128
7,1_33_2,33,2.0,104.273389497,1_I,training,03,1_A,8.0,00110,ignore,1.0,200.0,5.21448156695
8,1_33_2,33,2.0,109.711172891,1_I,training,03,1_A,9.0,10100,kill,0.0,100.0,3.2596736524
9,1_33_2,33,2.0,117.149093814,1_I,training,03,1_A,10.0,10000,kill,0.0,0.0,5.25302386951
10,1_33_2,33,2.0,123.118151674,1_I,training,03,1_A,11.0,10001,ignore,1.0,100.0,3.77787393329
11,1_33_2,33,2.0,129.399750151,1_I,training,03,1_A,12.0,11101,kill,0.0,0.0,4.12370410724
12,1_33_2,33,2.0,136.446987092,1_I,training,03,1_A,13.0,10010,kill,0.0,0.0,4.91420064051
13,1_33_2,33,2.0,142.213681852,1_I,training,03,1_A,14.0,00010,ignore,1.0,100.0,3.58932931122
14,1_33_2,33,2.0,146.120132487,1_I,training,03,1_A,15.0,00101,ignore,1.0,200.0,1.72643438543
15,1_33_2,33,2.0,150.261099837,1_I,training,03,1_A,16.0,11110,kill,1.0,300.0,2.04485339729
16,1_33_2,33,2.0,153.870640827,1_I,training,03,1_A,17.0,01101,ignore,0.0,200.0,1.45023972964
17,1_33_2,33,2.0,159.261575643,1_I,training,03,1_A,18.0,11100,ignore,0.0,100.0,3.26652213235
18,1_33_2,33,2.0,163.19930259,1_I,training,03,1_A,19.0,11000,ignore,0.0,0.0,1.78778128052
19,1_33_2,33,2.0,167.183941337,1_I,training,03,1_A,20.0,01110,ignore,0.0,0.0,1.88446751447
20,1_33_2,33,2.0,170.746584484,1_I,training,03,1_A,21.0,11111,kill,0.0,0.0,1.4537403284
21,1_33_2,33,2.0,177.418812752,1_I,training,03,1_A,22.0,10011,kill,0.0,0.0,4.5138322299
22,1_33_2,33,2.0,211.061249599,1_I,training,03,1_A,23.0,00001,,,0.0,
23,1_33_2,33,2.0,215.889668533,1_I,training,03,1_A,24.0,01001,ignore,0.0,0.0,2.67552811748
24,1_33_2,33,2.0,222.171202556,1_I,training,03,1_A,25.0,00100,ignore,1.0,100.0,4.13611487317
25,1_33_2,33,2.0,225.905794195,1_I,training,03,1_A,26.0,01000,ignore,0.0,0.0,1.61225377884
26,1_33_2,33,2.0,233.234297493,1_I,training,03,1_A,27.0,10110,ignore,1.0,100.0,5.2132167206
27,1_33_2,33,2.0,237.562685021,1_I,training,03,1_A,28.0,01011,ignore,0.0,0.0,2.21647469548
28,1_33_2,33,2.0,241.078457011,1_I,training,03,1_A,29.0,01111,ignore,0.0,0.0,1.3755197837
29,1_33_2,33,2.0,245.609984363,1_I,training,03,1_A,30.0,10101,ignore,1.0,100.0,2.37643157329
30,1_33_2,33,2.0,249.422682829,1_I,training,03,1_A,31.0,11011,ignore,1.0,200.0,1.69436656897
31,1_33_2,33,2.0,254.126023197,1_I,training,03,1_A,32.0,11001,kill,0.0,100.0,2.55806367255
32,1_33_2,33,2.0,257.657537002,1_I,training,03,1_A,33.0,00111,ignore,1.0,200.0,1.3820706286
33,1_33_2,33,2.0,264.673479567,1_I,training,03,1_A,34.0,01000,ignore,0.0,100.0,4.87386144329
34,1_33_2,33,2.0,274.127121368,1_I,training,03,1_A,35.0,00001,ignore,1.0,200.0,7.31116985355
35,1_33_2,33,2.0,280.002424186,1_I,training,03,1_A,36.0,10110,ignore,1.0,300.0,3.70929676432
36,1_33_2,33,2.0,284.648740142,1_I,training,03,1_A,37.0,00100,ignore,1.0,400.0,2.44836113929
37,1_33_2,33,2.0,294.242935889,1_I,training,03,1_A,38.0,11111,kill,0.0,300.0,7.41951311832
38,1_33_2,33,2.0,298.118221464,1_I,training,03,1_A,39.0,01110,ignore,0.0,200.0,1.69389117395
39,1_33_2,33,2.0,302.495775019,1_I,training,03,1_A,40.0,11100,ignore,0.0,100.0,2.15816819378
40,1_33_2,33,2.0,309.264886987,1_I,training,03,1_A,41.0,10100,ignore,1.0,200.0,4.53871246771
41,1_33_2,33,2.0,313.577692396,1_I,training,03,1_A,42.0,00010,ignore,1.0,300.0,2.04392806017
42,1_33_2,33,2.0,322.250003592,1_I,training,03,1_A,43.0,01011,kill,1.0,400.0,6.48633321414
43,1_33_2,33,2.0,327.469052318,1_I,training,03,1_A,44.0,11010,ignore,0.0,300.0,3.12236249158
44,1_33_2,33,2.0,332.09863872,1_I,training,03,1_A,45.0,10011,ignore,1.0,400.0,2.43074401784
45,1_33_2,33,2.0,337.645791297,1_I,training,03,1_A,46.0,11110,ignore,0.0,300.0,3.18767922249
46,1_33_2,33,2.0,342.8336101,1_I,training,03,1_A,47.0,00101,kill,0.0,200.0,2.63885988943
47,1_33_2,33,2.0,351.818476691,1_I,training,03,1_A,48.0,11001,ignore,1.0,300.0,6.76474514844
48,1_33_2,33,2.0,356.771847747,1_I,training,03,1_A,49.0,10111,kill,0.0,200.0,2.73139770653
49,1_33_2,33,2.0,361.428335842,1_I,training,03,1_A,50.0,11101,ignore,1.0,300.0,2.51155049799
50,1_33_2,33,2.0,365.116071102,1_I,training,03,1_A,51.0,01010,ignore,0.0,200.0,1.56466296012
51,1_33_2,33,2.0,380.085626936,1_I,training,03,1_A,52.0,10010,ignore,1.0,300.0,12.8220179328
52,1_33_2,33,2.0,386.445310483,1_I,training,03,1_A,53.0,10001,kill,0.0,200.0,4.20477004305
53,1_33_2,33,2.0,397.070910628,1_I,training,03,1_A,54.0,11000,ignore,0.0,100.0,8.45877261872
54,1_33_2,33,2.0,403.383680321,1_I,training,03,1_A,55.0,00000,kill,0.0,0.0,4.15475421708
55,1_33_2,33,2.0,418.947055035,1_I,training,03,1_A,56.0,00110,ignore,1.0,100.0,13.4186304764
56,1_33_2,33,2.0,422.962915083,1_I,training,03,1_A,57.0,00011,ignore,1.0,200.0,1.84234784383
57,1_33_2,33,2.0,430.588331721,1_I,training,03,1_A,58.0,01101,kill,1.0,300.0,5.42953336161
58,1_33_2,33,2.0,444.729731361,1_I,training,03,1_A,59.0,10000,ignore,1.0,400.0,11.9727764506
59,1_33_2,33,2.0,450.558134694,1_I,training,03,1_A,60.0,11011,ignore,1.0,500.0,3.67241054425
60,1_33_2,33,2.0,456.824087831,1_I,training,03,1_A,61.0,10101,kill,0.0,400.0,4.04174157149
61,1_33_2,33,2.0,461.652483775,1_I,training,03,1_A,62.0,01111,ignore,0.0,300.0,2.66934387687
62,1_33_2,33,2.0,468.902872856,1_I,training,03,1_A,63.0,01100,ignore,0.0,200.0,5.01089877986
63,1_33_2,33,2.0,473.481269723,1_I,training,03,1_A,64.0,01001,ignore,0.0,100.0,2.43539779849
64,1_33_2,33,2.0,477.200231211,1_I,training,03,1_A,65.0,00001,ignore,1.0,200.0,1.53339691092
65,1_33_2,33,2.0,481.450444585,1_I,training,03,1_A,66.0,01101,kill,1.0,300.0,2.06821959637
66,1_33_2,33,2.0,488.872732893,1_I,training,03,1_A,67.0,01111,kill,1.0,400.0,5.25609217901
67,1_33_2,33,2.0,494.1542,1_I,training,03,1_A,68.0,00101,ignore,1.0,500.0,3.07789786725
68,1_33_2,33,2.0,506.998661258,1_I,training,03,1_A,69.0,10001,ignore,1.0,600.0,10.5878567361
69,1_33_2,33,2.0,511.483318684,1_I,training,03,1_A,70.0,11001,ignore,1.0,700.0,2.34308782615
70,1_33_2,33,2.0,516.389800108,1_I,training,03,1_A,71.0,11011,ignore,1.0,800.0,2.75434967972
71,1_33_2,33,2.0,521.671350142,1_I,training,03,1_A,72.0,11110,ignore,0.0,700.0,3.15997740437
72,1_33_2,33,2.0,525.343440472,1_I,training,03,1_A,73.0,00111,ignore,1.0,800.0,1.48715715008
73,1_33_2,33,2.0,529.51550186,1_I,training,03,1_A,74.0,11111,ignore,1.0,900.0,1.9953006504
74,1_33_2,33,2.0,533.984538167,1_I,training,03,1_A,75.0,10110,kill,0.0,800.0,2.32525517587
75,1_33_2,33,2.0,537.344024658,1_I,training,03,1_A,76.0,10101,ignore,1.0,900.0,1.1920435787
76,1_33_2,33,2.0,542.438113872,1_I,training,03,1_A,77.0,00100,ignore,1.0,1000.0,2.94108139641
77,1_33_2,33,2.0,546.766429558,1_I,training,03,1_A,78.0,01100,ignore,0.0,900.0,2.17913730172
78,1_33_2,33,2.0,552.97237372,1_I,training,03,1_A,79.0,10000,ignore,1.0,1000.0,4.06053773828
79,1_33_2,33,2.0,556.56637857,1_I,training,03,1_A,80.0,10011,ignore,1.0,1100.0,1.40367482816
80,1_33_2,33,2.0,562.379135331,1_I,training,03,1_A,81.0,11100,kill,1.0,1200.0,3.6516130383
81,1_33_2,33,2.0,568.942011249,1_I,training,03,1_A,82.0,00000,kill,0.0,1100.0,4.44019690714
82,1_33_2,33,2.0,573.020334427,1_I,training,03,1_A,83.0,00010,ignore,1.0,1200.0,1.93079882375
83,1_33_2,33,2.0,578.083126802,1_I,training,03,1_A,84.0,11010,kill,1.0,1300.0,2.80462578242
84,1_33_2,33,2.0,586.692919857,1_I,training,03,1_A,85.0,01001,kill,1.0,1400.0,6.44080654584
85,1_33_2,33,2.0,593.944137801,1_I,training,03,1_A,86.0,01000,ignore,0.0,1300.0,5.1143444085
86,1_33_2,33,2.0,597.428699573,1_I,training,03,1_A,87.0,10111,ignore,1.0,1400.0,1.31164442751
87,1_33_2,33,2.0,602.397734854,1_I,training,03,1_A,88.0,00110,kill,0.0,1300.0,2.80068304166
88,1_33_2,33,2.0,606.085839181,1_I,training,03,1_A,89.0,01110,ignore,0.0,1200.0,1.54002534619
89,1_33_2,33,2.0,609.914164924,1_I,training,03,1_A,90.0,00011,ignore,1.0,1300.0,1.69192103516
90,1_33_2,33,2.0,614.072307255,1_I,training,03,1_A,91.0,11000,kill,1.0,1400.0,2.00788178675
91,1_33_2,33,2.0,618.541532816,1_I,training,03,1_A,92.0,10100,ignore,1.0,1500.0,2.31598538345
92,1_33_2,33,2.0,624.371570885,1_I,training,03,1_A,93.0,11101,ignore,1.0,1600.0,3.60896829838
93,1_33_2,33,2.0,636.202945643,1_I,training,03,1_A,94.0,10010,kill,0.0,1500.0,9.62305238911
94,1_33_2,33,2.0,639.776921501,1_I,training,03,1_A,95.0,01011,ignore,0.0,1400.0,1.35633730714
95,1_33_2,33,2.0,645.378982203,1_I,training,03,1_A,96.0,01010,ignore,0.0,1300.0,3.47482397452
96,1_33_2,33,2.0,649.285444743,1_I,training,03,1_A,97.0,11101,ignore,1.0,1400.0,1.76469957949
97,1_33_2,33,2.0,652.89502309,1_I,training,03,1_A,98.0,00110,kill,0.0,1300.0,1.44930248712
98,1_33_2,33,2.0,656.242085679,1_I,training,03,1_A,99.0,11110,kill,1.0,1400.0,1.16681274732
99,1_33_2,33,2.0,659.370396355,1_I,training,03,1_A,100.0,10100,kill,0.0,1300.0,0.963706176317
100,1_33_2,33,2.0,662.87409052,1_I,training,03,1_A,101.0,01011,ignore,0.0,1200.0,1.35136988073
101,1_33_2,33,2.0,665.827395069,1_I,training,03,1_A,102.0,11011,ignore,1.0,1300.0,0.803241060992
102,1_33_2,33,2.0,673.624656745,1_I,training,03,1_A,103.0,01111,kill,1.0,1400.0,5.6701070542
103,1_33_2,33,2.0,679.718753759,1_I,training,03,1_A,104.0,00010,ignore,1.0,1500.0,3.91839791056
104,1_33_2,33,2.0,683.265899357,1_I,training,03,1_A,105.0,10111,ignore,1.0,1600.0,1.36808670745
105,1_33_2,33,2.0,695.34579651,1_I,training,03,1_A,106.0,00101,kill,0.0,1500.0,9.88911883192
106,1_33_2,33,2.0,698.486637007,1_I,training,03,1_A,107.0,01001,kill,1.0,1600.0,0.984164583566
107,1_33_2,33,2.0,702.98682893,1_I,training,03,1_A,108.0,01101,kill,1.0,1700.0,2.34922649782
108,1_33_2,33,2.0,708.971550194,1_I,training,03,1_A,109.0,00100,ignore,1.0,1800.0,3.85608380418
109,1_33_2,33,2.0,715.096855373,1_I,training,03,1_A,110.0,11001,ignore,1.0,1900.0,3.92676166083
110,1_33_2,33,2.0,721.019082718,1_I,training,03,1_A,111.0,11111,ignore,1.0,2000.0,3.73831187145
111,1_33_2,33,2.0,738.051218682,1_I,training,03,1_A,112.0,00111,ignore,1.0,2100.0,14.8717747137
112,1_33_2,33,2.0,741.301407013,1_I,training,03,1_A,113.0,10101,ignore,1.0,2200.0,1.13575196367
113,1_33_2,33,2.0,745.614097885,1_I,training,03,1_A,114.0,01110,kill,1.0,2300.0,2.15233208354
114,1_33_2,33,2.0,749.911227574,1_I,training,03,1_A,115.0,10011,ignore,1.0,2400.0,2.11865211142
115,1_33_2,33,2.0,761.193123276,1_I,training,03,1_A,116.0,10010,ignore,1.0,2500.0,9.0864500513
116,1_33_2,33,2.0,765.302662828,1_I,training,03,1_A,117.0,00000,kill,0.0,2400.0,1.93724703586
117,1_33_2,33,2.0,769.834161443,1_I,training,03,1_A,118.0,00011,kill,0.0,2300.0,2.37767466149
118,1_33_2,33,2.0,776.49077434,1_I,training,03,1_A,119.0,01010,kill,1.0,2400.0,4.48137810367
119,1_33_2,33,2.0,783.444281692,1_I,training,03,1_A,120.0,10000,ignore,1.0,2500.0,4.78397032024
120,1_33_2,33,2.0,787.8038975,1_I,training,03,1_A,121.0,00001,ignore,1.0,2600.0,2.19872948833
121,1_33_2,33,2.0,799.179510885,1_I,training,03,1_A,122.0,11010,ignore,0.0,2500.0,9.19044127578
122,1_33_2,33,2.0,802.898442404,1_I,training,03,1_A,123.0,01000,ignore,0.0,2400.0,1.56897066304
123,1_33_2,33,2.0,805.992448691,1_I,training,03,1_A,124.0,10001,ignore,1.0,2500.0,0.927279340558
124,1_33_2,33,2.0,811.992730315,1_I,training,03,1_A,125.0,11000,ignore,0.0,2400.0,3.82798500248
125,1_33_2,33,2.0,816.617956466,1_I,training,03,1_A,126.0,10110,kill,0.0,2300.0,2.48199184768
126,1_33_2,33,2.0,828.368562924,1_I,training,03,1_A,127.0,01100,ignore,0.0,2200.0,9.56547458012
127,1_33_2,33,2.0,832.900106697,1_I,training,03,1_A,128.0,11100,ignore,0.0,2100.0,2.36485870135
128,1_33_2,33,2.0,835.837741685,1_I,training,03,1_A,129.0,11101,ignore,1.0,2200.0,0.778041019446
129,1_33_2,33,2.0,839.666048544,1_I,training,03,1_A,130.0,11100,kill,1.0,2300.0,1.66859424706
130,1_33_2,33,2.0,844.306941383,1_I,training,03,1_A,131.0,01001,ignore,0.0,2200.0,2.50426110764
131,1_33_2,33,2.0,963.816570185,1_I,test,03,2,0.0,11001,ignore,0.0,0.0,2.24481160522
132,1_33_2,33,2.0,975.582776003,1_I,test,03,2,1.0,10110,ignore,1.0,100.0,9.48510038923
133,1_33_2,33,2.0,983.208276389,1_I,test,03,2,2.0,01111,kill,1.0,200.0,5.40227943292
134,1_33_2,33,2.0,988.99409451,1_I,test,03,2,3.0,01011,kill,1.0,300.0,3.5336210609
135,1_33_2,33,2.0,999.103999435,1_I,test,03,2,4.0,10111,ignore,0.0,200.0,7.91333400934
136,1_33_2,33,2.0,1002.76264036,1_I,test,03,2,5.0,00100,ignore,1.0,300.0,1.37698825347
137,1_33_2,33,2.0,1008.68486688,1_I,test,03,2,6.0,10101,kill,0.0,200.0,3.74108665121
138,1_33_2,33,2.0,1016.14341165,1_I,test,03,2,7.0,10010,ignore,1.0,300.0,5.28099910135
139,1_33_2,33,2.0,1022.44060621,1_I,test,03,2,8.0,10001,kill,1.0,400.0,4.06931981974
140,1_33_2,33,2.0,1033.144392,1_I,test,03,2,9.0,11110,kill,0.0,300.0,8.5184552207
141,1_33_2,33,2.0,1039.37902161,1_I,test,03,2,10.0,10100,kill,0.0,200.0,4.00286468607
142,1_33_2,33,2.0,1057.14562893,1_I,test,03,2,11.0,00010,ignore,1.0,300.0,15.5881683293
143,1_33_2,33,2.0,1067.11496513,1_I,test,03,2,12.0,11011,kill,1.0,400.0,7.80367499237
144,1_33_2,33,2.0,1072.55272554,1_I,test,03,2,13.0,01010,kill,0.0,300.0,3.2436157281
145,1_33_2,33,2.0,1076.20911264,1_I,test,03,2,14.0,10000,ignore,1.0,400.0,1.50606374973
146,1_33_2,33,2.0,1083.02206974,1_I,test,03,2,15.0,00011,ignore,0.0,300.0,4.63948759149
147,1_33_2,33,2.0,1089.35047205,1_I,test,03,2,16.0,11010,kill,0.0,200.0,4.18582936931
148,1_33_2,33,2.0,1092.85065371,1_I,test,03,2,17.0,11111,ignore,0.0,100.0,1.3645109815
149,1_33_2,33,2.0,1096.64781645,1_I,test,03,2,18.0,00111,ignore,0.0,0.0,1.61502527435
150,1_33_2,33,2.0,1102.25748881,1_I,test,03,2,19.0,11000,ignore,1.0,100.0,3.44357229391
151,1_33_2,33,2.0,1108.89838288,1_I,test,03,2,20.0,10011,ignore,0.0,0.0,4.46877849342
152,1_33_2,33,2.0,1112.85176461,1_I,test,03,2,21.0,00101,ignore,1.0,100.0,1.78403148938
153,1_33_2,33,2.0,1117.13324896,1_I,test,03,2,22.0,01101,ignore,1.0,200.0,2.13089784385
154,1_33_2,33,2.0,1121.39907318,1_I,test,03,2,23.0,01000,ignore,1.0,300.0,2.06938550472
155,1_33_2,33,2.0,1125.03990978,1_I,test,03,2,24.0,01100,ignore,1.0,400.0,1.44559539121
156,1_33_2,33,2.0,1128.3369664,1_I,test,03,2,25.0,00001,ignore,0.0,300.0,1.12918100276
157,1_33_2,33,2.0,1131.61848851,1_I,test,03,2,26.0,00000,ignore,1.0,400.0,1.11035158295
158,1_33_2,33,2.0,1136.24364282,1_I,test,03,2,27.0,00110,kill,0.0,300.0,2.46723571752
159,1_33_2,33,2.0,1140.35323985,1_I,test,03,2,28.0,01110,ignore,1.0,400.0,1.95543479555
160,1_33_2,33,2.0,1145.71287947,1_I,test,03,2,29.0,10110,ignore,1.0,500.0,3.19962321455
161,1_33_2,33,2.0,1150.3694312,1_I,test,03,2,30.0,10011,kill,1.0,600.0,2.52021188331
162,1_33_2,33,2.0,1153.97899928,1_I,test,03,2,31.0,00000,ignore,1.0,700.0,1.39907195338
163,1_33_2,33,2.0,1157.35410977,1_I,test,03,2,32.0,01010,ignore,1.0,800.0,1.22216629876
164,1_33_2,33,2.0,1161.65122919,1_I,test,03,2,33.0,10100,kill,0.0,700.0,2.09520421665
165,1_33_2,33,2.0,1165.6514751,1_I,test,03,2,34.0,00101,ignore,1.0,800.0,1.83629907848
166,1_33_2,33,2.0,1170.41731965,1_I,test,03,2,35.0,11011,kill,1.0,900.0,2.62329993937
167,1_33_2,33,2.0,1174.71444072,1_I,test,03,2,36.0,00100,ignore,1.0,1000.0,2.12152172387
168,1_33_2,33,2.0,1178.35528019,1_I,test,03,2,37.0,01100,ignore,1.0,1100.0,1.46893613737
169,1_33_2,33,2.0,1182.77739977,1_I,test,03,2,38.0,11010,kill,0.0,1000.0,2.27767338884
170,1_33_2,33,2.0,1185.96502891,1_I,test,03,2,39.0,01101,ignore,1.0,1100.0,1.03687431467
171,1_33_2,33,2.0,1189.35588285,1_I,test,03,2,40.0,00010,ignore,1.0,1200.0,1.26559268992
172,1_33_2,33,2.0,1193.71545678,1_I,test,03,2,41.0,11100,ignore,1.0,1300.0,2.1800133751
173,1_33_2,33,2.0,1199.26274443,1_I,test,03,2,42.0,11000,ignore,1.0,1400.0,3.32095773623
174,1_33_2,33,2.0,1202.51286748,1_I,test,03,2,43.0,01011,ignore,0.0,1300.0,1.01241528177
175,1_33_2,33,2.0,1207.01309758,1_I,test,03,2,44.0,11101,ignore,1.0,1400.0,2.27411285254
176,1_33_2,33,2.0,1211.01324907,1_I,test,03,2,45.0,01111,kill,1.0,1500.0,1.74793554169
177,1_33_2,33,2.0,1216.62298301,1_I,test,03,2,46.0,11001,kill,1.0,1600.0,3.30108105157
178,1_33_2,33,2.0,1220.49821727,1_I,test,03,2,47.0,00111,ignore,0.0,1500.0,1.55844710861
179,1_33_2,33,2.0,1224.95150068,1_I,test,03,2,48.0,10000,kill,0.0,1400.0,2.25739972059
180,1_33_2,33,2.0,1228.54544969,1_I,test,03,2,49.0,01110,ignore,1.0,1500.0,1.38534995108
181,1_33_2,33,2.0,1238.57724902,1_I,test,03,2,50.0,11110,ignore,1.0,1600.0,7.76981438657
182,1_33_2,33,2.0,1242.23372727,1_I,test,03,2,51.0,11111,ignore,0.0,1500.0,1.41132055952
183,1_33_2,33,2.0,1253.23428477,1_I,test,03,2,52.0,00011,ignore,0.0,1400.0,8.71532910842
184,1_33_2,33,2.0,1256.76571277,1_I,test,03,2,53.0,00110,ignore,1.0,1500.0,1.3236889997
185,1_33_2,33,2.0,1260.37531698,1_I,test,03,2,54.0,01000,ignore,1.0,1600.0,1.46850877449
186,1_33_2,33,2.0,1264.25056643,1_I,test,03,2,55.0,10111,ignore,0.0,1500.0,1.71653894359
187,1_33_2,33,2.0,1268.84451011,1_I,test,03,2,56.0,10010,ignore,1.0,1600.0,2.4178488252
188,1_33_2,33,2.0,1274.62610099,1_I,test,03,2,57.0,00001,ignore,0.0,1500.0,3.50971542394
189,1_33_2,33,2.0,1279.56382137,1_I,test,03,2,58.0,10001,kill,1.0,1600.0,2.74358021716
190,1_33_2,33,2.0,1283.50156104,1_I,test,03,2,59.0,01001,ignore,0.0,1500.0,1.73645873403
191,1_33_2,33,2.0,1287.17363044,1_I,test,03,2,60.0,10101,kill,0.0,1400.0,1.43495401436
192,1_33_2,33,2.0,1292.09577896,1_I,test,03,2,61.0,11011,kill,1.0,1500.0,2.77232888961
193,1_33_2,33,2.0,1296.04912087,1_I,test,03,2,62.0,01100,ignore,1.0,1600.0,1.78579841527
194,1_33_2,33,2.0,1300.23696677,1_I,test,03,2,63.0,00101,ignore,1.0,1700.0,2.01478856211
195,1_33_2,33,2.0,1304.1777768,1_I,test,03,2,64.0,11111,ignore,0.0,1600.0,1.65735062107
196,1_33_2,33,2.0,1309.95931596,1_I,test,03,2,65.0,00111,kill,1.0,1700.0,3.52360533346
197,1_33_2,33,2.0,1316.55344438,1_I,test,03,2,66.0,10001,kill,1.0,1800.0,4.22220858347
198,1_33_2,33,2.0,1326.12018298,1_I,test,03,2,67.0,01010,ignore,1.0,1900.0,7.17606365531
199,1_33_2,33,2.0,1329.96412861,1_I,test,03,2,68.0,01110,ignore,1.0,2000.0,1.67120070907
200,1_33_2,33,2.0,1334.0425302,1_I,test,03,2,69.0,10000,kill,0.0,1900.0,1.82210250222
201,1_33_2,33,2.0,1359.87200379,1_I,test,03,2,70.0,01000,ignore,1.0,2000.0,23.447414044
202,1_33_2,33,2.0,1363.60661637,1_I,test,03,2,71.0,11110,ignore,1.0,2100.0,1.53805315475
203,1_33_2,33,2.0,1370.66944487,1_I,test,03,2,72.0,00011,ignore,0.0,2000.0,4.82429966472
204,1_33_2,33,2.0,1375.75424458,1_I,test,03,2,73.0,00100,ignore,1.0,2100.0,2.93758736615
205,1_33_2,33,2.0,1379.69189025,1_I,test,03,2,74.0,11010,kill,0.0,2000.0,1.78260612537
206,1_33_2,33,2.0,1384.12962848,1_I,test,03,3,0.0,00110,ignore,1.0,2100.0,2.12429321938
207,1_33_2,33,2.0,1387.94235938,1_I,test,03,3,1.0,10100,ignore,0.0,2000.0,1.50488306227
208,1_33_2,33,2.0,1392.39569328,1_I,test,03,3,2.0,00010,ignore,1.0,2100.0,2.19748475801
209,1_33_2,33,2.0,1396.75523314,1_I,test,03,3,3.0,10010,kill,1.0,2200.0,2.08866732981
210,1_33_2,33,2.0,1401.4586823,1_I,test,03,3,4.0,11001,kill,1.0,2300.0,2.41663899003
211,1_33_2,33,2.0,1407.45898363,1_I,test,03,3,5.0,11000,kill,1.0,2400.0,3.7349393584
212,1_33_2,33,2.0,1411.80291962,1_I,test,03,3,6.0,10110,ignore,0.0,2300.0,2.09079223883
213,1_33_2,33,2.0,1418.49079651,1_I,test,03,3,7.0,01011,kill,0.0,2200.0,4.36546875058
214,1_33_2,33,2.0,1424.11611708,1_I,test,03,3,8.0,10011,ignore,1.0,2300.0,3.35595428161
215,1_33_2,33,2.0,1427.33512968,1_I,test,03,3,9.0,01111,ignore,1.0,2400.0,0.97518996301
216,1_33_2,33,2.0,1430.69458005,1_I,test,03,3,10.0,01101,ignore,1.0,2500.0,1.08306973815
217,1_33_2,33,2.0,1434.97610257,1_I,test,03,3,11.0,11101,ignore,0.0,2400.0,2.09142035142
218,1_33_2,33,2.0,1439.4138014,1_I,test,03,3,12.0,10111,ignore,1.0,2500.0,2.28955456964
219,1_33_2,33,2.0,1443.60158161,1_I,test,03,3,13.0,00001,ignore,1.0,2600.0,1.90558728733
220,1_33_2,33,2.0,1448.44552765,1_I,test,03,3,14.0,00000,kill,0.0,2500.0,2.70600471536
221,1_33_2,33,2.0,1451.93010462,1_I,test,03,3,15.0,11100,ignore,0.0,2400.0,1.31563602148
222,1_33_2,33,2.0,1459.96182841,1_I,test,03,3,16.0,10101,kill,0.0,2300.0,5.88762121444
223,1_33_2,33,2.0,1464.75894311,1_I,test,03,3,17.0,01001,ignore,1.0,2400.0,2.65240207909
224,1_33_2,33,2.0,1472.54059639,1_I,test,03,3,18.0,00100,ignore,1.0,2500.0,5.60008809998
225,1_33_2,33,2.0,1475.96266343,1_I,test,03,3,19.0,11111,ignore,0.0,2400.0,1.29726434386
226,1_33_2,33,2.0,1485.90072249,1_I,test,03,3,20.0,01010,ignore,1.0,2500.0,7.79283820271
227,1_33_2,33,2.0,1489.93216753,1_I,test,03,3,21.0,00111,ignore,1.0,2600.0,1.71496168308
228,1_33_2,33,2.0,1494.18243469,1_I,test,03,3,22.0,10101,kill,0.0,2500.0,2.02248560986
229,1_33_2,33,2.0,1498.3076085,1_I,test,03,3,23.0,11011,kill,1.0,2600.0,1.93351653968
230,1_33_2,33,2.0,1506.80808656,1_I,test,03,3,24.0,10001,kill,0.0,2500.0,6.31725515617
231,1_33_2,33,2.0,1511.48321113,1_I,test,03,3,25.0,11100,kill,1.0,2600.0,2.49020862781
232,1_33_2,33,2.0,1515.1085904,1_I,test,03,3,26.0,00001,ignore,1.0,2700.0,1.3510065607
233,1_33_2,33,2.0,1523.73418275,1_I,test,03,3,27.0,01011,ignore,1.0,2800.0,6.43409436222
234,1_33_2,33,2.0,1528.95528988,1_I,test,03,3,28.0,11000,kill,1.0,2900.0,3.00044049988
235,1_33_2,33,2.0,1540.07423593,1_I,test,03,3,29.0,10100,ignore,0.0,2800.0,8.93261296071
236,1_33_2,33,2.0,1543.62463663,1_I,test,03,3,30.0,01110,ignore,1.0,2900.0,1.33592200566
237,1_33_2,33,2.0,1547.37705271,1_I,test,03,3,31.0,00011,kill,0.0,2800.0,1.55168278754
238,1_33_2,33,2.0,1551.89293143,1_I,test,03,3,32.0,11110,kill,1.0,2900.0,2.35018919326
239,1_33_2,33,2.0,1555.34629531,1_I,test,03,3,33.0,01101,ignore,1.0,3000.0,1.23439602048
240,1_33_2,33,2.0,1560.19030703,1_I,test,03,3,34.0,01001,ignore,1.0,3100.0,2.66010200056
241,1_33_2,33,2.0,1563.51852501,1_I,test,03,3,35.0,10111,ignore,1.0,3200.0,1.0832762353
242,1_33_2,33,2.0,1567.2244587,1_I,test,03,3,36.0,10110,ignore,0.0,3100.0,1.48023929037
243,1_33_2,33,2.0,1570.68696264,1_I,test,03,3,37.0,01111,ignore,1.0,3200.0,1.27200436477
244,1_33_2,33,2.0,1575.02205127,1_I,test,03,3,38.0,11001,kill,1.0,3300.0,2.1690480892
245,1_33_2,33,2.0,1578.87068434,1_I,test,03,3,39.0,00101,ignore,1.0,3400.0,1.72062044387
246,1_33_2,33,2.0,1587.63680354,1_I,test,03,3,40.0,11101,ignore,0.0,3300.0,6.67195115994
247,1_33_2,33,2.0,1596.48110017,1_I,test,03,3,41.0,11010,kill,1.0,3400.0,6.67755162531
248,1_33_2,33,2.0,1600.25002535,1_I,test,03,3,42.0,01000,ignore,1.0,3500.0,1.62700498262
249,1_33_2,33,2.0,1603.35953576,1_I,test,03,3,43.0,00110,ignore,1.0,3600.0,0.935800734769
250,1_33_2,33,2.0,1606.51598834,1_I,test,03,3,44.0,01100,ignore,1.0,3700.0,0.938392417655
251,1_33_2,33,2.0,1611.12876596,1_I,test,03,3,45.0,10010,kill,1.0,3800.0,2.48490169217
252,1_33_2,33,2.0,1614.99530722,1_I,test,03,3,46.0,10011,kill,0.0,3700.0,1.70971181127
253,1_33_2,33,2.0,1618.3236422,1_I,test,03,3,47.0,00010,ignore,1.0,3800.0,1.10677010956
254,1_33_2,33,2.0,1624.70143797,1_I,test,03,3,48.0,10000,ignore,0.0,3700.0,4.11291083388
255,1_33_2,33,2.0,1627.92055607,1_I,test,03,3,49.0,00000,ignore,1.0,3800.0,0.952146851905
256,1_33_2,33,2.0,1635.17107447,1_I,test,03,3,50.0,00010,ignore,1.0,3900.0,5.08490809645
257,1_33_2,33,2.0,1638.18686555,1_I,test,03,3,51.0,01110,ignore,1.0,4000.0,0.784958058088
258,1_33_2,33,2.0,1649.38194131,1_I,test,03,3,52.0,10010,kill,1.0,4100.0,9.08004207123
259,1_33_2,33,2.0,1653.27884094,1_I,test,03,3,53.0,00011,ignore,1.0,4200.0,1.52114953637
260,1_33_2,33,2.0,1656.46656778,1_I,test,03,3,54.0,01001,ignore,1.0,4300.0,0.960794279166
261,1_33_2,33,2.0,1660.12295981,1_I,test,03,3,55.0,00000,ignore,1.0,4400.0,1.46036014252
262,1_33_2,33,2.0,1663.0918629,1_I,test,03,3,56.0,01000,ignore,1.0,4500.0,0.80139531313
263,1_33_2,33,2.0,1666.15448984,1_I,test,03,3,57.0,00110,ignore,1.0,4600.0,0.945284003366
264,1_33_2,33,2.0,1670.27973426,1_I,test,03,3,58.0,10100,kill,1.0,4700.0,1.93974840191
265,1_33_2,33,2.0,1674.42253627,1_I,test,03,4,0.0,11010,kill,1.0,4800.0,1.95873012875
266,1_33_2,33,2.0,1678.25110258,1_I,test,03,4,1.0,00100,ignore,1.0,4900.0,1.6609986005
267,1_33_2,33,2.0,1681.67633727,1_I,test,03,4,2.0,11100,kill,0.0,4800.0,1.26348379162
268,1_33_2,33,2.0,1684.81707432,1_I,test,03,4,3.0,00001,ignore,1.0,4900.0,0.899737219035
269,1_33_2,33,2.0,1688.57142441,1_I,test,03,4,4.0,11000,ignore,1.0,5000.0,1.61098359559
270,1_33_2,33,2.0,1693.29035962,1_I,test,03,4,5.0,10011,kill,1.0,5100.0,2.47254265316
271,1_33_2,33,2.0,1696.86869121,1_I,test,03,4,6.0,00101,ignore,1.0,5200.0,1.33575122472
272,1_33_2,33,2.0,1702.24414244,1_I,test,03,4,7.0,11110,kill,0.0,5100.0,3.17432177182
273,1_33_2,33,2.0,1706.54169005,1_I,test,03,4,8.0,01111,ignore,0.0,5000.0,2.16214418756
274,1_33_2,33,2.0,1709.68247636,1_I,test,03,4,9.0,00111,ignore,0.0,4900.0,1.02750640531
275,1_33_2,33,2.0,1712.99517995,1_I,test,03,4,10.0,10000,ignore,1.0,5000.0,1.18849823205
276,1_33_2,33,2.0,1716.82352787,1_I,test,03,4,11.0,10101,ignore,1.0,5100.0,1.70648544729
277,1_33_2,33,2.0,1721.76422747,1_I,test,03,4,12.0,10001,ignore,1.0,5200.0,2.76942602414
278,1_33_2,33,2.0,1725.24900436,1_I,test,03,4,13.0,01010,kill,1.0,5300.0,1.33581280438
279,1_33_2,33,2.0,1728.54604004,1_I,test,03,4,14.0,01101,kill,0.0,5200.0,1.18837343059
280,1_33_2,33,2.0,1731.86189036,1_I,test,03,4,15.0,11111,ignore,1.0,5300.0,1.17852355771
281,1_33_2,33,2.0,1735.28397217,1_I,test,03,4,16.0,01011,kill,1.0,5400.0,1.32753280246
282,1_33_2,33,2.0,1739.36353556,1_I,test,03,4,17.0,10110,ignore,1.0,5500.0,1.88089343064
283,1_33_2,33,2.0,1743.92630022,1_I,test,03,4,18.0,11101,kill,0.0,5400.0,2.39047214772
284,1_33_2,33,2.0,1747.48892654,1_I,test,03,4,19.0,01100,kill,0.0,5300.0,1.43991610386
285,1_33_2,33,2.0,1751.08287556,1_I,test,03,4,20.0,11011,ignore,0.0,5200.0,1.39515918138
286,1_33_2,33,2.0,1757.11449302,1_I,test,03,4,21.0,10111,kill,0.0,5100.0,3.86573333788
287,1_33_2,33,2.0,1761.17718892,1_I,test,03,4,22.0,11001,ignore,1.0,5200.0,1.92074327478
288,1_33_2,33,2.0,1764.88279871,1_I,test,03,4,23.0,10010,ignore,0.0,5100.0,1.51764647442
289,1_33_2,33,2.0,1767.71113307,1_I,test,03,4,24.0,11001,ignore,1.0,5200.0,0.707220708504
290,1_33_2,33,2.0,1771.97707389,1_I,test,03,4,25.0,00011,kill,1.0,5300.0,2.08932335852
291,1_33_2,33,2.0,1775.24292275,1_I,test,03,4,26.0,01101,kill,0.0,5200.0,1.13055340825
292,1_33_2,33,2.0,1778.44619682,1_I,test,03,4,27.0,00001,kill,0.0,5100.0,1.01713474739
293,1_33_2,33,2.0,1781.90061945,1_I,test,03,4,28.0,10000,kill,0.0,5000.0,1.25268271816
294,1_33_2,33,2.0,1785.16647201,1_I,test,03,4,29.0,00101,kill,0.0,4900.0,1.08197444116
295,1_33_2,33,2.0,1790.17101905,1_I,test,03,4,30.0,01001,ignore,1.0,5000.0,2.78221776294
296,1_33_2,33,2.0,1793.23371618,1_I,test,03,4,31.0,10001,ignore,1.0,5100.0,0.912621327338
297,1_33_2,33,2.0,1796.40575458,1_I,test,03,4,32.0,01011,ignore,0.0,5000.0,1.00992130529
298,1_33_2,33,2.0,1800.04661334,1_I,test,03,4,33.0,11101,kill,0.0,4900.0,1.46624182171
299,1_33_2,33,2.0,1804.48435199,1_I,test,03,4,34.0,11010,kill,1.0,5000.0,2.31192112548
300,1_33_2,33,2.0,1808.46892711,1_I,test,03,4,35.0,00010,kill,1.0,5100.0,1.849166355
301,1_33_2,33,2.0,1811.56284718,1_I,test,03,4,36.0,10100,kill,0.0,5000.0,0.921776581581
302,1_33_2,33,2.0,1815.68817658,1_I,test,03,4,37.0,11111,kill,0.0,4900.0,2.02136527046
303,1_33_2,33,2.0,1818.75077231,1_I,test,03,4,38.0,10111,ignore,1.0,5000.0,0.877291841229
304,1_33_2,33,2.0,1823.01751942,1_I,test,03,4,39.0,01000,kill,0.0,4900.0,2.08502058198
305,1_33_2,33,2.0,1826.33017662,1_I,test,03,4,40.0,11011,ignore,0.0,4800.0,1.20876410021
306,1_33_2,33,2.0,1832.37790374,1_I,test,03,4,41.0,10011,kill,1.0,4900.0,3.90132186912
307,1_33_2,33,2.0,1837.48754839,1_I,test,03,4,42.0,01110,kill,1.0,5000.0,2.98258362827
308,1_33_2,33,2.0,1844.78477989,1_I,test,03,4,43.0,11110,ignore,1.0,5100.0,5.19841173725
309,1_33_2,33,2.0,1857.9574074,1_I,test,03,4,44.0,10101,ignore,1.0,5200.0,10.9729365578
310,1_33_2,33,2.0,1862.22511638,1_I,test,03,4,45.0,01111,ignore,0.0,5100.0,2.10989507236
311,1_33_2,33,2.0,1867.98082081,1_I,test,03,4,46.0,00110,kill,1.0,5200.0,3.50910044834
312,1_33_2,33,2.0,1873.79358537,1_I,test,03,4,47.0,00000,ignore,1.0,5300.0,3.69762413332
313,1_33_2,33,2.0,1880.4389062,1_I,test,03,4,48.0,00111,ignore,0.0,5200.0,4.47313504955
314,1_33_2,33,2.0,1888.40541959,1_I,test,03,4,49.0,11100,kill,0.0,5100.0,5.6573272208
315,1_33_2,33,2.0,1892.94288773,1_I,test,03,4,50.0,01100,ignore,1.0,5200.0,2.43415635241
316,1_33_2,33,2.0,1924.44767678,1_I,test,03,4,51.0,00100,kill,0.0,5100.0,29.3700371408
317,1_33_2,33,2.0,1928.57288959,1_I,test,03,4,52.0,11000,ignore,1.0,5200.0,2.03164866419
318,1_33_2,33,2.0,1933.55752095,1_I,test,03,4,53.0,01010,kill,1.0,5300.0,2.80879390476
319,1_33_2,33,2.0,1937.74928947,1_I,test,03,4,54.0,10110,ignore,1.0,5400.0,1.99625267204
320,1_33_2,33,2.0,1943.2211724,1_I,test,03,4,55.0,01101,kill,0.0,5300.0,3.24787704101
321,1_33_2,33,2.0,1956.27459687,1_I,test,03,4,56.0,10100,ignore,1.0,5400.0,10.8664435567
322,1_33_2,33,2.0,1961.5601619,1_I,test,03,4,57.0,11001,kill,0.0,5300.0,3.16809196226
323,1_33_2,33,2.0,1964.59164635,1_I,test,03,4,58.0,10110,ignore,1.0,5400.0,0.901485260496
324,1_33_2,33,2.0,1967.66982297,1_I,test,03,4,59.0,01111,ignore,0.0,5300.0,0.925545257152
325,1_33_2,33,2.0,1970.56083147,1_I,test,03,4,60.0,10001,ignore,1.0,5400.0,0.751761281088
326,1_33_2,33,2.0,1973.64106855,1_I,test,03,4,61.0,11010,ignore,0.0,5300.0,0.913582380661
327,1_33_2,33,2.0,1977.64127258,1_I,test,03,4,62.0,00001,kill,0.0,5200.0,1.87510371042
328,1_33_2,33,2.0,1981.53214438,1_I,test,03,4,63.0,11100,ignore,1.0,5300.0,1.72718647842
329,1_33_2,33,2.0,1988.39818028,1_I,test,03,4,64.0,11000,ignore,1.0,5400.0,4.64523995338
330,1_33_2,33,2.0,1993.40488877,1_I,test,03,4,65.0,01001,ignore,1.0,5500.0,2.79384523552
331,1_33_2,33,2.0,1996.99877169,1_I,test,03,4,66.0,00011,ignore,0.0,5400.0,1.38228574689
332,1_33_2,33,2.0,2000.82710154,1_I,test,03,4,67.0,10101,kill,0.0,5300.0,1.64860877165
333,1_33_2,33,2.0,2003.68661328,1_I,test,03,4,68.0,10010,ignore,0.0,5200.0,0.674030499998
334,1_33_2,33,2.0,2006.24922481,1_I,test,03,4,69.0,11011,ignore,0.0,5100.0,0.355150461703
335,1_33_2,33,2.0,2010.82763236,1_I,test,03,4,70.0,01011,kill,1.0,5200.0,2.48035588121
336,1_33_2,33,2.0,2014.4997075,1_I,test,03,4,71.0,11101,kill,0.0,5100.0,1.4521540362
337,1_33_2,33,2.0,2018.29675446,1_I,test,03,4,72.0,10000,ignore,1.0,5200.0,1.58720317062
338,1_33_2,33,2.0,2022.62516252,1_I,test,03,4,73.0,00101,kill,0.0,5100.0,2.12966953477
339,1_33_2,33,2.0,2026.07848452,1_I,test,03,4,74.0,10011,ignore,0.0,5000.0,1.23952642774
340,1_33_2,33,2.0,2030.12557695,1_I,test,03,4,75.0,11110,kill,0.0,4900.0,1.89325780656
341,1_33_2,33,2.0,2034.00076851,1_I,test,03,4,76.0,00111,ignore,0.0,4800.0,1.65327897354
342,1_33_2,33,2.0,2040.86047567,1_I,test,03,4,77.0,01010,ignore,0.0,4700.0,4.68699178814
343,1_33_2,33,2.0,2043.62625412,1_I,test,03,4,78.0,01100,ignore,1.0,4800.0,0.61095198469
344,1_33_2,33,2.0,2047.37643157,1_I,test,03,4,79.0,00000,ignore,1.0,4900.0,1.57324511294
345,1_33_2,33,2.0,2052.67358425,1_I,test,03,4,80.0,11111,kill,0.0,4800.0,3.22590172132
346,1_33_2,33,2.0,2056.48632788,1_I,test,03,4,81.0,00100,ignore,1.0,4900.0,1.56652677135
347,1_33_2,33,2.0,2061.86159067,1_I,test,03,4,82.0,00110,ignore,0.0,4800.0,3.19864491892
348,1_33_2,33,2.0,2065.59623691,1_I,test,03,4,83.0,10111,kill,0.0,4700.0,1.55882849201
349,1_33_2,33,2.0,2069.59644094,1_I,test,03,4,84.0,01000,ignore,1.0,4800.0,1.84936874684
350,1_33_2,33,2.0,2073.36226907,1_I,test,03,4,85.0,01110,kill,1.0,4900.0,1.59118532236
351,1_33_2,33,2.0,2076.956168,1_I,test,03,4,86.0,00010,ignore,0.0,4800.0,1.36820206669
352,1_33_2,33,2.0,2080.37824776,1_I,test,03,4,87.0,11000,ignore,1.0,4900.0,1.21373645298
353,1_33_2,33,2.0,2083.6753561,1_I,test,03,4,88.0,11101,kill,0.0,4800.0,1.14238450426
354,1_33_2,33,2.0,2088.22242124,1_I,test,03,4,89.0,01000,ignore,1.0,4900.0,2.326893195
355,1_33_2,33,2.0,2092.67575227,1_I,test,03,4,90.0,00010,ignore,0.0,4800.0,2.24290099344
356,1_33_2,33,2.0,2096.00404907,1_I,test,03,5,0.0,01101,ignore,1.0,4900.0,1.1824441298
357,1_33_2,33,2.0,2099.31678469,1_I,test,03,5,1.0,00011,kill,1.0,5000.0,1.07922839857
358,1_33_2,33,2.0,2102.61386306,1_I,test,03,5,2.0,00100,ignore,1.0,5100.0,1.18347702606
359,1_33_2,33,2.0,2105.7077429,1_I,test,03,5,3.0,10001,ignore,0.0,5000.0,0.838339418089
360,1_33_2,33,2.0,2109.44224053,1_I,test,03,5,4.0,00001,kill,1.0,5100.0,1.56655797171
361,1_33_2,33,2.0,2113.17687322,1_I,test,03,5,5.0,11010,kill,0.0,5000.0,1.31804624961
362,1_33_2,33,2.0,2116.63017469,1_I,test,03,5,6.0,00000,ignore,1.0,5100.0,1.22657211862
363,1_33_2,33,2.0,2120.97417841,1_I,test,03,5,7.0,11110,kill,0.0,5000.0,2.231803106
364,1_33_2,33,2.0,2125.25564634,1_I,test,03,5,8.0,10101,kill,0.0,4900.0,2.08838816866
365,1_33_2,33,2.0,2128.83031887,1_I,test,03,5,9.0,00111,kill,1.0,5000.0,1.2000251245
366,1_33_2,33,2.0,2132.74042529,1_I,test,03,5,10.0,10010,ignore,1.0,5100.0,1.75445970206
367,1_33_2,33,2.0,2138.02195931,1_I,test,03,5,11.0,01010,ignore,1.0,5200.0,3.02553257174
368,1_33_2,33,2.0,2141.08467245,1_I,test,03,5,12.0,01110,ignore,1.0,5300.0,0.950252661372
369,1_33_2,33,2.0,2147.61624373,1_I,test,03,5,13.0,01011,ignore,0.0,5200.0,4.36890079064
370,1_33_2,33,2.0,2151.60080694,1_I,test,03,5,14.0,11011,kill,1.0,5300.0,1.81801032814
371,1_33_2,33,2.0,2157.4292501,1_I,test,03,5,15.0,10100,ignore,1.0,5400.0,3.68176613767
372,1_33_2,33,2.0,2161.86702035,1_I,test,03,5,16.0,00110,ignore,1.0,5500.0,2.24094563378
373,1_33_2,33,2.0,2166.05472749,1_I,test,03,5,17.0,10000,kill,0.0,5400.0,1.9857012015
374,1_33_2,33,2.0,2169.9455139,1_I,test,03,5,18.0,11001,kill,1.0,5500.0,1.72967060216
375,1_33_2,33,2.0,2173.33635635,1_I,test,03,5,19.0,01001,kill,1.0,5600.0,1.20954205665
