,unique_id,pair_id,sbj_id,wall_time,condition,block,rule_id,rule_num,trial,stimulus,choice,correct,points,reaction_time
0,2_35_2,35,2.0,25.7513949761,2_ND,training,05,1_A,1.0,10011,kill,0.0,0.0,3.28806585207
1,2_35_2,35,2.0,31.8298613563,2_ND,training,05,1_A,2.0,10101,ignore,1.0,100.0,3.4035134678
2,2_35_2,35,2.0,39.0176486237,2_ND,training,05,1_A,3.0,01110,ignore,0.0,0.0,4.48047361861
3,2_35_2,35,2.0,45.0023720341,2_ND,training,05,1_A,4.0,11000,kill,1.0,100.0,3.35626121769
4,2_35_2,35,2.0,50.9714169476,2_ND,training,05,1_A,5.0,10100,kill,0.0,0.0,3.27503444335
5,2_35_2,35,2.0,59.0343017155,2_ND,training,05,1_A,6.0,00011,ignore,1.0,100.0,5.30334983111
6,2_35_2,35,2.0,67.3783944556,2_ND,training,05,1_A,7.0,11010,kill,1.0,200.0,5.63643301569
7,2_35_2,35,2.0,74.300591079,2_ND,training,05,1_A,8.0,10111,ignore,1.0,300.0,4.1023829542
8,2_35_2,35,2.0,78.3476499702,2_ND,training,05,1_A,9.0,00111,kill,0.0,200.0,1.38729143095
9,2_35_2,35,2.0,84.3479393928,2_ND,training,05,1_A,10.0,01001,ignore,1.0,300.0,3.29840378277
10,2_35_2,35,2.0,89.9263347516,2_ND,training,05,1_A,11.0,00001,kill,0.0,200.0,2.88975378138
11,2_35_2,35,2.0,97.0517192116,2_ND,training,05,1_A,12.0,11110,kill,0.0,100.0,4.48319049676
12,2_35_2,35,2.0,104.302025466,2_ND,training,05,1_A,13.0,11100,kill,0.0,0.0,4.59755144334
13,2_35_2,35,2.0,109.177258441,2_ND,training,05,1_A,14.0,10110,kill,0.0,0.0,2.19002095338
14,2_35_2,35,2.0,113.661828724,2_ND,training,05,1_A,15.0,00101,ignore,1.0,100.0,1.80476369154
15,2_35_2,35,2.0,118.630825606,2_ND,training,05,1_A,16.0,01000,ignore,0.0,0.0,2.33261641359
16,2_35_2,35,2.0,126.537461143,2_ND,training,05,1_A,17.0,11101,kill,0.0,0.0,5.28547582726
17,2_35_2,35,2.0,130.225168358,2_ND,training,05,1_A,18.0,10001,ignore,1.0,100.0,1.02255402967
18,2_35_2,35,2.0,137.178555301,2_ND,training,05,1_A,19.0,00100,ignore,0.0,0.0,4.26374244422
19,2_35_2,35,2.0,141.225681929,2_ND,training,05,1_A,20.0,01111,ignore,1.0,100.0,1.3854305049
20,2_35_2,35,2.0,145.178984714,2_ND,training,05,1_A,21.0,01101,kill,0.0,0.0,1.29275532004
21,2_35_2,35,2.0,149.788548223,2_ND,training,05,1_A,22.0,01010,ignore,0.0,0.0,1.94001192175
22,2_35_2,35,2.0,153.804376563,2_ND,training,05,1_A,23.0,10000,kill,1.0,100.0,1.37974509459
23,2_35_2,35,2.0,157.210842963,2_ND,training,05,1_A,24.0,10010,kill,1.0,200.0,0.795235733721
24,2_35_2,35,2.0,160.789062205,2_ND,training,05,1_A,25.0,00000,kill,1.0,300.0,0.930032382495
25,2_35_2,35,2.0,164.633063397,2_ND,training,05,1_A,26.0,01011,ignore,1.0,400.0,1.18176029729
26,2_35_2,35,2.0,170.05515862,2_ND,training,05,1_A,27.0,11111,ignore,1.0,500.0,2.78088734932
27,2_35_2,35,2.0,174.586612499,2_ND,training,05,1_A,28.0,00110,ignore,0.0,400.0,1.88901195623
28,2_35_2,35,2.0,178.039896399,2_ND,training,05,1_A,29.0,11011,ignore,1.0,500.0,0.822823664838
29,2_35_2,35,2.0,181.618183789,2_ND,training,05,1_A,30.0,01100,kill,1.0,600.0,0.945670237171
30,2_35_2,35,2.0,185.680891208,2_ND,training,05,1_A,31.0,11001,ignore,1.0,700.0,1.40757400599
31,2_35_2,35,2.0,189.16542167,2_ND,training,05,1_A,32.0,00010,kill,1.0,800.0,0.794070653611
32,2_35_2,35,2.0,192.665600661,2_ND,training,05,1_A,33.0,11101,ignore,1.0,900.0,0.726736987476
33,2_35_2,35,2.0,196.68143598,2_ND,training,05,1_A,34.0,10101,ignore,1.0,1000.0,1.343969992
34,2_35_2,35,2.0,200.119098446,2_ND,training,05,1_A,35.0,10010,kill,1.0,1100.0,0.723116125398
35,2_35_2,35,2.0,203.806760503,2_ND,training,05,1_A,36.0,01001,ignore,1.0,1200.0,1.05994250958
36,2_35_2,35,2.0,207.525695394,2_ND,training,05,1_A,37.0,00010,kill,1.0,1300.0,1.06053982866
37,2_35_2,35,2.0,211.525878901,2_ND,training,05,1_A,38.0,11010,kill,1.0,1400.0,1.39284259842
38,2_35_2,35,2.0,215.463535209,2_ND,training,05,1_A,39.0,11011,ignore,1.0,1500.0,1.30609421467
39,2_35_2,35,2.0,218.854349797,2_ND,training,05,1_A,40.0,11110,kill,0.0,1400.0,0.759404388715
40,2_35_2,35,2.0,222.823315889,2_ND,training,05,1_A,41.0,01111,kill,0.0,1300.0,1.32662598055
41,2_35_2,35,2.0,226.495340501,2_ND,training,05,1_A,42.0,10100,ignore,1.0,1400.0,1.00506058581
42,2_35_2,35,2.0,229.854995148,2_ND,training,05,1_A,43.0,01000,ignore,0.0,1300.0,0.693854879789
43,2_35_2,35,2.0,237.261504242,2_ND,training,05,1_A,44.0,00110,ignore,0.0,1200.0,4.77376221528
44,2_35_2,35,2.0,241.042938005,2_ND,training,05,1_A,45.0,10001,ignore,1.0,1300.0,1.14925546537
45,2_35_2,35,2.0,251.105879837,2_ND,training,05,1_A,46.0,01101,kill,0.0,1200.0,7.4296000959
46,2_35_2,35,2.0,255.059241737,2_ND,training,05,1_A,47.0,00000,ignore,0.0,1100.0,1.3049024502
47,2_35_2,35,2.0,261.700160599,2_ND,training,05,1_A,48.0,00100,kill,1.0,1200.0,3.95939708131
48,2_35_2,35,2.0,267.669184165,2_ND,training,05,1_A,49.0,00001,ignore,1.0,1300.0,3.30572022313
49,2_35_2,35,2.0,273.950735749,2_ND,training,05,1_A,50.0,11000,kill,1.0,1400.0,3.63696998708
50,2_35_2,35,2.0,281.232348503,2_ND,training,05,1_A,51.0,01011,ignore,1.0,1500.0,4.575153004
51,2_35_2,35,2.0,287.763882845,2_ND,training,05,1_A,52.0,00011,ignore,1.0,1600.0,3.88038387706
52,2_35_2,35,2.0,293.014188689,2_ND,training,05,1_A,53.0,10111,ignore,1.0,1700.0,2.5963198576
53,2_35_2,35,2.0,300.795763673,2_ND,training,05,1_A,54.0,01110,kill,1.0,1800.0,5.16144693261
54,2_35_2,35,2.0,307.93672564,2_ND,training,05,1_A,55.0,11111,ignore,1.0,1900.0,4.46815037169
55,2_35_2,35,2.0,314.046409435,2_ND,training,05,1_A,56.0,01010,kill,1.0,2000.0,3.4612571863
56,2_35_2,35,2.0,319.968530521,2_ND,training,05,1_A,57.0,01100,kill,1.0,2100.0,3.27530210798
57,2_35_2,35,2.0,327.953300321,2_ND,training,05,1_A,58.0,10110,kill,0.0,2000.0,5.34125434545
58,2_35_2,35,2.0,337.891287927,2_ND,training,05,1_A,59.0,11001,ignore,1.0,2100.0,7.31390698408
59,2_35_2,35,2.0,345.297904991,2_ND,training,05,1_A,60.0,00111,ignore,1.0,2200.0,4.74658809697
60,2_35_2,35,2.0,352.720111056,2_ND,training,05,1_A,61.0,11100,kill,0.0,2100.0,4.76081373333
61,2_35_2,35,2.0,358.767595255,2_ND,training,05,1_A,62.0,00101,ignore,1.0,2200.0,3.38655781638
62,2_35_2,35,2.0,367.205164121,2_ND,training,05,1_A,63.0,10011,ignore,1.0,2300.0,5.78234636789
63,2_35_2,35,2.0,372.642861893,2_ND,training,05,1_A,64.0,10000,ignore,0.0,2200.0,2.81185557276
64,2_35_2,35,2.0,376.971251505,2_ND,training,05,1_A,65.0,11100,kill,0.0,2100.0,1.7059051252
65,2_35_2,35,2.0,381.283952356,2_ND,training,05,1_A,66.0,00100,ignore,0.0,2000.0,1.58350274479
66,2_35_2,35,2.0,386.502998501,2_ND,training,05,1_A,67.0,11101,ignore,1.0,2100.0,2.58087823558
67,2_35_2,35,2.0,390.518856399,2_ND,training,05,1_A,68.0,11110,ignore,1.0,2200.0,1.43883575737
68,2_35_2,35,2.0,394.42525383,2_ND,training,05,1_A,69.0,11001,ignore,1.0,2300.0,1.26975299316
69,2_35_2,35,2.0,399.300477363,2_ND,training,05,1_A,70.0,01000,kill,1.0,2400.0,2.22775468783
70,2_35_2,35,2.0,404.675729222,2_ND,training,05,1_A,71.0,10010,ignore,0.0,2300.0,2.75587507451
71,2_35_2,35,2.0,410.035323932,2_ND,training,05,1_A,72.0,01110,kill,1.0,2400.0,2.69545799389
72,2_35_2,35,2.0,417.832539234,2_ND,training,05,1_A,73.0,00000,kill,1.0,2500.0,5.12253744431
73,2_35_2,35,2.0,422.192190597,2_ND,training,05,1_A,74.0,01101,ignore,1.0,2600.0,1.70045453724
74,2_35_2,35,2.0,426.348633186,2_ND,training,05,1_A,75.0,11111,ignore,1.0,2700.0,1.53604276723
75,2_35_2,35,2.0,437.239780712,2_ND,training,05,1_A,76.0,01111,ignore,1.0,2800.0,8.2299161208
76,2_35_2,35,2.0,446.505864401,2_ND,training,05,1_A,77.0,01100,ignore,0.0,2700.0,6.618159157
77,2_35_2,35,2.0,452.146759862,2_ND,training,05,1_A,78.0,01010,kill,1.0,2800.0,3.0034344821
78,2_35_2,35,2.0,455.881284166,2_ND,training,05,1_A,79.0,00001,ignore,1.0,2900.0,1.08779933691
79,2_35_2,35,2.0,462.272225196,2_ND,training,05,1_A,80.0,00110,kill,1.0,3000.0,3.75500188022
80,2_35_2,35,2.0,467.334919889,2_ND,training,05,1_A,81.0,10011,ignore,1.0,3100.0,2.41416257917
81,2_35_2,35,2.0,473.007099271,2_ND,training,05,1_A,82.0,10000,kill,1.0,3200.0,3.03108440303
82,2_35_2,35,2.0,480.460573656,2_ND,training,05,1_A,83.0,00011,ignore,1.0,3300.0,4.78279425457
83,2_35_2,35,2.0,486.851517149,2_ND,training,05,1_A,84.0,10111,ignore,1.0,3400.0,3.71213653852
84,2_35_2,35,2.0,493.164296411,2_ND,training,05,1_A,85.0,11011,ignore,1.0,3500.0,3.69581104847
85,2_35_2,35,2.0,500.727130684,2_ND,training,05,1_A,86.0,00111,ignore,1.0,3600.0,4.93554167604
86,2_35_2,35,2.0,507.727495234,2_ND,training,05,1_A,87.0,11000,kill,1.0,3700.0,4.33148622841
87,2_35_2,35,2.0,514.993462332,2_ND,training,05,1_A,88.0,10101,ignore,1.0,3800.0,4.62405065266
88,2_35_2,35,2.0,521.618796708,2_ND,training,05,1_A,89.0,01001,ignore,1.0,3900.0,3.95768107184
89,2_35_2,35,2.0,528.572264525,2_ND,training,05,1_A,90.0,10100,kill,0.0,3800.0,4.30260677438
90,2_35_2,35,2.0,535.478793325,2_ND,training,05,1_A,91.0,11010,kill,1.0,3900.0,4.25414141232
91,2_35_2,35,2.0,540.635277788,2_ND,training,05,1_A,92.0,01011,ignore,1.0,4000.0,2.5141299832
92,2_35_2,35,2.0,547.401329045,2_ND,training,05,1_A,93.0,00101,ignore,1.0,4100.0,4.11367741649
93,2_35_2,35,2.0,555.229759709,2_ND,training,05,1_A,94.0,10110,kill,0.0,4000.0,5.18085426071
94,2_35_2,35,2.0,562.652007238,2_ND,training,05,1_A,95.0,10001,ignore,1.0,4100.0,4.77782357452
95,2_35_2,35,2.0,568.230409987,2_ND,training,05,1_A,96.0,00010,kill,1.0,4200.0,2.91398440977
96,2_35_2,35,2.0,573.418191507,2_ND,training,05,1_A,97.0,00010,ignore,0.0,4100.0,2.52464033591
97,2_35_2,35,2.0,577.699600638,2_ND,training,05,1_A,98.0,10010,kill,1.0,4200.0,1.6253741968
98,2_35_2,35,2.0,581.324735496,2_ND,training,05,1_A,99.0,11111,ignore,1.0,4300.0,0.961072037913
99,2_35_2,35,2.0,586.418740794,2_ND,training,05,1_A,100.0,10111,ignore,1.0,4400.0,2.45396660925
100,2_35_2,35,2.0,592.059659245,2_ND,training,05,1_A,101.0,00011,ignore,1.0,4500.0,2.96266447828
101,2_35_2,35,2.0,596.934897146,2_ND,training,05,1_A,102.0,01110,ignore,0.0,4400.0,2.23884634901
102,2_35_2,35,2.0,600.63817571,2_ND,training,05,1_A,103.0,11000,kill,1.0,4500.0,1.10752195096
103,2_35_2,35,2.0,604.77920993,2_ND,training,05,1_A,104.0,01011,ignore,1.0,4600.0,1.47011351936
104,2_35_2,35,2.0,608.179130041,2_ND,training,05,1_A,105.0,00111,ignore,1.0,4700.0,0.732950748065
105,2_35_2,35,2.0,612.181456917,2_ND,training,05,1_A,106.0,11110,ignore,1.0,4800.0,1.37519069053
106,2_35_2,35,2.0,616.172694184,2_ND,training,05,1_A,107.0,01111,ignore,1.0,4900.0,1.24921506935
107,2_35_2,35,2.0,620.126197717,2_ND,training,05,1_A,108.0,11011,ignore,1.0,5000.0,1.35286163052
108,2_35_2,35,2.0,623.596364605,2_ND,training,05,1_A,109.0,00001,ignore,1.0,5100.0,0.805969413979
109,2_35_2,35,2.0,627.596538259,2_ND,training,05,1_A,110.0,00000,kill,1.0,5200.0,1.31453468228
110,2_35_2,35,2.0,632.068814032,2_ND,training,05,1_A,111.0,01100,kill,1.0,5300.0,1.85328488549
111,2_35_2,35,2.0,639.453277332,2_ND,training,05,1_A,112.0,11100,kill,0.0,5200.0,4.77664371538
112,2_35_2,35,2.0,643.109728953,2_ND,training,05,1_A,113.0,01001,ignore,1.0,5300.0,1.02072348273
113,2_35_2,35,2.0,646.826182199,2_ND,training,05,1_A,114.0,10101,ignore,1.0,5400.0,1.0279898386
114,2_35_2,35,2.0,654.079731219,2_ND,training,05,1_A,115.0,00110,kill,1.0,5500.0,4.62959237796
115,2_35_2,35,2.0,660.142568776,2_ND,training,05,1_A,116.0,10100,ignore,1.0,5600.0,3.45718186909
116,2_35_2,35,2.0,664.5352759,2_ND,training,05,1_A,117.0,11010,kill,1.0,5700.0,1.66931963919
117,2_35_2,35,2.0,668.241553785,2_ND,training,05,1_A,118.0,01010,kill,1.0,5800.0,1.0400413156
118,2_35_2,35,2.0,672.710266581,2_ND,training,05,1_A,119.0,10011,ignore,1.0,5900.0,1.8443907838
119,2_35_2,35,2.0,677.638910145,2_ND,training,05,1_A,120.0,00100,kill,1.0,6000.0,2.15022923916
120,2_35_2,35,2.0,681.391557233,2_ND,training,05,1_A,121.0,10001,ignore,1.0,6100.0,1.12947784049
121,2_35_2,35,2.0,685.438644041,2_ND,training,05,1_A,122.0,10000,kill,1.0,6200.0,1.36290480171
122,2_35_2,35,2.0,691.048298277,2_ND,training,05,1_A,123.0,10110,kill,0.0,6100.0,2.98622758719
123,2_35_2,35,2.0,694.798453046,2_ND,training,05,1_A,124.0,00101,ignore,1.0,6200.0,1.06648797726
124,2_35_2,35,2.0,698.510628585,2_ND,training,05,1_A,125.0,01000,kill,1.0,6300.0,1.06928121372
125,2_35_2,35,2.0,704.102611208,2_ND,training,05,1_A,126.0,11101,ignore,1.0,6400.0,2.96299700643
126,2_35_2,35,2.0,707.518859683,2_ND,training,05,1_A,127.0,01101,ignore,1.0,6500.0,0.824708812078
127,2_35_2,35,2.0,711.134861512,2_ND,training,05,1_A,128.0,11001,ignore,1.0,6600.0,0.986227176664
128,2_35_2,35,2.0,715.470786786,2_ND,training,05,1_A,129.0,01010,kill,1.0,6700.0,1.72066609083
129,2_35_2,35,2.0,719.299102502,2_ND,training,05,1_A,130.0,10000,kill,1.0,6800.0,1.17262357321
130,2_35_2,35,2.0,723.048501078,2_ND,training,05,1_A,131.0,00101,ignore,1.0,6900.0,1.10190550946
131,2_35_2,35,2.0,726.961276481,2_ND,training,05,1_A,132.0,10010,kill,1.0,7000.0,1.26675326083
132,2_35_2,35,2.0,731.242743086,2_ND,training,05,1_A,133.0,00110,ignore,0.0,6900.0,1.61900566694
133,2_35_2,35,2.0,737.164891267,2_ND,training,05,1_A,134.0,01001,ignore,1.0,7000.0,3.29862300504
134,2_35_2,35,2.0,741.22761675,2_ND,training,05,1_A,135.0,11110,ignore,1.0,7100.0,1.41527552215
135,2_35_2,35,2.0,746.118444885,2_ND,training,05,1_A,136.0,11100,kill,0.0,7000.0,2.25358186186
136,2_35_2,35,2.0,750.056151278,2_ND,training,05,1_A,137.0,11001,ignore,1.0,7100.0,1.28180200699
137,2_35_2,35,2.0,753.759325567,2_ND,training,05,1_A,138.0,00000,kill,1.0,7200.0,1.03234431525
138,2_35_2,35,2.0,757.790891931,2_ND,training,05,1_A,139.0,10100,ignore,1.0,7300.0,1.37864939381
139,2_35_2,35,2.0,762.588013633,2_ND,training,05,1_A,140.0,10111,ignore,1.0,7400.0,2.14007563579
140,2_35_2,35,2.0,766.119436722,2_ND,training,05,1_A,141.0,11101,ignore,1.0,7500.0,0.896555008366
141,2_35_2,35,2.0,775.014258889,2_ND,training,05,1_A,142.0,00100,ignore,0.0,7400.0,6.2407236962
142,2_35_2,35,2.0,778.876014621,2_ND,training,05,1_A,143.0,11011,ignore,1.0,7500.0,1.11115964471
143,2_35_2,35,2.0,782.266882577,2_ND,training,05,1_A,144.0,10011,ignore,1.0,7600.0,0.696141934509
144,2_35_2,35,2.0,786.176503889,2_ND,training,05,1_A,145.0,01000,kill,1.0,7700.0,1.26144184206
145,2_35_2,35,2.0,789.713371408,2_ND,training,05,1_A,146.0,01011,ignore,1.0,7800.0,0.942021048621
146,2_35_2,35,2.0,793.151051117,2_ND,training,05,1_A,147.0,01101,ignore,1.0,7900.0,0.770404912549
147,2_35_2,35,2.0,796.619596828,2_ND,training,05,1_A,148.0,00011,ignore,1.0,8000.0,0.787474690913
148,2_35_2,35,2.0,801.060466755,2_ND,training,05,1_A,149.0,11000,kill,1.0,8100.0,1.82328797266
149,2_35_2,35,2.0,804.685691108,2_ND,training,05,1_A,150.0,01111,ignore,1.0,8200.0,0.986523578298
150,2_35_2,35,2.0,807.998324633,2_ND,training,05,1_A,151.0,10001,ignore,1.0,8300.0,0.651956743424
151,2_35_2,35,2.0,811.392417291,2_ND,training,05,1_A,152.0,00001,ignore,1.0,8400.0,0.722532764286
152,2_35_2,35,2.0,814.850765472,2_ND,training,05,1_A,153.0,11111,ignore,1.0,8500.0,0.813111379688
153,2_35_2,35,2.0,818.729055242,2_ND,training,05,1_A,154.0,11010,kill,1.0,8600.0,1.24718705817
154,2_35_2,35,2.0,822.276048038,2_ND,training,05,1_A,155.0,00010,kill,1.0,8700.0,0.900317092275
155,2_35_2,35,2.0,826.343616937,2_ND,training,05,1_A,156.0,10110,ignore,1.0,8800.0,1.40771563835
156,2_35_2,35,2.0,830.065890658,2_ND,training,05,1_A,157.0,00111,ignore,1.0,8900.0,1.10406694243
157,2_35_2,35,2.0,835.022922274,2_ND,training,05,1_A,158.0,01100,ignore,0.0,8800.0,2.27845373589
158,2_35_2,35,2.0,839.44794046,2_ND,training,05,1_A,159.0,01110,ignore,0.0,8700.0,1.74729215348
159,2_35_2,35,2.0,842.889027146,2_ND,training,05,1_A,160.0,10101,ignore,1.0,8800.0,0.77497902199
