,unique_id,pair_id,sbj_id,wall_time,condition,block,rule_id,rule_num,trial,stimulus,choice,correct,points,reaction_time
0,2_11_1,11,1.0,19.3163813906,2_ND,training,01,1_A,1.0,11100,kill,0.0,0.0,2.27857338151
1,2_11_1,11,1.0,23.4733850435,2_ND,training,01,1_A,2.0,01110,ignore,0.0,0.0,1.98958120372
2,2_11_1,11,1.0,27.4743013425,2_ND,training,01,1_A,3.0,00110,kill,1.0,100.0,1.80240454603
3,2_11_1,11,1.0,30.7244665801,2_ND,training,01,1_A,4.0,01000,ignore,1.0,200.0,1.13147125933
4,2_11_1,11,1.0,34.4069295525,2_ND,training,01,1_A,5.0,00100,kill,0.0,100.0,1.49205956272
5,2_11_1,11,1.0,38.0122739734,2_ND,training,01,1_A,6.0,11000,ignore,1.0,200.0,1.43937359959
6,2_11_1,11,1.0,41.0374873865,2_ND,training,01,1_A,7.0,00001,ignore,1.0,300.0,0.86324811588
7,2_11_1,11,1.0,43.8657605487,2_ND,training,01,1_A,8.0,11010,ignore,1.0,400.0,0.669535027502
8,2_11_1,11,1.0,46.5533937138,2_ND,training,01,1_A,9.0,11011,ignore,1.0,500.0,0.502819097444
9,2_11_1,11,1.0,49.1628951437,2_ND,training,01,1_A,10.0,00011,ignore,0.0,400.0,0.448029587591
10,2_11_1,11,1.0,53.241232143,2_ND,training,01,1_A,11.0,10011,ignore,1.0,500.0,1.90467411036
11,2_11_1,11,1.0,56.5694404418,2_ND,training,01,1_A,12.0,10100,kill,0.0,400.0,1.12522999845
12,2_11_1,11,1.0,59.3664424361,2_ND,training,01,1_A,13.0,10000,ignore,1.0,500.0,0.643994833912
13,2_11_1,11,1.0,62.6791192199,2_ND,training,01,1_A,14.0,10111,kill,1.0,600.0,1.14477155335
14,2_11_1,11,1.0,66.6011779697,2_ND,training,01,1_A,15.0,01001,ignore,1.0,700.0,1.75971822984
15,2_11_1,11,1.0,69.6794780215,2_ND,training,01,1_A,16.0,00111,kill,1.0,800.0,0.923828537132
16,2_11_1,11,1.0,73.2264843264,2_ND,training,01,1_A,17.0,11111,kill,1.0,900.0,1.38717164925
17,2_11_1,11,1.0,77.0547878677,2_ND,training,01,1_A,18.0,01011,ignore,0.0,800.0,1.67951250592
18,2_11_1,11,1.0,81.2268825388,2_ND,training,01,1_A,19.0,11110,kill,1.0,900.0,2.02090368761
19,2_11_1,11,1.0,84.4770042605,2_ND,training,01,1_A,20.0,01101,kill,0.0,800.0,1.09931293993
20,2_11_1,11,1.0,89.2272832144,2_ND,training,01,1_A,21.0,10110,kill,1.0,900.0,2.59999031153
21,2_11_1,11,1.0,92.5243065562,2_ND,training,01,1_A,22.0,01010,ignore,0.0,800.0,1.17294898037
22,2_11_1,11,1.0,96.6651005014,2_ND,training,01,1_A,23.0,11101,kill,0.0,700.0,1.99557614765
23,2_11_1,11,1.0,99.8996283077,2_ND,training,01,1_A,24.0,01111,kill,1.0,800.0,1.08071806316
24,2_11_1,11,1.0,102.712282102,2_ND,training,01,1_A,25.0,10010,kill,0.0,700.0,0.672199766328
25,2_11_1,11,1.0,106.884361994,2_ND,training,01,1_A,26.0,11001,ignore,1.0,800.0,2.04926051547
26,2_11_1,11,1.0,110.040728507,2_ND,training,01,1_A,27.0,00010,ignore,0.0,700.0,1.01939869107
27,2_11_1,11,1.0,112.853352333,2_ND,training,01,1_A,28.0,00101,ignore,1.0,800.0,0.63549936245
28,2_11_1,11,1.0,115.400384911,2_ND,training,01,1_A,29.0,00000,ignore,1.0,900.0,0.390598328493
29,2_11_1,11,1.0,118.197365969,2_ND,training,01,1_A,30.0,10001,ignore,1.0,1000.0,0.564988262999
30,2_11_1,11,1.0,121.447490564,2_ND,training,01,1_A,31.0,01100,kill,0.0,900.0,1.11567741676
31,2_11_1,11,1.0,124.135134403,2_ND,training,01,1_A,32.0,10101,ignore,1.0,1000.0,0.512714880746
32,2_11_1,11,1.0,127.416532219,2_ND,training,01,1_A,33.0,00110,kill,1.0,1100.0,1.06759101206
33,2_11_1,11,1.0,130.166674877,2_ND,training,01,1_A,34.0,00011,kill,1.0,1200.0,0.571381829855
34,2_11_1,11,1.0,132.948079672,2_ND,training,01,1_A,35.0,10110,kill,1.0,1300.0,0.630580823568
35,2_11_1,11,1.0,137.151375311,2_ND,training,01,1_A,36.0,00100,kill,0.0,1200.0,2.02230358892
36,2_11_1,11,1.0,140.682754037,2_ND,training,01,1_A,37.0,00001,ignore,1.0,1300.0,1.35041746617
37,2_11_1,11,1.0,144.432944317,2_ND,training,01,1_A,38.0,00111,kill,1.0,1400.0,1.57420544311
38,2_11_1,11,1.0,147.823747909,2_ND,training,01,1_A,39.0,11011,ignore,1.0,1500.0,1.24572783784
39,2_11_1,11,1.0,154.620944084,2_ND,training,01,1_A,40.0,00101,kill,0.0,1400.0,4.63623913434
40,2_11_1,11,1.0,158.386739774,2_ND,training,01,1_A,41.0,01011,ignore,0.0,1300.0,1.60407014121
41,2_11_1,11,1.0,164.824513955,2_ND,training,01,1_A,42.0,11000,kill,0.0,1200.0,4.24675333739
42,2_11_1,11,1.0,168.387222965,2_ND,training,01,1_A,43.0,11010,ignore,1.0,1300.0,1.37104404722
43,2_11_1,11,1.0,177.840772516,2_ND,training,01,1_A,44.0,01111,kill,1.0,1400.0,7.29126116739
44,2_11_1,11,1.0,181.872200505,2_ND,training,01,1_A,45.0,11001,kill,0.0,1300.0,1.89548648828
45,2_11_1,11,1.0,186.809924602,2_ND,training,01,1_A,46.0,10011,ignore,1.0,1400.0,2.77436875125
46,2_11_1,11,1.0,189.856948149,2_ND,training,01,1_A,47.0,10111,kill,1.0,1500.0,0.886600193933
47,2_11_1,11,1.0,193.403986476,2_ND,training,01,1_A,48.0,10010,ignore,1.0,1600.0,1.3698461258
48,2_11_1,11,1.0,197.044814084,2_ND,training,01,1_A,49.0,01010,ignore,0.0,1500.0,1.50165483935
49,2_11_1,11,1.0,201.826312479,2_ND,training,01,1_A,50.0,01100,kill,0.0,1400.0,2.62309812528
50,2_11_1,11,1.0,204.998267981,2_ND,training,01,1_A,51.0,11110,ignore,0.0,1300.0,1.02371334291
51,2_11_1,11,1.0,209.186021021,2_ND,training,01,1_A,52.0,00010,kill,1.0,1400.0,2.01799098973
52,2_11_1,11,1.0,213.717426021,2_ND,training,01,1_A,53.0,10000,ignore,1.0,1500.0,2.37037611777
53,2_11_1,11,1.0,217.436387828,2_ND,training,01,1_A,54.0,00000,kill,0.0,1400.0,1.56259077806
54,2_11_1,11,1.0,221.842828031,2_ND,training,01,1_A,55.0,11111,kill,1.0,1500.0,2.26452428398
55,2_11_1,11,1.0,226.186796509,2_ND,training,01,1_A,56.0,01000,ignore,1.0,1600.0,2.19326191784
56,2_11_1,11,1.0,231.280816097,2_ND,training,01,1_A,57.0,01101,kill,0.0,1500.0,2.91570746743
57,2_11_1,11,1.0,235.030938229,2_ND,training,01,1_A,58.0,11101,kill,0.0,1400.0,1.58633450005
58,2_11_1,11,1.0,238.202976248,2_ND,training,01,1_A,59.0,01001,ignore,1.0,1500.0,1.04168544833
59,2_11_1,11,1.0,240.874956381,2_ND,training,01,1_A,60.0,10100,ignore,1.0,1600.0,0.490489702721
60,2_11_1,11,1.0,243.703244323,2_ND,training,01,1_A,61.0,01110,ignore,0.0,1500.0,0.563842068143
61,2_11_1,11,1.0,246.265895859,2_ND,training,01,1_A,62.0,11100,ignore,1.0,1600.0,0.422700816049
62,2_11_1,11,1.0,248.797227374,2_ND,training,01,1_A,63.0,10001,ignore,1.0,1700.0,0.358139091895
63,2_11_1,11,1.0,251.266109334,2_ND,training,01,1_A,64.0,10101,ignore,1.0,1800.0,0.302533041366
64,2_11_1,11,1.0,253.703700419,2_ND,training,01,1_A,65.0,11001,ignore,1.0,1900.0,0.262304968295
65,2_11_1,11,1.0,256.156956442,2_ND,training,01,1_A,66.0,11101,ignore,1.0,2000.0,0.283544878537
66,2_11_1,11,1.0,258.703953715,2_ND,training,01,1_A,67.0,00001,ignore,1.0,2100.0,0.397385591938
67,2_11_1,11,1.0,261.188405779,2_ND,training,01,1_A,68.0,10001,ignore,1.0,2200.0,0.312150897045
68,2_11_1,11,1.0,263.626060497,2_ND,training,01,1_A,69.0,10010,ignore,1.0,2300.0,0.275607725485
69,2_11_1,11,1.0,266.001127721,2_ND,training,01,1_A,70.0,01011,ignore,0.0,2200.0,0.215998203528
70,2_11_1,11,1.0,269.141887182,2_ND,training,01,1_A,71.0,10101,kill,0.0,2100.0,0.931466415093
71,2_11_1,11,1.0,271.563908163,2_ND,training,01,1_A,72.0,00111,ignore,0.0,2000.0,0.26405628178
72,2_11_1,11,1.0,274.360936021,2_ND,training,01,1_A,73.0,10100,ignore,1.0,2100.0,0.602285164414
73,2_11_1,11,1.0,277.126679163,2_ND,training,01,1_A,74.0,00010,ignore,0.0,2000.0,0.614255757453
74,2_11_1,11,1.0,279.579915891,2_ND,training,01,1_A,75.0,01100,ignore,1.0,2100.0,0.294471908785
75,2_11_1,11,1.0,283.470742063,2_ND,training,01,1_A,76.0,11011,ignore,1.0,2200.0,1.73535296808
76,2_11_1,11,1.0,287.283395857,2_ND,training,01,1_A,77.0,00000,kill,0.0,2100.0,1.6237147387
77,2_11_1,11,1.0,289.846007982,2_ND,training,01,1_A,78.0,10110,ignore,0.0,2000.0,0.370221348618
78,2_11_1,11,1.0,292.283656542,2_ND,training,01,1_A,79.0,00100,ignore,1.0,2100.0,0.251500275464
79,2_11_1,11,1.0,294.830609478,2_ND,training,01,1_A,80.0,01010,ignore,0.0,2000.0,0.408599170898
80,2_11_1,11,1.0,297.221368734,2_ND,training,01,1_A,81.0,11111,ignore,0.0,1900.0,0.234116867539
81,2_11_1,11,1.0,299.643349073,2_ND,training,01,1_A,82.0,01001,ignore,1.0,2000.0,0.254267646351
82,2_11_1,11,1.0,302.080958222,2_ND,training,01,1_A,83.0,01101,ignore,1.0,2100.0,0.262286494524
83,2_11_1,11,1.0,304.534205213,2_ND,training,01,1_A,84.0,10000,ignore,1.0,2200.0,0.284344587555
84,2_11_1,11,1.0,307.1905512,2_ND,training,01,1_A,85.0,01000,ignore,1.0,2300.0,0.514940764879
85,2_11_1,11,1.0,309.596913402,2_ND,training,01,1_A,86.0,10111,ignore,0.0,2200.0,0.239240260011
86,2_11_1,11,1.0,311.956419553,2_ND,training,01,1_A,87.0,00011,ignore,0.0,2100.0,0.184117811754
87,2_11_1,11,1.0,314.440917186,2_ND,training,01,1_A,88.0,11100,ignore,1.0,2200.0,0.324297196175
88,2_11_1,11,1.0,316.925376229,2_ND,training,01,1_A,89.0,00110,ignore,0.0,2100.0,0.306253248305
89,2_11_1,11,1.0,319.378635535,2_ND,training,01,1_A,90.0,10011,ignore,1.0,2200.0,0.310959544084
90,2_11_1,11,1.0,321.894409673,2_ND,training,01,1_A,91.0,00101,ignore,1.0,2300.0,0.332084506419
91,2_11_1,11,1.0,324.363236211,2_ND,training,01,1_A,92.0,11000,ignore,1.0,2400.0,0.299282889266
92,2_11_1,11,1.0,326.61333289,2_ND,training,01,1_A,93.0,11010,ignore,1.0,2500.0,0.0975316578842
93,2_11_1,11,1.0,328.785321234,2_ND,training,01,1_A,94.0,11110,ignore,0.0,2400.0,0.000956941334152
94,2_11_1,11,1.0,331.191720795,2_ND,training,01,1_A,95.0,01111,ignore,0.0,2300.0,0.259840567252
95,2_11_1,11,1.0,333.441832253,2_ND,training,01,1_A,96.0,01110,ignore,0.0,2200.0,0.073332249538
96,2_11_1,11,1.0,336.316966393,2_ND,training,01,1_A,97.0,10111,ignore,0.0,2100.0,0.683632567368
97,2_11_1,11,1.0,339.004534695,2_ND,training,01,1_A,98.0,00010,ignore,0.0,2000.0,0.510178226732
98,2_11_1,11,1.0,341.41091414,2_ND,training,01,1_A,99.0,00011,ignore,0.0,1900.0,0.233921045567
99,2_11_1,11,1.0,343.989143991,2_ND,training,01,1_A,100.0,01011,ignore,0.0,1800.0,0.435402970417
100,2_11_1,11,1.0,346.442383593,2_ND,training,01,1_A,101.0,11111,ignore,0.0,1700.0,0.299064488241
101,2_11_1,11,1.0,349.176901957,2_ND,training,01,1_A,102.0,10010,ignore,1.0,1800.0,0.577803723163
102,2_11_1,11,1.0,351.598891738,2_ND,training,01,1_A,103.0,01001,ignore,1.0,1900.0,0.263368236445
103,2_11_1,11,1.0,354.1927582,2_ND,training,01,1_A,104.0,01010,ignore,0.0,1800.0,0.456984440159
104,2_11_1,11,1.0,356.630391981,2_ND,training,01,1_A,105.0,10000,ignore,1.0,1900.0,0.282546063321
105,2_11_1,11,1.0,359.068029046,2_ND,training,01,1_A,106.0,11110,ignore,0.0,1800.0,0.298083736268
106,2_11_1,11,1.0,361.47437688,2_ND,training,01,1_A,107.0,10001,ignore,1.0,1900.0,0.248822399735
107,2_11_1,11,1.0,363.974507017,2_ND,training,01,1_A,108.0,00110,ignore,0.0,1800.0,0.339735521284
108,2_11_1,11,1.0,366.615213109,2_ND,training,01,1_A,109.0,10011,ignore,1.0,1900.0,0.469847111071
109,2_11_1,11,1.0,369.146578699,2_ND,training,01,1_A,110.0,10100,ignore,1.0,2000.0,0.350333307881
110,2_11_1,11,1.0,371.834248401,2_ND,training,01,1_A,111.0,11100,kill,0.0,1900.0,0.541234277795
111,2_11_1,11,1.0,374.365607832,2_ND,training,01,1_A,112.0,00111,ignore,0.0,1800.0,0.360208564769
112,2_11_1,11,1.0,380.553349787,2_ND,training,01,1_A,113.0,11010,kill,0.0,1700.0,4.04988246576
113,2_11_1,11,1.0,383.10036184,2_ND,training,01,1_A,114.0,00001,ignore,1.0,1800.0,0.374928054925
114,2_11_1,11,1.0,386.788048373,2_ND,training,01,1_A,115.0,11001,kill,0.0,1700.0,1.52127152092
115,2_11_1,11,1.0,390.366364846,2_ND,training,01,1_A,116.0,10110,kill,1.0,1800.0,1.41758850784
116,2_11_1,11,1.0,393.788398143,2_ND,training,01,1_A,117.0,01000,ignore,1.0,1900.0,1.25163780243
117,2_11_1,11,1.0,397.388574014,2_ND,training,01,1_A,118.0,01111,ignore,0.0,1800.0,1.45335947577
118,2_11_1,11,1.0,401.876665,2_ND,training,01,1_A,119.0,11000,ignore,1.0,1900.0,2.36668670044
119,2_11_1,11,1.0,405.486129072,2_ND,training,01,1_A,120.0,10101,kill,0.0,1800.0,1.43941834716
120,2_11_1,11,1.0,408.198752323,2_ND,training,01,1_A,121.0,11011,ignore,1.0,1900.0,0.569623947918
121,2_11_1,11,1.0,410.898374144,2_ND,training,01,1_A,122.0,01101,ignore,1.0,2000.0,0.51678444722
122,2_11_1,11,1.0,413.617242761,2_ND,training,01,1_A,123.0,01100,ignore,1.0,2100.0,0.571033291377
123,2_11_1,11,1.0,416.242403791,2_ND,training,01,1_A,124.0,00100,ignore,1.0,2200.0,0.455956066909
124,2_11_1,11,1.0,419.008115322,2_ND,training,01,1_A,125.0,00000,ignore,1.0,2300.0,0.59542072166
125,2_11_1,11,1.0,422.336427074,2_ND,training,01,1_A,126.0,00101,ignore,1.0,2400.0,1.17316943404
126,2_11_1,11,1.0,425.367786095,2_ND,training,01,1_A,127.0,01110,ignore,0.0,2300.0,0.882712901999
127,2_11_1,11,1.0,428.477317494,2_ND,training,01,1_A,128.0,11101,ignore,1.0,2400.0,0.957204072769
128,2_11_1,11,1.0,431.664996227,2_ND,training,01,1_A,129.0,01011,ignore,0.0,2300.0,1.01274731248
129,2_11_1,11,1.0,435.587066061,2_ND,training,01,1_A,130.0,11100,ignore,1.0,2400.0,1.74956340321
130,2_11_1,11,1.0,440.524759369,2_ND,training,01,1_A,131.0,00111,ignore,0.0,2300.0,2.80657961826
131,2_11_1,11,1.0,443.868640815,2_ND,training,01,1_A,132.0,11001,ignore,1.0,2400.0,1.13824087006
132,2_11_1,11,1.0,451.07212776,2_ND,training,01,1_A,133.0,10011,ignore,1.0,2500.0,5.02844509144
133,2_11_1,11,1.0,456.77554122,2_ND,training,01,1_A,134.0,00010,ignore,0.0,2400.0,3.54273927433
134,2_11_1,11,1.0,459.525656784,2_ND,training,01,1_A,135.0,10100,ignore,1.0,2500.0,0.584570460194
135,2_11_1,11,1.0,462.322643999,2_ND,training,01,1_A,136.0,11010,ignore,1.0,2600.0,0.657721666777
136,2_11_1,11,1.0,464.775901664,2_ND,training,01,1_A,137.0,01110,ignore,0.0,2500.0,0.313743336101
137,2_11_1,11,1.0,469.25116159,2_ND,training,01,1_A,138.0,01000,ignore,1.0,2600.0,2.34259567155
138,2_11_1,11,1.0,472.610710846,2_ND,training,01,1_A,139.0,11110,kill,1.0,2700.0,1.21831070912
139,2_11_1,11,1.0,477.142154025,2_ND,training,01,1_A,140.0,00110,kill,1.0,2800.0,2.38041681754
140,2_11_1,11,1.0,480.095417437,2_ND,training,01,1_A,141.0,10111,ignore,0.0,2700.0,0.798224547454
141,2_11_1,11,1.0,483.267456687,2_ND,training,01,1_A,142.0,01101,kill,0.0,2600.0,1.04934713693
142,2_11_1,11,1.0,485.958194677,2_ND,training,01,1_A,143.0,00101,ignore,1.0,2700.0,0.537577702733
143,2_11_1,11,1.0,488.92707951,2_ND,training,01,1_A,144.0,01001,ignore,1.0,2800.0,0.818018577225
144,2_11_1,11,1.0,491.614743054,2_ND,training,01,1_A,145.0,11101,ignore,1.0,2900.0,0.558763423249
145,2_11_1,11,1.0,496.568113204,2_ND,training,01,1_A,146.0,11011,ignore,1.0,3000.0,2.77979921885
146,2_11_1,11,1.0,500.349533188,2_ND,training,01,1_A,147.0,11000,ignore,1.0,3100.0,1.66574297812
147,2_11_1,11,1.0,503.974704481,2_ND,training,01,1_A,148.0,01111,kill,1.0,3200.0,1.46878671662
148,2_11_1,11,1.0,507.615484058,2_ND,training,01,1_A,149.0,00011,ignore,0.0,3100.0,1.47403901496
149,2_11_1,11,1.0,514.115818638,2_ND,training,01,1_A,150.0,10010,kill,0.0,3000.0,4.35830371372
150,2_11_1,11,1.0,517.865977718,2_ND,training,01,1_A,151.0,10110,kill,1.0,3100.0,1.58662392247
151,2_11_1,11,1.0,521.163009271,2_ND,training,01,1_A,152.0,01010,kill,1.0,3200.0,1.11842261912
152,2_11_1,11,1.0,524.053762779,2_ND,training,01,1_A,153.0,11111,ignore,0.0,3100.0,0.746982822677
153,2_11_1,11,1.0,528.022658285,2_ND,training,01,1_A,154.0,10101,kill,0.0,3000.0,1.79658325554
154,2_11_1,11,1.0,530.804056922,2_ND,training,01,1_A,155.0,00100,ignore,1.0,3100.0,0.613529122464
155,2_11_1,11,1.0,534.679270705,2_ND,training,01,1_A,156.0,10001,kill,0.0,3000.0,1.70178078941
156,2_11_1,11,1.0,552.195696761,2_ND,training,01,1_A,157.0,01100,kill,0.0,2900.0,15.375880891
157,2_11_1,11,1.0,555.320853685,2_ND,training,01,1_A,158.0,10000,ignore,1.0,3000.0,0.954074615971
158,2_11_1,11,1.0,558.336623307,2_ND,training,01,1_A,159.0,00000,ignore,1.0,3100.0,0.86068970387
159,2_11_1,11,1.0,561.117979249,2_ND,training,01,1_A,160.0,00001,ignore,1.0,3200.0,0.605390400044
160,2_11_1,11,1.0,565.040056883,2_ND,training,01,1_A,161.0,01110,kill,1.0,3300.0,1.75769350454
161,2_11_1,11,1.0,568.508938021,2_ND,training,01,1_A,162.0,00010,ignore,0.0,3200.0,1.32519378986
162,2_11_1,11,1.0,572.94668675,2_ND,training,01,1_A,163.0,10100,kill,0.0,3100.0,2.27662994081
163,2_11_1,11,1.0,578.696932451,2_ND,training,01,1_A,164.0,11000,ignore,1.0,3200.0,3.61063407729
164,2_11_1,11,1.0,583.322161218,2_ND,training,01,1_A,165.0,00101,ignore,1.0,3300.0,2.46084586881
165,2_11_1,11,1.0,586.228543947,2_ND,training,01,1_A,166.0,00001,ignore,1.0,3400.0,0.725632890866
166,2_11_1,11,1.0,590.05682614,2_ND,training,01,1_A,167.0,11100,kill,0.0,3300.0,1.61075271995
167,2_11_1,11,1.0,593.072626551,2_ND,training,01,1_A,168.0,10011,ignore,1.0,3400.0,0.77823756941
168,2_11_1,11,1.0,595.900879187,2_ND,training,01,1_A,169.0,11011,ignore,1.0,3500.0,0.68817752555
169,2_11_1,11,1.0,598.760408328,2_ND,training,01,1_A,170.0,10110,ignore,0.0,3400.0,0.714390164399
170,2_11_1,11,1.0,601.573020248,2_ND,training,01,1_A,171.0,11111,ignore,0.0,3300.0,0.654438261889
171,2_11_1,11,1.0,605.838818401,2_ND,training,01,1_A,172.0,00110,kill,1.0,3400.0,2.10794470677
172,2_11_1,11,1.0,609.057738745,2_ND,training,01,1_A,173.0,11110,kill,1.0,3500.0,1.06794201371
173,2_11_1,11,1.0,612.261009341,2_ND,training,01,1_A,174.0,00000,kill,0.0,3400.0,1.02180643922
174,2_11_1,11,1.0,615.183032375,2_ND,training,01,1_A,175.0,11101,ignore,1.0,3500.0,0.781537805957
175,2_11_1,11,1.0,618.198785986,2_ND,training,01,1_A,176.0,11001,ignore,1.0,3600.0,0.86217335294
176,2_11_1,11,1.0,622.10518801,2_ND,training,01,1_A,177.0,10111,kill,1.0,3700.0,1.7785688657
177,2_11_1,11,1.0,626.636662389,2_ND,training,01,1_A,178.0,01010,kill,1.0,3800.0,2.39212549356
178,2_11_1,11,1.0,630.168093663,2_ND,training,01,1_A,179.0,00111,kill,1.0,3900.0,1.35068882534
179,2_11_1,11,1.0,633.418273269,2_ND,training,01,1_A,180.0,01101,kill,0.0,3800.0,1.09236762311
180,2_11_1,11,1.0,637.340295892,2_ND,training,01,1_A,181.0,00011,ignore,0.0,3700.0,1.74844799798
181,2_11_1,11,1.0,640.277949789,2_ND,training,01,1_A,182.0,10000,kill,0.0,3600.0,0.776930858012
182,2_11_1,11,1.0,643.199957633,2_ND,training,01,1_A,183.0,01011,ignore,0.0,3500.0,0.776193959815
183,2_11_1,11,1.0,646.387621178,2_ND,training,01,1_A,184.0,10101,kill,0.0,3400.0,1.01869791936
184,2_11_1,11,1.0,649.434618451,2_ND,training,01,1_A,185.0,01100,kill,0.0,3300.0,0.902456436796
185,2_11_1,11,1.0,652.606662217,2_ND,training,01,1_A,186.0,11010,ignore,1.0,3400.0,1.0431937291
186,2_11_1,11,1.0,656.028683198,2_ND,training,01,1_A,187.0,00100,kill,0.0,3300.0,1.22841380919
187,2_11_1,11,1.0,660.872656602,2_ND,training,01,1_A,188.0,01001,ignore,1.0,3400.0,2.70147987221
188,2_11_1,11,1.0,664.075942388,2_ND,training,01,1_A,189.0,10001,ignore,1.0,3500.0,1.03376841117
189,2_11_1,11,1.0,666.888555129,2_ND,training,01,1_A,190.0,10010,ignore,1.0,3600.0,0.687521090889
190,2_11_1,11,1.0,672.107532126,2_ND,training,01,1_A,191.0,01000,ignore,1.0,3700.0,3.06902088193
191,2_11_1,11,1.0,675.529554749,2_ND,training,01,1_A,192.0,01111,ignore,0.0,3600.0,1.26261368553
192,2_11_1,11,1.0,678.93604011,2_ND,training,01,1_A,193.0,10010,ignore,1.0,3700.0,1.25149411754
193,2_11_1,11,1.0,681.811157008,2_ND,training,01,1_A,194.0,11001,ignore,1.0,3800.0,0.716295015449
194,2_11_1,11,1.0,684.889389733,2_ND,training,01,1_A,195.0,00111,ignore,0.0,3700.0,0.948870349433
195,2_11_1,11,1.0,687.655161613,2_ND,training,01,1_A,196.0,11011,ignore,1.0,3800.0,0.615928249515
196,2_11_1,11,1.0,692.499164986,2_ND,training,01,1_A,197.0,11000,kill,0.0,3700.0,2.70245405573
197,2_11_1,11,1.0,696.452468629,2_ND,training,01,1_A,198.0,01101,ignore,1.0,3800.0,1.80443707136
198,2_11_1,11,1.0,699.42133581,2_ND,training,01,1_A,199.0,10111,ignore,0.0,3700.0,0.801681605788
199,2_11_1,11,1.0,702.327714433,2_ND,training,01,1_A,200.0,00010,ignore,0.0,3600.0,0.77467664743
200,2_11_1,11,1.0,705.124751323,2_ND,training,01,1_A,201.0,00100,ignore,1.0,3700.0,0.660779691661
201,2_11_1,11,1.0,707.999838252,2_ND,training,01,1_A,202.0,01100,ignore,1.0,3800.0,0.715302768685
202,2_11_1,11,1.0,710.890606129,2_ND,training,01,1_A,203.0,01011,ignore,0.0,3700.0,0.728231945173
203,2_11_1,11,1.0,713.484482853,2_ND,training,01,1_A,204.0,11010,ignore,1.0,3800.0,0.46038402454
204,2_11_1,11,1.0,717.656545503,2_ND,training,01,1_A,205.0,10000,ignore,1.0,3900.0,2.06478464099
205,2_11_1,11,1.0,721.203616261,2_ND,training,01,1_A,206.0,01111,kill,1.0,4000.0,1.43207030214
206,2_11_1,11,1.0,725.938214678,2_ND,training,01,1_A,207.0,00011,ignore,0.0,3900.0,2.56709796764
207,2_11_1,11,1.0,730.297757366,2_ND,training,01,1_A,208.0,11100,ignore,1.0,4000.0,2.21794657057
208,2_11_1,11,1.0,733.719844443,2_ND,training,01,1_A,209.0,00001,ignore,1.0,4100.0,1.29812355751
209,2_11_1,11,1.0,737.079380562,2_ND,training,01,1_A,210.0,00000,ignore,1.0,4200.0,1.19267650456
210,2_11_1,11,1.0,740.688898824,2_ND,training,01,1_A,211.0,00110,kill,1.0,4300.0,1.39980565593
211,2_11_1,11,1.0,744.360926168,2_ND,training,01,1_A,212.0,11110,ignore,0.0,4200.0,1.485907797
212,2_11_1,11,1.0,747.845539159,2_ND,training,01,1_A,213.0,01000,ignore,1.0,4300.0,1.37839496594
213,2_11_1,11,1.0,751.876915012,2_ND,training,01,1_A,214.0,10110,kill,1.0,4400.0,1.87918359069
214,2_11_1,11,1.0,757.080275103,2_ND,training,01,1_A,215.0,01001,ignore,1.0,4500.0,3.0459220998
215,2_11_1,11,1.0,761.861780888,2_ND,training,01,1_A,216.0,01110,kill,1.0,4600.0,2.67787121401
216,2_11_1,11,1.0,765.424432424,2_ND,training,01,1_A,217.0,11101,kill,0.0,4500.0,1.40860245512
217,2_11_1,11,1.0,769.299634712,2_ND,training,01,1_A,218.0,11111,kill,1.0,4600.0,1.75713354402
218,2_11_1,11,1.0,772.362253406,2_ND,training,01,1_A,219.0,10101,kill,0.0,4500.0,0.887087901487
219,2_11_1,11,1.0,776.31554186,2_ND,training,01,1_A,220.0,10011,ignore,1.0,4600.0,1.80026076754
220,2_11_1,11,1.0,783.003383163,2_ND,training,01,1_A,221.0,01010,ignore,0.0,4500.0,4.55757207029
221,2_11_1,11,1.0,790.941259156,2_ND,training,01,1_A,222.0,00101,ignore,1.0,4600.0,5.7806038542
222,2_11_1,11,1.0,797.894707716,2_ND,training,01,1_A,223.0,10100,kill,0.0,4500.0,4.80902020866
223,2_11_1,11,1.0,801.191712174,2_ND,training,01,1_A,224.0,10001,ignore,1.0,4600.0,1.1617120013
224,2_11_1,11,1.0,804.223111016,2_ND,training,01,1_A,225.0,01000,ignore,1.0,4700.0,0.788283195518
225,2_11_1,11,1.0,807.395173255,2_ND,training,01,1_A,226.0,10100,ignore,1.0,4800.0,0.918182952733
226,2_11_1,11,1.0,810.270291795,2_ND,training,01,1_A,227.0,01110,ignore,0.0,4700.0,0.775455419507
227,2_11_1,11,1.0,813.223536323,2_ND,training,01,1_A,228.0,00101,ignore,1.0,4800.0,0.768111479765
228,2_11_1,11,1.0,816.12996421,2_ND,training,01,1_A,229.0,01111,ignore,0.0,4700.0,0.796082000552
229,2_11_1,11,1.0,819.630164137,2_ND,training,01,1_A,230.0,00010,kill,1.0,4800.0,1.34866245793
230,2_11_1,11,1.0,823.599020644,2_ND,training,01,1_A,231.0,10101,kill,0.0,4700.0,1.82006670263
231,2_11_1,11,1.0,826.989822184,2_ND,training,01,1_A,232.0,11001,ignore,1.0,4800.0,1.22757181576
232,2_11_1,11,1.0,831.114976235,2_ND,training,01,1_A,233.0,10010,ignore,1.0,4900.0,1.97013653348
233,2_11_1,11,1.0,834.412004503,2_ND,training,01,1_A,234.0,10001,ignore,1.0,5000.0,1.17934665251
234,2_11_1,11,1.0,837.349684673,2_ND,training,01,1_A,235.0,11011,ignore,1.0,5100.0,0.801894259421
235,2_11_1,11,1.0,840.224827434,2_ND,training,01,1_A,236.0,11010,ignore,1.0,5200.0,0.75332384192
236,2_11_1,11,1.0,936.979301987,2_ND,test,01,2,0.0,10111,kill,1.0,100.0,5.35381376633
237,2_11_1,11,1.0,940.479504788,2_ND,test,01,2,1.0,01101,ignore,1.0,200.0,1.36116879033
238,2_11_1,11,1.0,943.792134361,2_ND,test,01,2,2.0,11110,kill,0.0,100.0,1.21213677487
239,2_11_1,11,1.0,947.448565737,2_ND,test,01,2,3.0,11100,ignore,1.0,200.0,1.51995988318
240,2_11_1,11,1.0,950.667475407,2_ND,test,01,2,4.0,01001,ignore,1.0,300.0,1.11497089765
241,2_11_1,11,1.0,954.308251289,2_ND,test,01,2,5.0,01100,ignore,1.0,400.0,1.50245331678
242,2_11_1,11,1.0,957.324018037,2_ND,test,01,2,6.0,00001,ignore,1.0,500.0,0.854639749152
243,2_11_1,11,1.0,960.558554464,2_ND,test,01,2,7.0,00100,kill,0.0,400.0,1.11944647656
244,2_11_1,11,1.0,963.652422158,2_ND,test,01,2,8.0,00000,ignore,1.0,500.0,0.978844248048
245,2_11_1,11,1.0,966.999500798,2_ND,test,01,2,9.0,00111,kill,0.0,400.0,1.2368998385
246,2_11_1,11,1.0,971.015321735,2_ND,test,01,2,10.0,10110,kill,1.0,500.0,1.92912681464
247,2_11_1,11,1.0,997.704045674,2_ND,test,01,2,11.0,11101,ignore,0.0,400.0,24.5268419786
248,2_11_1,11,1.0,1008.93900166,2_ND,test,01,2,12.0,10000,kill,1.0,500.0,9.13101926773
249,2_11_1,11,1.0,1022.09581934,2_ND,test,01,2,13.0,11111,ignore,0.0,400.0,11.0655383708
250,2_11_1,11,1.0,1042.3624131,2_ND,test,01,2,14.0,10011,ignore,0.0,300.0,18.1346627059
251,2_11_1,11,1.0,1045.65940935,2_ND,test,01,2,15.0,01011,ignore,1.0,400.0,1.15887976695
252,2_11_1,11,1.0,1048.95647621,2_ND,test,01,2,16.0,01010,ignore,1.0,500.0,1.17986268651
253,2_11_1,11,1.0,1051.98786602,2_ND,test,01,2,17.0,00011,ignore,1.0,600.0,0.93210068123
254,2_11_1,11,1.0,1056.84745427,2_ND,test,01,2,18.0,00110,ignore,1.0,700.0,2.70944576224
255,2_11_1,11,1.0,1060.25383618,2_ND,test,01,2,19.0,11000,ignore,1.0,800.0,1.27702856373
256,2_11_1,11,1.0,1065.2540903,2_ND,test,01,2,20.0,01100,ignore,1.0,900.0,2.86369641272
257,2_11_1,11,1.0,1072.02005143,2_ND,test,01,2,21.0,11010,kill,0.0,800.0,4.64424730878
258,2_11_1,11,1.0,1075.067068,2_ND,test,01,2,22.0,01110,ignore,1.0,900.0,0.88751238769
259,2_11_1,11,1.0,1079.06720799,2_ND,test,01,2,23.0,01000,ignore,1.0,1000.0,1.83410102115
260,2_11_1,11,1.0,1082.53617903,2_ND,test,01,2,24.0,10100,kill,1.0,1100.0,1.31791471358
261,2_11_1,11,1.0,1085.81758013,2_ND,test,01,2,25.0,00001,ignore,1.0,1200.0,1.07375509363
262,2_11_1,11,1.0,1097.28686769,2_ND,test,01,2,26.0,00111,ignore,1.0,1300.0,9.32641059557
263,2_11_1,11,1.0,1100.84950117,2_ND,test,01,2,27.0,00100,ignore,1.0,1400.0,1.41785042486
264,2_11_1,11,1.0,1104.13094743,2_ND,test,01,2,28.0,11001,ignore,0.0,1300.0,1.17263574732
265,2_11_1,11,1.0,1107.89668359,2_ND,test,01,2,29.0,01001,ignore,1.0,1400.0,1.64630241317
266,2_11_1,11,1.0,1112.17818034,2_ND,test,01,2,30.0,10011,ignore,0.0,1300.0,2.1708417389
267,2_11_1,11,1.0,1115.63147085,2_ND,test,01,2,31.0,11000,ignore,1.0,1400.0,1.37376995475
268,2_11_1,11,1.0,1126.91322008,2_ND,test,01,2,32.0,11101,ignore,0.0,1300.0,9.12291420863
269,2_11_1,11,1.0,1130.31965782,2_ND,test,01,2,33.0,00101,ignore,1.0,1400.0,1.27837468584
270,2_11_1,11,1.0,1133.97606005,2_ND,test,01,2,34.0,01111,ignore,1.0,1500.0,1.47707158709
271,2_11_1,11,1.0,1137.10122231,2_ND,test,01,2,35.0,11011,ignore,0.0,1400.0,1.03118003059
272,2_11_1,11,1.0,1146.53915536,2_ND,test,01,2,36.0,11110,ignore,1.0,1500.0,7.29659516086
273,2_11_1,11,1.0,1150.86749749,2_ND,test,01,2,37.0,00110,kill,0.0,1400.0,2.19045924152
274,2_11_1,11,1.0,1153.63323037,2_ND,test,01,2,38.0,10101,ignore,0.0,1300.0,0.666389970631
275,2_11_1,11,1.0,1162.39928511,2_ND,test,01,2,39.0,11111,kill,1.0,1400.0,6.61649559955
276,2_11_1,11,1.0,1166.57133051,2_ND,test,01,2,40.0,10001,ignore,0.0,1300.0,2.03757236587
277,2_11_1,11,1.0,1170.75906097,2_ND,test,01,2,41.0,10111,kill,1.0,1400.0,2.0286655451
278,2_11_1,11,1.0,1174.33730643,2_ND,test,01,2,42.0,10110,kill,1.0,1500.0,1.4562364577
279,2_11_1,11,1.0,1177.79062321,2_ND,test,01,2,43.0,00010,ignore,1.0,1600.0,1.33763156404
280,2_11_1,11,1.0,1181.18137548,2_ND,test,01,2,44.0,10010,ignore,0.0,1500.0,1.26445613629
281,2_11_1,11,1.0,1188.74426348,2_ND,test,01,2,45.0,01011,ignore,1.0,1600.0,5.46529024757
282,2_11_1,11,1.0,1194.61954295,2_ND,test,01,2,46.0,00011,ignore,1.0,1700.0,3.75855150857
283,2_11_1,11,1.0,1201.02611206,2_ND,test,01,2,47.0,10000,ignore,0.0,1600.0,4.24975101462
284,2_11_1,11,1.0,1204.54189153,2_ND,test,01,2,48.0,11100,kill,0.0,1500.0,1.41810413131
285,2_11_1,11,1.0,1207.963908,2_ND,test,01,2,49.0,01101,kill,0.0,1400.0,1.30695278843
286,2_11_1,11,1.0,1210.979669,2_ND,test,01,2,50.0,00000,ignore,1.0,1500.0,0.871183216292
287,2_11_1,11,1.0,1215.46428486,2_ND,test,01,2,51.0,01010,ignore,1.0,1600.0,2.36864450964
288,2_11_1,11,1.0,1222.230207,2_ND,test,01,2,52.0,01011,ignore,1.0,1700.0,4.63851633451
289,2_11_1,11,1.0,1237.91841777,2_ND,test,01,2,53.0,00101,kill,0.0,1600.0,13.5523259299
290,2_11_1,11,1.0,1243.60624635,2_ND,test,01,2,54.0,10010,ignore,0.0,1500.0,3.56775891811
291,2_11_1,11,1.0,1246.79381383,2_ND,test,01,2,55.0,10101,kill,1.0,1600.0,1.03088321867
292,2_11_1,11,1.0,1253.87229821,2_ND,test,01,2,56.0,01101,ignore,1.0,1700.0,4.97608098244
293,2_11_1,11,1.0,1260.76325452,2_ND,test,01,2,57.0,00010,kill,0.0,1600.0,4.75968620863
294,2_11_1,11,1.0,1263.95087496,2_ND,test,01,2,58.0,01111,ignore,1.0,1700.0,1.08825987751
295,2_11_1,11,1.0,1267.85735663,2_ND,test,01,2,59.0,01000,ignore,1.0,1800.0,1.75314690425
296,2_11_1,11,1.0,1270.88874151,2_ND,test,01,2,60.0,10000,ignore,0.0,1700.0,0.871149963505
297,2_11_1,11,1.0,1277.4515433,2_ND,test,01,2,61.0,00110,ignore,1.0,1800.0,4.40022891055
298,2_11_1,11,1.0,1282.42052378,2_ND,test,01,2,62.0,11110,kill,0.0,1700.0,2.82407920568
299,2_11_1,11,1.0,1285.88945665,2_ND,test,01,2,63.0,11101,ignore,0.0,1600.0,1.36862562534
300,2_11_1,11,1.0,1289.63961327,2_ND,test,01,2,64.0,11111,kill,1.0,1700.0,1.58382740407
301,2_11_1,11,1.0,1292.67098214,2_ND,test,01,2,65.0,10011,ignore,0.0,1600.0,0.872716539279
302,2_11_1,11,1.0,1300.54635439,2_ND,test,01,2,66.0,01100,kill,0.0,1500.0,5.75832900226
303,2_11_1,11,1.0,1305.57784067,2_ND,test,01,2,67.0,00000,ignore,1.0,1600.0,2.8844440996
304,2_11_1,11,1.0,1317.70340279,2_ND,test,01,2,68.0,10110,kill,1.0,1700.0,10.013125409
305,2_11_1,11,1.0,1320.60977525,2_ND,test,01,2,69.0,11001,ignore,0.0,1600.0,0.785599161865
306,2_11_1,11,1.0,1323.7505577,2_ND,test,01,2,70.0,11010,kill,0.0,1500.0,0.997929295541
307,2_11_1,11,1.0,1326.65697902,2_ND,test,01,2,71.0,00111,kill,0.0,1400.0,0.81182042181
308,2_11_1,11,1.0,1330.59460377,2_ND,test,01,2,72.0,10100,ignore,0.0,1300.0,1.80414108049
309,2_11_1,11,1.0,1333.7510491,2_ND,test,01,2,73.0,10111,ignore,0.0,1200.0,1.01552699921
310,2_11_1,11,1.0,1336.92306003,2_ND,test,01,2,74.0,00001,ignore,1.0,1300.0,1.0381019473
311,2_11_1,11,1.0,1340.14197914,2_ND,test,01,2,75.0,01010,kill,0.0,1200.0,1.0832362434
312,2_11_1,11,1.0,1343.39215177,2_ND,test,01,2,76.0,11000,ignore,1.0,1300.0,1.13683604241
313,2_11_1,11,1.0,1346.79853819,2_ND,test,01,2,77.0,01110,kill,0.0,1200.0,1.24359678573
314,2_11_1,11,1.0,1350.11118008,2_ND,test,01,2,78.0,11100,kill,0.0,1100.0,1.19424800668
315,2_11_1,11,1.0,1353.37694087,2_ND,test,01,3,0.0,01001,ignore,0.0,1000.0,1.15964745477
316,2_11_1,11,1.0,1360.28355637,2_ND,test,01,3,1.0,00011,ignore,0.0,900.0,4.78240566266
317,2_11_1,11,1.0,1363.45557017,2_ND,test,01,3,2.0,10001,ignore,1.0,1000.0,0.959552294318
318,2_11_1,11,1.0,1369.15891589,2_ND,test,01,3,3.0,11011,kill,1.0,1100.0,3.58043110392
319,2_11_1,11,1.0,1373.01851277,2_ND,test,01,3,4.0,00100,ignore,1.0,1200.0,1.73151329742
320,2_11_1,11,1.0,1377.98751748,2_ND,test,01,3,5.0,11111,kill,0.0,1100.0,2.84871418449
321,2_11_1,11,1.0,1382.36272141,2_ND,test,01,3,6.0,00101,kill,0.0,1000.0,2.22774013234
322,2_11_1,11,1.0,1385.72221812,2_ND,test,01,3,7.0,10111,ignore,1.0,1100.0,1.24341574277
323,2_11_1,11,1.0,1390.06614883,2_ND,test,01,3,8.0,11100,ignore,1.0,1200.0,2.21610699351
324,2_11_1,11,1.0,1393.56638529,2_ND,test,01,3,9.0,10100,ignore,1.0,1300.0,1.35277882462
325,2_11_1,11,1.0,1397.25399629,2_ND,test,01,3,10.0,01000,kill,1.0,1400.0,1.62798464296
326,2_11_1,11,1.0,1401.25420566,2_ND,test,01,3,11.0,11010,kill,1.0,1500.0,1.92919578338
327,2_11_1,11,1.0,1404.06684221,2_ND,test,01,3,12.0,11000,kill,0.0,1400.0,0.672382040866
328,2_11_1,11,1.0,1407.08262291,2_ND,test,01,3,13.0,00100,kill,0.0,1300.0,0.883597179836
329,2_11_1,11,1.0,1409.97332716,2_ND,test,01,3,14.0,10000,ignore,1.0,1400.0,0.734418195269
330,2_11_1,11,1.0,1413.06721866,2_ND,test,01,3,15.0,01011,kill,1.0,1500.0,0.986169303489
331,2_11_1,11,1.0,1416.23927762,2_ND,test,01,3,16.0,00110,ignore,1.0,1600.0,1.06236047171
332,2_11_1,11,1.0,1420.00507536,2_ND,test,01,3,17.0,01111,kill,0.0,1500.0,1.60584074953
333,2_11_1,11,1.0,1424.00522931,2_ND,test,01,3,18.0,10001,ignore,1.0,1600.0,1.88665602578
334,2_11_1,11,1.0,1427.08351007,2_ND,test,01,3,19.0,01001,ignore,0.0,1500.0,0.949112150567
335,2_11_1,11,1.0,1431.97439412,2_ND,test,01,3,20.0,10110,ignore,1.0,1600.0,2.79343614603
336,2_11_1,11,1.0,1438.1934015,2_ND,test,01,3,21.0,01101,kill,0.0,1500.0,4.0588775501
337,2_11_1,11,1.0,1443.88121201,2_ND,test,01,3,22.0,11001,ignore,1.0,1600.0,3.51986628274
338,2_11_1,11,1.0,1447.03756498,2_ND,test,01,3,23.0,00001,ignore,0.0,1500.0,1.01210935159
339,2_11_1,11,1.0,1451.86594077,2_ND,test,01,3,24.0,00010,kill,1.0,1600.0,2.69052944185
340,2_11_1,11,1.0,1455.75671809,2_ND,test,01,3,25.0,11110,ignore,1.0,1700.0,1.78713248485
341,2_11_1,11,1.0,1459.60069437,2_ND,test,01,3,26.0,01010,kill,1.0,1800.0,1.71156039322
342,2_11_1,11,1.0,1463.11648862,2_ND,test,01,3,27.0,10010,kill,1.0,1900.0,1.39432715653
343,2_11_1,11,1.0,1467.27293601,2_ND,test,01,3,28.0,10101,kill,0.0,1800.0,2.04546107658
344,2_11_1,11,1.0,1470.99185389,2_ND,test,01,3,29.0,11101,kill,0.0,1700.0,1.57061865785
345,2_11_1,11,1.0,1474.33575176,2_ND,test,01,3,30.0,10011,ignore,0.0,1600.0,1.24089550989
346,2_11_1,11,1.0,1477.58586773,2_ND,test,01,3,31.0,01100,ignore,1.0,1700.0,1.12965467185
347,2_11_1,11,1.0,1480.58602496,2_ND,test,01,3,32.0,01110,ignore,1.0,1800.0,0.870012800271
348,2_11_1,11,1.0,1483.64866665,2_ND,test,01,3,33.0,00000,ignore,0.0,1700.0,0.947296384151
349,2_11_1,11,1.0,1486.69571113,2_ND,test,01,3,34.0,00111,kill,0.0,1600.0,0.944242464549
350,2_11_1,11,1.0,1489.36768798,2_ND,test,01,3,35.0,00011,kill,1.0,1700.0,0.517803788847
351,2_11_1,11,1.0,1492.00842076,2_ND,test,01,3,36.0,11011,ignore,0.0,1600.0,0.521019867101
352,2_11_1,11,1.0,1494.85233463,2_ND,test,01,3,37.0,00101,ignore,1.0,1700.0,0.707481384597
353,2_11_1,11,1.0,1497.89934381,2_ND,test,01,3,38.0,01000,ignore,0.0,1600.0,0.952292102338
354,2_11_1,11,1.0,1500.9619584,2_ND,test,01,3,39.0,01011,kill,1.0,1700.0,0.929880544492
355,2_11_1,11,1.0,1504.2277504,2_ND,test,01,3,40.0,00110,kill,0.0,1600.0,1.13202259876
356,2_11_1,11,1.0,1507.02479262,2_ND,test,01,3,41.0,01111,kill,0.0,1500.0,0.696640565282
357,2_11_1,11,1.0,1509.60302945,2_ND,test,01,3,42.0,10001,kill,0.0,1400.0,0.434692346029
358,2_11_1,11,1.0,1512.18126587,2_ND,test,01,3,43.0,01110,kill,0.0,1300.0,0.48680233804
359,2_11_1,11,1.0,1514.83762746,2_ND,test,01,3,44.0,10011,kill,1.0,1400.0,0.490398154921
360,2_11_1,11,1.0,1517.7596431,2_ND,test,01,3,45.0,01001,kill,1.0,1500.0,0.750093395174
361,2_11_1,11,1.0,1520.2753807,2_ND,test,01,3,46.0,11001,kill,0.0,1400.0,0.410877602648
362,2_11_1,11,1.0,1523.47865664,2_ND,test,01,3,47.0,11100,kill,0.0,1300.0,1.08197715328
363,2_11_1,11,1.0,1526.58820281,2_ND,test,01,3,48.0,11110,kill,0.0,1200.0,1.01053949159
364,2_11_1,11,1.0,1529.24456235,2_ND,test,01,3,49.0,01100,kill,0.0,1100.0,0.537663092608
365,2_11_1,11,1.0,1531.79152801,2_ND,test,01,3,50.0,00111,kill,0.0,1000.0,0.400805292204
366,2_11_1,11,1.0,1534.38542157,2_ND,test,01,3,51.0,11010,kill,1.0,1100.0,0.545871604827
367,2_11_1,11,1.0,1537.32305658,2_ND,test,01,3,52.0,00000,kill,1.0,1200.0,0.822870610529
368,2_11_1,11,1.0,1540.27634586,2_ND,test,01,3,53.0,01010,kill,1.0,1300.0,0.82340060249
369,2_11_1,11,1.0,1543.07330187,2_ND,test,01,3,54.0,11101,kill,0.0,1200.0,0.670057219424
370,2_11_1,11,1.0,1546.15160521,2_ND,test,01,3,55.0,01101,kill,0.0,1100.0,0.935593455521
371,2_11_1,11,1.0,1549.52676028,2_ND,test,01,3,56.0,11000,kill,0.0,1000.0,1.29596910529
372,2_11_1,11,1.0,1556.30834119,2_ND,test,01,3,57.0,10101,kill,0.0,900.0,4.6654490399
373,2_11_1,11,1.0,1579.27811975,2_ND,test,01,3,58.0,11111,ignore,1.0,1000.0,20.8146083191
374,2_11_1,11,1.0,1582.62208782,2_ND,test,01,3,59.0,11011,ignore,0.0,900.0,1.2408651308
375,2_11_1,11,1.0,1586.27849128,2_ND,test,01,3,60.0,10100,kill,0.0,800.0,1.48544225797
376,2_11_1,11,1.0,1589.32553658,2_ND,test,01,3,61.0,00100,kill,0.0,700.0,0.941607694283
377,2_11_1,11,1.0,1594.85700603,2_ND,test,01,3,62.0,10110,kill,0.0,600.0,3.39895955722
378,2_11_1,11,1.0,1598.3259196,2_ND,test,01,3,63.0,00010,kill,1.0,700.0,1.30360821483
379,2_11_1,11,1.0,1601.41978114,2_ND,test,01,3,64.0,00011,ignore,0.0,600.0,0.999505723998
380,2_11_1,11,1.0,1605.29501996,2_ND,test,01,3,65.0,10010,kill,1.0,700.0,1.681570484
381,2_11_1,11,1.0,1608.63890716,2_ND,test,01,3,66.0,10000,kill,0.0,600.0,1.22648145274
382,2_11_1,11,1.0,1611.76404027,2_ND,test,01,3,67.0,10111,kill,0.0,500.0,0.952047016981
383,2_11_1,11,1.0,1615.15481513,2_ND,test,01,3,68.0,00001,ignore,0.0,400.0,1.23984866287
384,2_11_1,11,1.0,1618.26434488,2_ND,test,01,3,69.0,01011,kill,1.0,500.0,0.988179660297
385,2_11_1,11,1.0,1621.24887741,2_ND,test,01,3,70.0,00010,ignore,0.0,400.0,0.83317117468
386,2_11_1,11,1.0,1624.35841374,2_ND,test,01,3,71.0,01001,kill,1.0,500.0,1.01432743568
387,2_11_1,11,1.0,1628.07734352,2_ND,test,01,3,72.0,10001,ignore,1.0,600.0,1.56756022244
388,2_11_1,11,1.0,1631.26499311,2_ND,test,01,3,73.0,11100,ignore,1.0,700.0,1.07806810335
389,2_11_1,11,1.0,1635.28077463,2_ND,test,01,3,74.0,01101,kill,0.0,600.0,1.92972125953
390,2_11_1,11,1.0,1640.7966358,2_ND,test,01,3,75.0,01010,ignore,0.0,500.0,3.42513155377
391,2_11_1,11,1.0,1644.54685893,2_ND,test,01,3,76.0,00111,kill,0.0,400.0,1.58548142236
392,2_11_1,11,1.0,1647.67529063,2_ND,test,01,3,77.0,11011,ignore,0.0,300.0,1.00605734423
393,2_11_1,11,1.0,1651.27224591,2_ND,test,01,3,78.0,10110,ignore,1.0,400.0,1.48245361236
394,2_11_1,11,1.0,1654.54111481,2_ND,test,01,3,79.0,10010,kill,1.0,500.0,1.19442781805
395,2_11_1,11,1.0,1657.76005692,2_ND,test,01,3,80.0,01110,ignore,1.0,600.0,1.06098438104
396,2_11_1,11,1.0,1662.10711092,2_ND,test,01,3,81.0,00100,kill,0.0,500.0,2.21409417354
397,2_11_1,11,1.0,1665.21663124,2_ND,test,01,3,82.0,11111,ignore,1.0,600.0,1.0033388262
398,2_11_1,11,1.0,1668.56054388,2_ND,test,01,3,83.0,00001,kill,1.0,700.0,1.20393195741
399,2_11_1,11,1.0,1671.68571271,2_ND,test,01,3,84.0,10100,ignore,1.0,800.0,1.04959591705
400,2_11_1,11,1.0,1675.07645842,2_ND,test,01,3,85.0,10101,ignore,1.0,900.0,1.20928935098
401,2_11_1,11,1.0,1678.9673006,2_ND,test,01,3,86.0,01100,ignore,1.0,1000.0,1.7364478469
402,2_11_1,11,1.0,1682.04868495,2_ND,test,01,3,87.0,11010,kill,1.0,1100.0,0.99938543922
403,2_11_1,11,1.0,1685.0331793,2_ND,test,01,3,88.0,00110,ignore,1.0,1200.0,0.849763084148
404,2_11_1,11,1.0,1688.09583864,2_ND,test,01,3,89.0,10011,kill,1.0,1300.0,0.97027241833
405,2_11_1,11,1.0,1691.34913744,2_ND,test,01,3,90.0,01111,ignore,1.0,1400.0,1.10171781438
406,2_11_1,11,1.0,1694.55240188,2_ND,test,01,3,91.0,11001,kill,0.0,1300.0,1.05192320166
407,2_11_1,11,1.0,1697.9017179,2_ND,test,01,3,92.0,00101,kill,0.0,1200.0,1.26138538503
408,2_11_1,11,1.0,1701.34666524,2_ND,test,01,3,93.0,00011,kill,1.0,1300.0,1.35232601197
409,2_11_1,11,1.0,1704.17496057,2_ND,test,01,3,94.0,11000,kill,0.0,1200.0,0.700834111285
410,2_11_1,11,1.0,1707.77824209,2_ND,test,01,3,95.0,11110,kill,0.0,1100.0,1.48928274969
411,2_11_1,11,1.0,1713.23474867,2_ND,test,01,3,96.0,01000,ignore,0.0,1000.0,3.33639094769
412,2_11_1,11,1.0,1716.59720857,2_ND,test,01,3,97.0,11101,ignore,1.0,1100.0,1.25459935317
413,2_11_1,11,1.0,1719.60043615,2_ND,test,01,3,98.0,10000,ignore,1.0,1200.0,0.854114683527
414,2_11_1,11,1.0,1723.14750567,2_ND,test,01,3,99.0,00000,kill,1.0,1300.0,1.39658547239
415,2_11_1,11,1.0,1726.38201624,2_ND,test,01,3,100.0,10111,ignore,1.0,1400.0,1.10687445964
416,2_11_1,11,1.0,1729.2102701,2_ND,test,01,3,101.0,00110,kill,0.0,1300.0,0.69449309204
417,2_11_1,11,1.0,1732.53854573,2_ND,test,01,3,102.0,11000,ignore,1.0,1400.0,1.21716164057
418,2_11_1,11,1.0,1735.89809088,2_ND,test,01,3,103.0,01110,ignore,1.0,1500.0,1.23390955077
419,2_11_1,11,1.0,1739.11697386,2_ND,test,01,3,104.0,11110,ignore,1.0,1600.0,1.0986060103
420,2_11_1,11,1.0,1742.55464213,2_ND,test,01,3,105.0,10111,ignore,1.0,1700.0,1.32270024131
421,2_11_1,11,1.0,1746.28920688,2_ND,test,01,3,106.0,00011,kill,1.0,1800.0,1.61384605027
422,2_11_1,11,1.0,1749.25808351,2_ND,test,01,3,107.0,11010,ignore,0.0,1700.0,0.89777682535
423,2_11_1,11,1.0,1752.66450236,2_ND,test,01,3,108.0,01111,ignore,1.0,1800.0,1.25634245609
424,2_11_1,11,1.0,1755.93026726,2_ND,test,01,3,109.0,11011,ignore,0.0,1700.0,1.14778483065
425,2_11_1,11,1.0,1758.8991796,2_ND,test,01,3,110.0,00001,ignore,0.0,1600.0,0.84534744237
426,2_11_1,11,1.0,1761.78993803,2_ND,test,01,3,111.0,10001,ignore,1.0,1700.0,0.738565762109
427,2_11_1,11,1.0,1765.97766357,2_ND,test,01,3,112.0,11111,kill,0.0,1600.0,2.09091024785
428,2_11_1,11,1.0,1768.8996086,2_ND,test,01,3,113.0,00101,kill,0.0,1500.0,0.763451573679
429,2_11_1,11,1.0,1771.71232685,2_ND,test,01,3,114.0,10011,kill,1.0,1600.0,0.664736773397
430,2_11_1,11,1.0,1774.86864738,2_ND,test,01,4,0.0,01011,kill,0.0,1500.0,0.938732764997
431,2_11_1,11,1.0,1777.71257276,2_ND,test,01,4,1.0,00100,kill,1.0,1600.0,0.632704486172
432,2_11_1,11,1.0,1780.55644887,2_ND,test,01,4,2.0,00010,kill,0.0,1500.0,0.631623975834
433,2_11_1,11,1.0,1783.35342335,2_ND,test,01,4,3.0,10100,kill,1.0,1600.0,0.67326508712
434,2_11_1,11,1.0,1786.97860491,2_ND,test,01,4,4.0,01100,kill,0.0,1500.0,1.48393274562
435,2_11_1,11,1.0,1789.54121539,2_ND,test,01,4,5.0,11100,kill,0.0,1400.0,0.46567655465
436,2_11_1,11,1.0,1792.9945293,2_ND,test,01,4,6.0,00111,kill,1.0,1500.0,1.28126275203
437,2_11_1,11,1.0,1795.69774899,2_ND,test,01,4,7.0,10010,kill,0.0,1400.0,0.56146839384
438,2_11_1,11,1.0,1798.57290366,2_ND,test,01,4,8.0,01000,ignore,1.0,1500.0,0.798681465389
439,2_11_1,11,1.0,1802.82308203,2_ND,test,01,4,9.0,10101,ignore,0.0,1400.0,2.10280407211
440,2_11_1,11,1.0,1805.82324419,2_ND,test,01,4,10.0,01010,ignore,1.0,1500.0,0.916012489914
441,2_11_1,11,1.0,1808.76089439,2_ND,test,01,4,11.0,00000,ignore,1.0,1600.0,0.778187895492
442,2_11_1,11,1.0,1811.79229447,2_ND,test,01,4,12.0,10000,ignore,1.0,1700.0,0.87308970945
443,2_11_1,11,1.0,1814.44862034,2_ND,test,01,4,13.0,01101,ignore,1.0,1800.0,0.542437125547
444,2_11_1,11,1.0,1817.01126079,2_ND,test,01,4,14.0,11101,kill,0.0,1700.0,0.421003692292
445,2_11_1,11,1.0,1819.7614055,2_ND,test,01,4,15.0,01001,kill,0.0,1600.0,0.651008708948
446,2_11_1,11,1.0,1822.94904688,2_ND,test,01,4,16.0,11001,kill,0.0,1500.0,1.08117128634
447,2_11_1,11,1.0,1826.04298559,2_ND,test,01,4,17.0,10110,ignore,0.0,1400.0,0.919119367652
448,2_11_1,11,1.0,1829.04309643,2_ND,test,01,4,18.0,11000,kill,0.0,1300.0,0.917637771225
449,2_11_1,11,1.0,1831.79319229,2_ND,test,01,4,19.0,01110,kill,0.0,1200.0,0.679634022283
450,2_11_1,11,1.0,1834.49644729,2_ND,test,01,4,20.0,00010,kill,0.0,1100.0,0.544284913169
451,2_11_1,11,1.0,1837.77787261,2_ND,test,01,4,21.0,11010,ignore,1.0,1200.0,1.15178624944
452,2_11_1,11,1.0,1840.98113992,2_ND,test,01,4,22.0,01111,ignore,1.0,1300.0,1.07470792968
453,2_11_1,11,1.0,1843.79377196,2_ND,test,01,4,23.0,10101,kill,1.0,1400.0,0.711248802283
454,2_11_1,11,1.0,1846.63762138,2_ND,test,01,4,24.0,01010,kill,0.0,1300.0,0.752504017019
455,2_11_1,11,1.0,1849.34089526,2_ND,test,01,4,25.0,00111,kill,1.0,1400.0,0.5302222682
456,2_11_1,11,1.0,1852.07543744,2_ND,test,01,4,26.0,10011,kill,1.0,1500.0,0.619651740682
457,2_11_1,11,1.0,1855.21618951,2_ND,test,01,4,27.0,10000,ignore,1.0,1600.0,0.993700033581
458,2_11_1,11,1.0,1858.71634264,2_ND,test,01,4,28.0,01100,kill,0.0,1500.0,1.39195225064
459,2_11_1,11,1.0,1861.6695728,2_ND,test,01,4,29.0,01000,ignore,1.0,1600.0,0.798706097085
460,2_11_1,11,1.0,1864.35720391,2_ND,test,01,4,30.0,11101,ignore,1.0,1700.0,0.523547900022
461,2_11_1,11,1.0,1868.24803254,2_ND,test,01,4,31.0,10100,ignore,0.0,1600.0,1.75310790407
462,2_11_1,11,1.0,1871.04502386,2_ND,test,01,4,32.0,00011,ignore,0.0,1500.0,0.662489131268
463,2_11_1,11,1.0,1873.73266729,2_ND,test,01,4,33.0,10110,ignore,0.0,1400.0,0.594802876654
464,2_11_1,11,1.0,1876.51405484,2_ND,test,01,4,34.0,01001,ignore,1.0,1500.0,0.640036110064
465,2_11_1,11,1.0,1879.82671274,2_ND,test,01,4,35.0,11111,kill,0.0,1400.0,1.17046610556
466,2_11_1,11,1.0,1883.18622628,2_ND,test,01,4,36.0,00100,kill,1.0,1500.0,1.2471880868
467,2_11_1,11,1.0,1886.82704691,2_ND,test,01,4,37.0,10001,kill,1.0,1600.0,1.47232547008
468,2_11_1,11,1.0,1889.79592148,2_ND,test,01,4,38.0,00000,kill,0.0,1500.0,0.864625438138
469,2_11_1,11,1.0,1893.03044149,2_ND,test,01,4,39.0,00101,kill,1.0,1600.0,1.08250550313
470,2_11_1,11,1.0,1896.43686076,2_ND,test,01,4,40.0,00110,kill,1.0,1700.0,1.24541788901
471,2_11_1,11,1.0,1899.14007306,2_ND,test,01,4,41.0,11100,kill,0.0,1600.0,0.610371339219
472,2_11_1,11,1.0,1902.46838809,2_ND,test,01,4,42.0,10010,kill,0.0,1500.0,1.1335275953
473,2_11_1,11,1.0,1905.64042816,2_ND,test,01,4,43.0,00001,kill,1.0,1600.0,0.984460274412
474,2_11_1,11,1.0,1909.0780718,2_ND,test,01,4,44.0,10111,kill,1.0,1700.0,1.30371823641
475,2_11_1,11,1.0,1911.90632115,2_ND,test,01,4,45.0,01101,kill,0.0,1600.0,0.688420147741
476,2_11_1,11,1.0,1924.37564443,2_ND,test,01,4,46.0,11001,kill,0.0,1500.0,10.3741287564
477,2_11_1,11,1.0,1927.39140912,2_ND,test,01,4,47.0,01011,kill,0.0,1400.0,0.861103516338
478,2_11_1,11,1.0,1930.68844026,2_ND,test,01,4,48.0,11110,kill,0.0,1300.0,1.149606755
479,2_11_1,11,1.0,1937.37628116,2_ND,test,01,4,49.0,11011,kill,0.0,1200.0,4.58672778611
480,2_11_1,11,1.0,1940.93893187,2_ND,test,01,4,50.0,01110,ignore,1.0,1300.0,1.32591590904
481,2_11_1,11,1.0,1943.67346789,2_ND,test,01,4,51.0,10011,ignore,0.0,1200.0,0.641908118854
482,2_11_1,11,1.0,1946.736103,2_ND,test,01,4,52.0,10101,ignore,0.0,1100.0,0.908719045146
483,2_11_1,11,1.0,1950.12686349,2_ND,test,01,4,53.0,00000,ignore,1.0,1200.0,1.23766629473
484,2_11_1,11,1.0,1952.78327393,2_ND,test,01,4,54.0,11010,ignore,1.0,1300.0,0.554080938105
485,2_11_1,11,1.0,1955.48648254,2_ND,test,01,4,55.0,11100,ignore,1.0,1400.0,0.566500238518
486,2_11_1,11,1.0,1958.22098735,2_ND,test,01,4,56.0,11111,ignore,1.0,1500.0,0.640369048469
487,2_11_1,11,1.0,1961.04924163,2_ND,test,01,4,57.0,00101,kill,1.0,1600.0,0.690910001533
488,2_11_1,11,1.0,1963.54936561,2_ND,test,01,4,58.0,01001,ignore,1.0,1700.0,0.382604522543
489,2_11_1,11,1.0,1965.92449893,2_ND,test,01,4,59.0,00100,kill,1.0,1800.0,0.281491005735
490,2_11_1,11,1.0,1968.40894525,2_ND,test,01,4,60.0,11000,ignore,1.0,1900.0,0.278550391929
491,2_11_1,11,1.0,1970.90909837,2_ND,test,01,4,61.0,01100,kill,0.0,1800.0,0.360633050972
492,2_11_1,11,1.0,1973.95611987,2_ND,test,01,4,62.0,10100,ignore,0.0,1700.0,0.909487964545
493,2_11_1,11,1.0,1976.75312474,2_ND,test,01,4,63.0,00010,ignore,1.0,1800.0,0.663733852896
494,2_11_1,11,1.0,1980.14389795,2_ND,test,01,4,64.0,00011,ignore,0.0,1700.0,1.27922119508
495,2_11_1,11,1.0,1982.75341087,2_ND,test,01,4,65.0,01101,ignore,1.0,1800.0,0.508786535986
496,2_11_1,11,1.0,1985.44103378,2_ND,test,01,4,66.0,10010,ignore,1.0,1900.0,0.529755908115
497,2_11_1,11,1.0,1988.30052966,2_ND,test,01,4,67.0,10110,ignore,0.0,1800.0,0.744047135209
498,2_11_1,11,1.0,1991.11315349,2_ND,test,01,4,68.0,01111,ignore,1.0,1900.0,0.670645916925
499,2_11_1,11,1.0,1993.81640561,2_ND,test,01,4,69.0,10001,ignore,0.0,1800.0,0.602741261293
500,2_11_1,11,1.0,1996.83219248,2_ND,test,01,4,70.0,11011,ignore,1.0,1900.0,0.876983159309
501,2_11_1,11,1.0,2000.11359234,2_ND,test,01,4,71.0,00001,ignore,0.0,1800.0,1.1273819875
502,2_11_1,11,1.0,2003.48873182,2_ND,test,01,4,72.0,11001,kill,0.0,1700.0,1.25082741967
503,2_11_1,11,1.0,2006.53576727,2_ND,test,01,4,73.0,10111,kill,1.0,1800.0,0.909594291359
504,2_11_1,11,1.0,2009.55151842,2_ND,test,01,4,74.0,01010,kill,0.0,1700.0,0.93249601993
505,2_11_1,11,1.0,2012.89541711,2_ND,test,01,4,75.0,00111,kill,1.0,1800.0,1.18207584427
506,2_11_1,11,1.0,2024.31781824,2_ND,test,01,4,76.0,10000,kill,0.0,1700.0,9.24981546756
507,2_11_1,11,1.0,2029.50556676,2_ND,test,01,4,77.0,01011,kill,0.0,1600.0,3.07002257084
508,2_11_1,11,1.0,2034.80272065,2_ND,test,01,4,78.0,11110,ignore,1.0,1700.0,3.1725322942
509,2_11_1,11,1.0,2037.89656659,2_ND,test,01,4,79.0,11101,ignore,1.0,1800.0,0.986634431989
510,2_11_1,11,1.0,2043.52183477,2_ND,test,01,4,80.0,00110,ignore,0.0,1700.0,3.48577191215
511,2_11_1,11,1.0,2051.02222641,2_ND,test,01,4,81.0,01000,ignore,1.0,1800.0,5.34499520914
512,2_11_1,11,1.0,2058.05385392,2_ND,test,01,4,82.0,01110,ignore,1.0,1900.0,4.95896975474
513,2_11_1,11,1.0,2064.82599966,2_ND,test,01,4,83.0,00010,ignore,1.0,2000.0,4.65211426151
514,2_11_1,11,1.0,2074.77958615,2_ND,test,01,4,84.0,01011,ignore,1.0,2100.0,7.76110376266
515,2_11_1,11,1.0,2078.45164224,2_ND,test,01,4,85.0,00011,kill,1.0,2200.0,1.53629110722
516,2_11_1,11,1.0,2081.20180008,2_ND,test,01,4,86.0,00111,ignore,0.0,2100.0,0.585142326036
517,2_11_1,11,1.0,2083.73318209,2_ND,test,01,4,87.0,01010,ignore,1.0,2200.0,0.449048108163
518,2_11_1,11,1.0,2086.70201315,2_ND,test,01,4,88.0,11101,ignore,1.0,2300.0,0.774445520026
519,2_11_1,11,1.0,2089.45219891,2_ND,test,01,4,89.0,00001,ignore,0.0,2200.0,0.597803427583
520,2_11_1,11,1.0,2092.2022648,2_ND,test,01,4,90.0,01101,ignore,1.0,2300.0,0.633433584328
521,2_11_1,11,1.0,2096.49938051,2_ND,test,01,4,91.0,10001,kill,1.0,2400.0,2.13383549148
522,2_11_1,11,1.0,2099.99950737,2_ND,test,01,4,92.0,01111,kill,0.0,2300.0,1.41335103531
523,2_11_1,11,1.0,2103.35905088,2_ND,test,01,4,93.0,10111,kill,1.0,2400.0,1.20077540574
524,2_11_1,11,1.0,2107.28113795,2_ND,test,01,4,94.0,11001,kill,0.0,2300.0,1.7374216199
525,2_11_1,11,1.0,2110.70317166,2_ND,test,01,4,95.0,10000,kill,0.0,2200.0,1.2894893275
526,2_11_1,11,1.0,2114.00022949,2_ND,test,01,4,96.0,01000,kill,0.0,2100.0,1.12729290287
527,2_11_1,11,1.0,2116.60971819,2_ND,test,01,4,97.0,11000,kill,0.0,2000.0,0.521797818124
528,2_11_1,11,1.0,2119.26605227,2_ND,test,01,4,98.0,00100,kill,1.0,2100.0,0.502649138754
529,2_11_1,11,1.0,2121.68804534,2_ND,test,01,4,99.0,10100,kill,1.0,2200.0,0.236914617515
530,2_11_1,11,1.0,2124.06313268,2_ND,test,01,4,100.0,10110,ignore,0.0,2100.0,0.290111277787
531,2_11_1,11,1.0,2126.43826805,2_ND,test,01,4,101.0,10011,kill,1.0,2200.0,0.279410038071
532,2_11_1,11,1.0,2128.82902484,2_ND,test,01,4,102.0,11011,kill,0.0,2100.0,0.247272245088
533,2_11_1,11,1.0,2131.25102447,2_ND,test,01,4,103.0,11100,kill,0.0,2000.0,0.268903799275
534,2_11_1,11,1.0,2133.65735301,2_ND,test,01,4,104.0,11110,kill,0.0,1900.0,0.210555420083
535,2_11_1,11,1.0,2136.09498146,2_ND,test,01,4,105.0,10101,kill,1.0,2000.0,0.232335174962
536,2_11_1,11,1.0,2138.4388666,2_ND,test,01,4,106.0,11111,kill,0.0,1900.0,0.180628732214
537,2_11_1,11,1.0,2140.87645399,2_ND,test,01,4,107.0,00000,kill,0.0,1800.0,0.255667547659
538,2_11_1,11,1.0,2144.89225276,2_ND,test,01,4,108.0,00110,ignore,0.0,1700.0,1.89231351549
539,2_11_1,11,1.0,2148.17364893,2_ND,test,01,4,109.0,11010,kill,0.0,1600.0,1.16471091011
540,2_11_1,11,1.0,2151.41761683,2_ND,test,01,4,110.0,10010,kill,0.0,1500.0,1.03057942777
541,2_11_1,11,1.0,2154.89277208,2_ND,test,01,4,111.0,00101,kill,1.0,1600.0,1.31690809833
542,2_11_1,11,1.0,2158.18980568,2_ND,test,01,4,112.0,01001,kill,0.0,1500.0,1.16459349904
543,2_11_1,11,1.0,2161.06491437,2_ND,test,01,4,113.0,01100,kill,0.0,1400.0,0.760516707269
544,2_11_1,11,1.0,2164.28382732,2_ND,test,01,4,114.0,10011,ignore,0.0,1300.0,1.07430930676
545,2_11_1,11,1.0,2167.64338438,2_ND,test,01,4,115.0,11011,ignore,1.0,1400.0,1.26604077531
546,2_11_1,11,1.0,2170.53412516,2_ND,test,01,4,116.0,10010,ignore,1.0,1500.0,0.724507222425
547,2_11_1,11,1.0,2174.31556608,2_ND,test,01,4,117.0,00100,kill,1.0,1600.0,1.61906016948
548,2_11_1,11,1.0,2177.36259784,2_ND,test,01,4,118.0,00001,kill,1.0,1700.0,0.940783764101
549,2_11_1,11,1.0,2181.61281029,2_ND,test,01,4,119.0,00101,ignore,0.0,1600.0,2.09027064485
550,2_11_1,11,1.0,2184.37854645,2_ND,test,01,4,120.0,10110,kill,1.0,1700.0,0.672802421788
