,unique_id,pair_id,sbj_id,wall_time,condition,block,rule_id,rule_num,trial,stimulus,choice,correct,points,reaction_time
0,3_36_2,36,2.0,54.428366047,3_D,training,01,1_B,1.0,10001,kill,0.0,0.0,3.1633082692
1,3_36_2,36,2.0,61.6474901925,3_D,training,01,1_B,2.0,11000,kill,1.0,100.0,4.61458057937
2,3_36_2,36,2.0,72.1689087001,3_D,training,01,1_B,3.0,11011,kill,0.0,0.0,7.96317887059
3,3_36_2,36,2.0,77.6535565733,3_D,training,01,1_B,4.0,10100,kill,0.0,0.0,2.90308816019
4,3_36_2,36,2.0,84.4408321579,3_D,training,01,1_B,5.0,01100,ignore,0.0,0.0,4.05905699943
5,3_36_2,36,2.0,89.4755173071,3_D,training,01,1_B,6.0,00011,ignore,1.0,100.0,2.48108776937
6,3_36_2,36,2.0,93.4627387839,3_D,training,01,1_B,7.0,01010,ignore,0.0,0.0,1.43876268328
7,3_36_2,36,2.0,101.400646336,3_D,training,01,1_B,8.0,01000,kill,1.0,100.0,5.35708227486
8,3_36_2,36,2.0,105.88861087,3_D,training,01,1_B,9.0,00101,kill,0.0,0.0,1.90783510216
9,3_36_2,36,2.0,115.920350066,3_D,training,01,1_B,10.0,01110,kill,1.0,100.0,7.335811147
10,3_36_2,36,2.0,121.067653468,3_D,training,01,1_B,11.0,01111,kill,0.0,0.0,2.57909859419
11,3_36_2,36,2.0,126.88040933,3_D,training,01,1_B,12.0,10010,ignore,1.0,100.0,3.17975486517
12,3_36_2,36,2.0,131.633801938,3_D,training,01,1_B,13.0,01011,kill,0.0,0.0,2.18006933007
13,3_36_2,36,2.0,138.181029146,3_D,training,01,1_B,14.0,00010,kill,0.0,0.0,3.97571353973
14,3_36_2,36,2.0,145.231462582,3_D,training,01,1_B,15.0,11001,ignore,0.0,0.0,4.37574079882
15,3_36_2,36,2.0,151.184912336,3_D,training,01,1_B,16.0,01101,ignore,0.0,0.0,3.39351668634
16,3_36_2,36,2.0,171.10771572,3_D,training,01,1_B,17.0,01001,kill,1.0,100.0,17.3891675466
17,3_36_2,36,2.0,181.470801565,3_D,training,01,1_B,18.0,00001,ignore,1.0,200.0,7.82648927453
18,3_36_2,36,2.0,186.674161003,3_D,training,01,1_B,19.0,10110,ignore,1.0,300.0,2.61865343342
19,3_36_2,36,2.0,191.633804812,3_D,training,01,1_B,20.0,11111,ignore,1.0,400.0,2.40446876781
20,3_36_2,36,2.0,195.951040362,3_D,training,01,1_B,21.0,11110,ignore,0.0,300.0,1.78196047102
21,3_36_2,36,2.0,204.576452327,3_D,training,01,1_B,22.0,10000,kill,0.0,200.0,5.99604250449
22,3_36_2,36,2.0,208.662525391,3_D,training,01,1_B,23.0,10111,ignore,1.0,300.0,1.53688352976
23,3_36_2,36,2.0,214.115815449,3_D,training,01,1_B,24.0,00110,ignore,1.0,400.0,2.87449689722
24,3_36_2,36,2.0,219.444210398,3_D,training,01,1_B,25.0,00000,kill,0.0,300.0,2.72040047884
25,3_36_2,36,2.0,224.819459794,3_D,training,01,1_B,26.0,00111,ignore,1.0,400.0,2.81906527569
26,3_36_2,36,2.0,233.057408317,3_D,training,01,1_B,27.0,10101,ignore,1.0,500.0,5.68795517356
27,3_36_2,36,2.0,237.86138133,3_D,training,01,1_B,28.0,10011,ignore,1.0,600.0,2.22451069099
28,3_36_2,36,2.0,243.877488419,3_D,training,01,1_B,29.0,00100,ignore,1.0,700.0,3.44946516336
29,3_36_2,36,2.0,253.003410261,3_D,training,01,1_B,30.0,11100,kill,1.0,800.0,6.56746914057
30,3_36_2,36,2.0,257.475408928,3_D,training,01,1_B,31.0,11010,ignore,0.0,700.0,1.95133019471
31,3_36_2,36,2.0,263.98528994,3_D,training,01,1_B,32.0,11101,kill,1.0,800.0,3.92617669807
32,3_36_2,36,2.0,267.719829023,3_D,training,01,1_B,33.0,11111,ignore,1.0,900.0,1.16283082445
33,3_36_2,36,2.0,271.719990361,3_D,training,01,1_B,34.0,01011,ignore,1.0,1000.0,1.4497098384
34,3_36_2,36,2.0,276.939003253,3_D,training,01,1_B,35.0,10001,ignore,1.0,1100.0,2.61341960455
35,3_36_2,36,2.0,280.407908587,3_D,training,01,1_B,36.0,11010,ignore,0.0,1000.0,0.92977662319
36,3_36_2,36,2.0,285.423759506,3_D,training,01,1_B,37.0,10011,ignore,1.0,1100.0,2.37446282335
37,3_36_2,36,2.0,291.174047697,3_D,training,01,1_B,38.0,10000,ignore,1.0,1200.0,3.06597769023
38,3_36_2,36,2.0,297.049308177,3_D,training,01,1_B,39.0,10100,ignore,1.0,1300.0,3.30820392104
39,3_36_2,36,2.0,302.565215749,3_D,training,01,1_B,40.0,00100,ignore,1.0,1400.0,2.92475298495
40,3_36_2,36,2.0,306.987289214,3_D,training,01,1_B,41.0,11000,kill,1.0,1500.0,1.88696013439
41,3_36_2,36,2.0,311.284397369,3_D,training,01,1_B,42.0,10111,ignore,1.0,1600.0,1.72429557401
42,3_36_2,36,2.0,315.425205798,3_D,training,01,1_B,43.0,01010,ignore,0.0,1500.0,1.55104840789
43,3_36_2,36,2.0,321.206736856,3_D,training,01,1_B,44.0,00001,ignore,1.0,1600.0,3.21121284922
44,3_36_2,36,2.0,327.519503392,3_D,training,01,1_B,45.0,00101,ignore,1.0,1700.0,3.73702360211
45,3_36_2,36,2.0,331.410328653,3_D,training,01,1_B,46.0,11110,ignore,0.0,1600.0,1.33128547993
46,3_36_2,36,2.0,335.644926031,3_D,training,01,1_B,47.0,11100,ignore,0.0,1500.0,1.69012974345
47,3_36_2,36,2.0,339.473237642,3_D,training,01,1_B,48.0,10110,ignore,1.0,1600.0,1.26362995939
48,3_36_2,36,2.0,345.817268803,3_D,training,01,1_B,49.0,11101,kill,1.0,1700.0,3.78305452969
49,3_36_2,36,2.0,350.301871928,3_D,training,01,1_B,50.0,11001,kill,1.0,1800.0,1.93877499914
50,3_36_2,36,2.0,354.161398901,3_D,training,01,1_B,51.0,00011,ignore,1.0,1900.0,1.2702505538
51,3_36_2,36,2.0,358.286599444,3_D,training,01,1_B,52.0,11011,ignore,1.0,2000.0,1.5710247286
52,3_36_2,36,2.0,362.646203185,3_D,training,01,1_B,53.0,01101,kill,1.0,2100.0,1.71707766051
53,3_36_2,36,2.0,368.677726443,3_D,training,01,1_B,54.0,01110,ignore,0.0,2000.0,3.4528626979
54,3_36_2,36,2.0,373.55294546,3_D,training,01,1_B,55.0,01000,kill,1.0,2100.0,2.26285406038
55,3_36_2,36,2.0,377.443756353,3_D,training,01,1_B,56.0,01100,kill,1.0,2200.0,1.29160830319
56,3_36_2,36,2.0,382.319022581,3_D,training,01,1_B,57.0,00010,ignore,1.0,2300.0,2.23006391109
57,3_36_2,36,2.0,387.381780495,3_D,training,01,1_B,58.0,01111,ignore,1.0,2400.0,2.49804834713
58,3_36_2,36,2.0,392.522632441,3_D,training,01,1_B,59.0,10010,ignore,1.0,2500.0,2.5878005685
59,3_36_2,36,2.0,396.772815126,3_D,training,01,1_B,60.0,00000,kill,0.0,2400.0,1.65850467428
60,3_36_2,36,2.0,402.163716335,3_D,training,01,1_B,61.0,10101,ignore,1.0,2500.0,2.80064444777
61,3_36_2,36,2.0,411.711033448,3_D,training,01,1_B,62.0,00110,kill,0.0,2400.0,6.97563184454
62,3_36_2,36,2.0,417.336293929,3_D,training,01,1_B,63.0,00111,ignore,1.0,2500.0,3.01653527015
63,3_36_2,36,2.0,421.664632224,3_D,training,01,1_B,64.0,01001,kill,1.0,2600.0,1.75912563981
64,3_36_2,36,2.0,429.993167162,3_D,training,01,1_B,65.0,10100,kill,0.0,2500.0,5.71365549427
65,3_36_2,36,2.0,436.587228292,3_D,training,01,1_B,66.0,11100,ignore,0.0,2400.0,4.03353936394
66,3_36_2,36,2.0,440.821801859,3_D,training,01,1_B,67.0,00111,ignore,1.0,2500.0,1.68412863667
67,3_36_2,36,2.0,445.072005481,3_D,training,01,1_B,68.0,00001,ignore,1.0,2600.0,1.69918148812
68,3_36_2,36,2.0,449.165937705,3_D,training,01,1_B,69.0,01000,kill,1.0,2700.0,1.53717787875
69,3_36_2,36,2.0,456.978849157,3_D,training,01,1_B,70.0,11010,ignore,0.0,2600.0,5.23261000934
70,3_36_2,36,2.0,462.197811144,3_D,training,01,1_B,71.0,00011,ignore,1.0,2700.0,2.6232037322
71,3_36_2,36,2.0,468.916905731,3_D,training,01,1_B,72.0,10110,ignore,1.0,2800.0,4.16126999479
72,3_36_2,36,2.0,473.151435372,3_D,training,01,1_B,73.0,11101,kill,1.0,2900.0,1.65200025945
73,3_36_2,36,2.0,477.417313797,3_D,training,01,1_B,74.0,10101,ignore,1.0,3000.0,1.67297293303
74,3_36_2,36,2.0,481.480013827,3_D,training,01,1_B,75.0,01001,kill,1.0,3100.0,1.50019664319
75,3_36_2,36,2.0,486.46455291,3_D,training,01,1_B,76.0,10111,ignore,1.0,3200.0,2.40131508725
76,3_36_2,36,2.0,490.636663322,3_D,training,01,1_B,77.0,00010,ignore,1.0,3300.0,1.61419304039
77,3_36_2,36,2.0,495.840040002,3_D,training,01,1_B,78.0,11001,kill,1.0,3400.0,2.59671150186
78,3_36_2,36,2.0,501.3434634,3_D,training,01,1_B,79.0,00000,kill,0.0,3300.0,2.92728923052
79,3_36_2,36,2.0,507.140627386,3_D,training,01,1_B,80.0,01110,kill,1.0,3400.0,3.2564810147
80,3_36_2,36,2.0,511.609616057,3_D,training,01,1_B,81.0,11111,ignore,1.0,3500.0,1.87754014559
81,3_36_2,36,2.0,515.672313214,3_D,training,01,1_B,82.0,11110,kill,1.0,3600.0,1.49933330159
82,3_36_2,36,2.0,519.656853528,3_D,training,01,1_B,83.0,10001,ignore,1.0,3700.0,1.40080972657
83,3_36_2,36,2.0,523.797669347,3_D,training,01,1_B,84.0,01101,kill,1.0,3800.0,1.583721146
84,3_36_2,36,2.0,528.829154426,3_D,training,01,1_B,85.0,01010,ignore,0.0,3700.0,2.48656463116
85,3_36_2,36,2.0,533.42314125,3_D,training,01,1_B,86.0,00101,ignore,1.0,3800.0,2.02270633577
86,3_36_2,36,2.0,537.298304845,3_D,training,01,1_B,87.0,01011,ignore,1.0,3900.0,1.32336186781
87,3_36_2,36,2.0,541.923549726,3_D,training,01,1_B,88.0,00110,kill,0.0,3800.0,2.02442850317
88,3_36_2,36,2.0,546.548758069,3_D,training,01,1_B,89.0,00100,kill,0.0,3700.0,2.04632035023
89,3_36_2,36,2.0,554.642908694,3_D,training,01,1_B,90.0,01100,kill,1.0,3800.0,5.53507227766
90,3_36_2,36,2.0,558.314948495,3_D,training,01,1_B,91.0,01111,ignore,1.0,3900.0,1.04811641277
91,3_36_2,36,2.0,571.768702451,3_D,training,01,1_B,92.0,11000,ignore,0.0,3800.0,10.7998652645
92,3_36_2,36,2.0,586.84751778,3_D,training,01,1_B,93.0,10010,kill,0.0,3700.0,12.5134115582
93,3_36_2,36,2.0,590.863329288,3_D,training,01,1_B,94.0,10011,ignore,1.0,3800.0,1.41351107031
94,3_36_2,36,2.0,598.348134804,3_D,training,01,1_B,95.0,10000,ignore,1.0,3900.0,4.93635246999
95,3_36_2,36,2.0,602.442039112,3_D,training,01,1_B,96.0,11011,ignore,1.0,4000.0,1.4901735879
96,3_36_2,36,2.0,608.754812216,3_D,training,01,1_B,97.0,10000,kill,0.0,3900.0,3.7433523107
97,3_36_2,36,2.0,614.020748114,3_D,training,01,1_B,98.0,01101,kill,1.0,4000.0,2.67778227535
98,3_36_2,36,2.0,620.661633313,3_D,training,01,1_B,99.0,01100,kill,1.0,4100.0,4.0870981541
99,3_36_2,36,2.0,626.911940388,3_D,training,01,1_B,100.0,11000,kill,1.0,4200.0,3.70686658314
100,3_36_2,36,2.0,630.521520319,3_D,training,01,1_B,101.0,10001,ignore,1.0,4300.0,1.02175801475
101,3_36_2,36,2.0,639.725066136,3_D,training,01,1_B,102.0,10110,ignore,1.0,4400.0,6.61215148176
102,3_36_2,36,2.0,643.662734761,3_D,training,01,1_B,103.0,10011,ignore,1.0,4500.0,1.33339025996
103,3_36_2,36,2.0,648.100474817,3_D,training,01,1_B,104.0,01011,ignore,1.0,4600.0,1.84137545137
104,3_36_2,36,2.0,651.585005279,3_D,training,01,1_B,105.0,00011,ignore,1.0,4700.0,0.932494322387
105,3_36_2,36,2.0,659.085387071,3_D,training,01,1_B,106.0,00100,kill,0.0,4600.0,4.91088163476
106,3_36_2,36,2.0,662.788661119,3_D,training,01,1_B,107.0,00001,ignore,1.0,4700.0,1.11080453749
107,3_36_2,36,2.0,668.163919546,3_D,training,01,1_B,108.0,01000,kill,1.0,4800.0,2.82260526363
108,3_36_2,36,2.0,672.804791197,3_D,training,01,1_B,109.0,10101,ignore,1.0,4900.0,2.08687728972
109,3_36_2,36,2.0,677.117453048,3_D,training,01,1_B,110.0,11101,kill,1.0,5000.0,1.70726151163
110,3_36_2,36,2.0,682.211494882,3_D,training,01,1_B,111.0,01001,kill,1.0,5100.0,2.4834281928
111,3_36_2,36,2.0,686.133509231,3_D,training,01,1_B,112.0,10111,ignore,1.0,5200.0,1.32873076058
112,3_36_2,36,2.0,693.290111105,3_D,training,01,1_B,113.0,10010,ignore,1.0,5300.0,4.59920464193
113,3_36_2,36,2.0,698.696644011,3_D,training,01,1_B,114.0,11100,kill,1.0,5400.0,2.81711690704
114,3_36_2,36,2.0,703.524944538,3_D,training,01,1_B,115.0,11111,ignore,1.0,5500.0,2.25806893925
115,3_36_2,36,2.0,707.415820294,3_D,training,01,1_B,116.0,11001,kill,1.0,5600.0,1.33971281063
116,3_36_2,36,2.0,711.353501645,3_D,training,01,1_B,117.0,11011,ignore,1.0,5700.0,1.37807629592
117,3_36_2,36,2.0,715.994320748,3_D,training,01,1_B,118.0,01110,ignore,0.0,5600.0,2.06124388518
118,3_36_2,36,2.0,720.603908889,3_D,training,01,1_B,119.0,01111,ignore,1.0,5700.0,2.00725157684
119,3_36_2,36,2.0,725.969848318,3_D,training,01,1_B,120.0,00101,ignore,1.0,5800.0,2.73607528109
120,3_36_2,36,2.0,732.034687612,3_D,training,01,1_B,121.0,11010,ignore,0.0,5700.0,3.49296969806
121,3_36_2,36,2.0,738.753738273,3_D,training,01,1_B,122.0,11110,kill,1.0,5800.0,4.12843879265
122,3_36_2,36,2.0,742.832026895,3_D,training,01,1_B,123.0,10100,ignore,1.0,5900.0,1.48654287314
123,3_36_2,36,2.0,747.316652599,3_D,training,01,1_B,124.0,00000,ignore,1.0,6000.0,1.86383998581
124,3_36_2,36,2.0,750.941791563,3_D,training,01,1_B,125.0,00010,ignore,1.0,6100.0,1.06092613606
125,3_36_2,36,2.0,754.695139013,3_D,training,01,1_B,126.0,01010,kill,1.0,6200.0,1.21122885983
126,3_36_2,36,2.0,758.289031005,3_D,training,01,1_B,127.0,00111,ignore,1.0,6300.0,1.01044015232
127,3_36_2,36,2.0,762.276788221,3_D,training,01,1_B,128.0,00110,ignore,1.0,6400.0,1.39772870958
128,3_36_2,36,2.0,766.151940322,3_D,training,01,1_B,129.0,01011,ignore,1.0,6500.0,1.28717582611
129,3_36_2,36,2.0,769.964635426,3_D,training,01,1_B,130.0,11100,kill,1.0,6600.0,1.24994334705
130,3_36_2,36,2.0,774.577384227,3_D,training,01,1_B,131.0,00010,ignore,1.0,6700.0,2.05832420591
131,3_36_2,36,2.0,778.202622949,3_D,training,01,1_B,132.0,11001,kill,1.0,6800.0,1.07469978045
132,3_36_2,36,2.0,784.1717746,3_D,training,01,1_B,133.0,01111,ignore,1.0,6900.0,3.38389512801
133,3_36_2,36,2.0,789.203226016,3_D,training,01,1_B,134.0,01000,kill,1.0,7000.0,2.4696931381
134,3_36_2,36,2.0,794.316045017,3_D,training,01,1_B,135.0,01110,kill,1.0,7100.0,2.55823471069
135,3_36_2,36,2.0,797.878717542,3_D,training,01,1_B,136.0,00011,ignore,1.0,7200.0,0.995186962926
136,3_36_2,36,2.0,801.269470549,3_D,training,01,1_B,137.0,01100,kill,1.0,7300.0,0.799784390387
137,3_36_2,36,2.0,804.785263173,3_D,training,01,1_B,138.0,00111,ignore,1.0,7400.0,0.89704805319
138,3_36_2,36,2.0,808.379213871,3_D,training,01,1_B,139.0,01001,kill,1.0,7500.0,0.996522822927
139,3_36_2,36,2.0,811.988749464,3_D,training,01,1_B,140.0,10000,ignore,1.0,7600.0,1.039436607
140,3_36_2,36,2.0,815.567064359,3_D,training,01,1_B,141.0,00001,ignore,1.0,7700.0,0.989377572987
141,3_36_2,36,2.0,819.582863552,3_D,training,01,1_B,142.0,10101,ignore,1.0,7800.0,1.41744106041
142,3_36_2,36,2.0,823.036195894,3_D,training,01,1_B,143.0,10011,ignore,1.0,7900.0,0.879974580072
143,3_36_2,36,2.0,826.755072491,3_D,training,01,1_B,144.0,01010,kill,1.0,8000.0,1.18752535014
144,3_36_2,36,2.0,830.239625532,3_D,training,01,1_B,145.0,11011,kill,0.0,7900.0,0.936084394823
145,3_36_2,36,2.0,834.067918669,3_D,training,01,1_B,146.0,10001,ignore,1.0,8000.0,1.21252900385
146,3_36_2,36,2.0,837.42747561,3_D,training,01,1_B,147.0,00101,ignore,1.0,8100.0,0.750240159221
147,3_36_2,36,2.0,841.005732621,3_D,training,01,1_B,148.0,11000,kill,1.0,8200.0,1.01299856644
