,unique_id,pair_id,sbj_id,wall_time,condition,block,rule_id,rule_num,trial,stimulus,choice,correct,points,reaction_time
0,2_33_1,33,1.0,41.1557896283,2_ND,training,03,1_A,1.0,11011,kill,0.0,0.0,3.81093956918
1,2_33_1,33,1.0,46.906060401,2_ND,training,03,1_A,2.0,10010,kill,0.0,0.0,3.60683549882
2,2_33_1,33,1.0,52.6719556475,2_ND,training,03,1_A,3.0,01110,ignore,0.0,0.0,3.64501532909
3,2_33_1,33,1.0,60.0004188678,2_ND,training,03,1_A,4.0,11101,ignore,1.0,100.0,5.1853294286
4,2_33_1,33,1.0,63.9538078,2_ND,training,03,1_A,5.0,01010,kill,1.0,200.0,1.82269705308
5,2_33_1,33,1.0,67.2977922204,2_ND,training,03,1_A,6.0,11111,ignore,1.0,300.0,1.17986265884
6,2_33_1,33,1.0,71.0010856565,2_ND,training,03,1_A,7.0,10000,kill,0.0,200.0,1.5388557597
7,2_33_1,33,1.0,74.0012197199,2_ND,training,03,1_A,8.0,01001,kill,1.0,300.0,0.886065397897
8,2_33_1,33,1.0,77.7983045797,2_ND,training,03,1_A,9.0,00000,kill,0.0,200.0,1.65081918158
9,2_33_1,33,1.0,82.3922709593,2_ND,training,03,1_A,10.0,11100,ignore,0.0,100.0,2.49691060957
10,2_33_1,33,1.0,86.2830962475,2_ND,training,03,1_A,11.0,01101,ignore,0.0,0.0,1.78178945063
11,2_33_1,33,1.0,89.8176587729,2_ND,training,03,1_A,12.0,10110,kill,0.0,0.0,1.45532210644
12,2_33_1,33,1.0,93.6303427692,2_ND,training,03,1_A,13.0,10111,ignore,1.0,100.0,1.64416508522
13,2_33_1,33,1.0,97.083633399,2_ND,training,03,1_A,14.0,11000,ignore,0.0,0.0,1.31455559123
14,2_33_1,33,1.0,100.318195828,2_ND,training,03,1_A,15.0,11001,ignore,1.0,100.0,1.11828300131
15,2_33_1,33,1.0,103.771628539,2_ND,training,03,1_A,16.0,01100,kill,1.0,200.0,1.32145760856
16,2_33_1,33,1.0,106.731280283,2_ND,training,03,1_A,17.0,01000,kill,1.0,300.0,0.886947714332
17,2_33_1,33,1.0,110.481445216,2_ND,training,03,1_A,18.0,10101,ignore,1.0,400.0,1.66965636485
18,2_33_1,33,1.0,114.059760181,2_ND,training,03,1_A,19.0,01011,kill,1.0,500.0,1.48438210107
19,2_33_1,33,1.0,117.294281557,2_ND,training,03,1_A,20.0,00011,kill,0.0,400.0,1.14633367213
20,2_33_1,33,1.0,120.606913756,2_ND,training,03,1_A,21.0,11010,ignore,0.0,300.0,1.23070025007
21,2_33_1,33,1.0,124.435264241,2_ND,training,03,1_A,22.0,10100,ignore,1.0,400.0,1.71897916854
22,2_33_1,33,1.0,128.591705905,2_ND,training,03,1_A,23.0,00110,kill,0.0,300.0,2.07555688407
23,2_33_1,33,1.0,132.326230969,2_ND,training,03,1_A,24.0,10001,ignore,1.0,400.0,1.6167516964
24,2_33_1,33,1.0,135.451412139,2_ND,training,03,1_A,25.0,10011,ignore,1.0,500.0,1.03332853314
25,2_33_1,33,1.0,139.154717763,2_ND,training,03,1_A,26.0,00111,kill,0.0,400.0,1.60906133526
26,2_33_1,33,1.0,144.233106014,2_ND,training,03,1_A,27.0,00001,kill,0.0,300.0,2.969819069
27,2_33_1,33,1.0,148.717651685,2_ND,training,03,1_A,28.0,01111,ignore,0.0,200.0,2.40373594139
28,2_33_1,33,1.0,151.764722032,2_ND,training,03,1_A,29.0,11110,ignore,0.0,100.0,0.964775336449
29,2_33_1,33,1.0,155.733619656,2_ND,training,03,1_A,30.0,00100,ignore,1.0,200.0,1.87930834859
30,2_33_1,33,1.0,158.593134738,2_ND,training,03,1_A,31.0,00101,ignore,1.0,300.0,0.782925461099
31,2_33_1,33,1.0,162.780841706,2_ND,training,03,1_A,32.0,00010,ignore,1.0,400.0,2.09715102557
32,2_33_1,33,1.0,166.159662071,2_ND,training,03,1_A,33.0,00100,ignore,1.0,500.0,1.2863201824
33,2_33_1,33,1.0,170.222331875,2_ND,training,03,1_A,34.0,00011,ignore,1.0,600.0,1.99831651074
34,2_33_1,33,1.0,174.316279813,2_ND,training,03,1_A,35.0,10001,kill,0.0,500.0,2.02344408741
35,2_33_1,33,1.0,177.316443383,2_ND,training,03,1_A,36.0,11110,ignore,0.0,400.0,0.954149052143
36,2_33_1,33,1.0,180.832258528,2_ND,training,03,1_A,37.0,10011,ignore,1.0,500.0,1.44614838888
37,2_33_1,33,1.0,185.269979849,2_ND,training,03,1_A,38.0,11100,ignore,0.0,400.0,2.37536037543
38,2_33_1,33,1.0,188.463887407,2_ND,training,03,1_A,39.0,10111,ignore,1.0,500.0,1.13826453393
39,2_33_1,33,1.0,192.339051018,2_ND,training,03,1_A,40.0,11010,ignore,0.0,400.0,1.84095308136
40,2_33_1,33,1.0,195.823558843,2_ND,training,03,1_A,41.0,00000,kill,0.0,300.0,1.44228877566
41,2_33_1,33,1.0,198.980016543,2_ND,training,03,1_A,42.0,01000,ignore,0.0,200.0,1.09152389294
42,2_33_1,33,1.0,201.995780533,2_ND,training,03,1_A,43.0,01011,ignore,0.0,100.0,0.962969971414
43,2_33_1,33,1.0,205.292798842,2_ND,training,03,1_A,44.0,11001,kill,0.0,0.0,1.25621782921
44,2_33_1,33,1.0,208.263319979,2_ND,training,03,1_A,45.0,01111,ignore,0.0,0.0,0.92959172579
45,2_33_1,33,1.0,212.497901973,2_ND,training,03,1_A,46.0,11000,ignore,0.0,0.0,2.15110350492
46,2_33_1,33,1.0,216.263747186,2_ND,training,03,1_A,47.0,10010,ignore,1.0,100.0,1.64946636052
47,2_33_1,33,1.0,219.232616586,2_ND,training,03,1_A,48.0,00101,kill,0.0,0.0,0.831029186361
48,2_33_1,33,1.0,222.217082557,2_ND,training,03,1_A,49.0,00110,ignore,1.0,100.0,0.91204931222
49,2_33_1,33,1.0,225.045403535,2_ND,training,03,1_A,50.0,00001,ignore,1.0,200.0,0.700243334598
50,2_33_1,33,1.0,227.951815131,2_ND,training,03,1_A,51.0,01110,ignore,0.0,100.0,0.818473736894
51,2_33_1,33,1.0,230.889410567,2_ND,training,03,1_A,52.0,10100,ignore,1.0,200.0,0.826884768704
52,2_33_1,33,1.0,233.233310316,2_ND,training,03,1_A,53.0,11011,ignore,1.0,300.0,0.268260758985
53,2_33_1,33,1.0,236.577189859,2_ND,training,03,1_A,54.0,01100,kill,1.0,400.0,1.31027454442
54,2_33_1,33,1.0,239.505541659,2_ND,training,03,1_A,55.0,10101,ignore,1.0,500.0,0.860364684379
55,2_33_1,33,1.0,242.630709679,2_ND,training,03,1_A,56.0,10000,ignore,1.0,600.0,1.05301948826
56,2_33_1,33,1.0,245.818373991,2_ND,training,03,1_A,57.0,01010,kill,1.0,700.0,1.15910080056
57,2_33_1,33,1.0,249.243497847,2_ND,training,03,1_A,58.0,01001,ignore,0.0,600.0,1.37189268903
58,2_33_1,33,1.0,252.743657408,2_ND,training,03,1_A,59.0,01101,kill,1.0,700.0,1.46562092979
59,2_33_1,33,1.0,255.978211499,2_ND,training,03,1_A,60.0,10110,ignore,1.0,800.0,1.19425618736
60,2_33_1,33,1.0,260.775321054,2_ND,training,03,1_A,61.0,00111,kill,0.0,700.0,2.74999430712
61,2_33_1,33,1.0,263.650484985,2_ND,training,03,1_A,62.0,11101,ignore,1.0,800.0,0.859408921755
62,2_33_1,33,1.0,266.728743021,2_ND,training,03,1_A,63.0,11111,ignore,1.0,900.0,1.06249051855
63,2_33_1,33,1.0,270.150777327,2_ND,training,03,1_A,64.0,00010,ignore,1.0,1000.0,1.39197268443
64,2_33_1,33,1.0,275.572873853,2_ND,training,03,1_A,65.0,10010,ignore,1.0,1100.0,3.38844566377
65,2_33_1,33,1.0,279.463720309,2_ND,training,03,1_A,66.0,11001,ignore,1.0,1200.0,1.84705520876
66,2_33_1,33,1.0,283.588941249,2_ND,training,03,1_A,67.0,01110,ignore,0.0,1100.0,2.13014728687
67,2_33_1,33,1.0,288.136040301,2_ND,training,03,1_A,68.0,00001,ignore,1.0,1200.0,2.5287359013
68,2_33_1,33,1.0,292.823731073,2_ND,training,03,1_A,69.0,10111,ignore,1.0,1300.0,2.65467173884
69,2_33_1,33,1.0,296.636402561,2_ND,training,03,1_A,70.0,00110,ignore,1.0,1400.0,1.79139903442
70,2_33_1,33,1.0,299.386554665,2_ND,training,03,1_A,71.0,00010,ignore,1.0,1500.0,0.740475809423
71,2_33_1,33,1.0,305.136836663,2_ND,training,03,1_A,72.0,01101,ignore,0.0,1400.0,3.73269051348
72,2_33_1,33,1.0,308.246354551,2_ND,training,03,1_A,73.0,01010,ignore,0.0,1300.0,1.08922461031
73,2_33_1,33,1.0,311.199605572,2_ND,training,03,1_A,74.0,11101,ignore,1.0,1400.0,0.930694380789
74,2_33_1,33,1.0,313.934124222,2_ND,training,03,1_A,75.0,01011,ignore,0.0,1300.0,0.731093940882
75,2_33_1,33,1.0,316.402946635,2_ND,training,03,1_A,76.0,00011,ignore,1.0,1400.0,0.458619166761
76,2_33_1,33,1.0,319.66877052,2_ND,training,03,1_A,77.0,00101,ignore,1.0,1500.0,1.27050968768
77,2_33_1,33,1.0,322.543933489,2_ND,training,03,1_A,78.0,10110,ignore,1.0,1600.0,0.839849143454
78,2_33_1,33,1.0,325.934725262,2_ND,training,03,1_A,79.0,01001,ignore,0.0,1500.0,1.37156619025
79,2_33_1,33,1.0,328.716098089,2_ND,training,03,1_A,80.0,10000,ignore,1.0,1600.0,0.769483846489
80,2_33_1,33,1.0,331.622470236,2_ND,training,03,1_A,81.0,10100,ignore,1.0,1700.0,0.863057818186
81,2_33_1,33,1.0,334.747642746,2_ND,training,03,1_A,82.0,11000,ignore,0.0,1600.0,1.13794028023
82,2_33_1,33,1.0,337.450875565,2_ND,training,03,1_A,83.0,11111,ignore,1.0,1700.0,0.706069637891
83,2_33_1,33,1.0,340.751207292,2_ND,training,03,1_A,84.0,01000,kill,1.0,1800.0,1.30755960126
84,2_33_1,33,1.0,344.048226563,2_ND,training,03,1_A,85.0,10001,ignore,1.0,1900.0,1.28499590594
85,2_33_1,33,1.0,347.439009676,2_ND,training,03,1_A,86.0,00000,ignore,1.0,2000.0,1.3662193719
86,2_33_1,33,1.0,350.986075052,2_ND,training,03,1_A,87.0,10011,ignore,1.0,2100.0,1.54001646606
87,2_33_1,33,1.0,354.001829099,2_ND,training,03,1_A,88.0,01111,ignore,0.0,2000.0,1.0031071907
88,2_33_1,33,1.0,356.595744162,2_ND,training,03,1_A,89.0,11100,ignore,0.0,1900.0,0.567987917621
89,2_33_1,33,1.0,359.111492917,2_ND,training,03,1_A,90.0,00111,ignore,1.0,2000.0,0.527196097153
90,2_33_1,33,1.0,362.799132052,2_ND,training,03,1_A,91.0,11110,ignore,0.0,1900.0,1.67168655861
91,2_33_1,33,1.0,365.455492733,2_ND,training,03,1_A,92.0,11011,ignore,1.0,2000.0,0.657330234268
92,2_33_1,33,1.0,368.064996349,2_ND,training,03,1_A,93.0,10101,ignore,1.0,2100.0,0.597065552166
93,2_33_1,33,1.0,371.580842925,2_ND,training,03,1_A,94.0,01100,kill,1.0,2200.0,1.50599195812
94,2_33_1,33,1.0,374.127812083,2_ND,training,03,1_A,95.0,00100,kill,0.0,2100.0,0.539415105347
95,2_33_1,33,1.0,376.877955848,2_ND,training,03,1_A,96.0,11010,ignore,0.0,2000.0,0.731040058962
96,2_33_1,33,1.0,381.94070423,2_ND,training,03,1_A,97.0,00001,kill,0.0,1900.0,3.05878228786
97,2_33_1,33,1.0,384.847084716,2_ND,training,03,1_A,98.0,11000,ignore,0.0,1800.0,0.925195538449
98,2_33_1,33,1.0,392.189520672,2_ND,training,03,1_A,99.0,00010,kill,0.0,1700.0,5.33407656172
99,2_33_1,33,1.0,395.330323109,2_ND,training,03,1_A,100.0,11010,ignore,0.0,1600.0,1.16332315457
100,2_33_1,33,1.0,398.267933939,2_ND,training,03,1_A,101.0,01110,ignore,0.0,1500.0,0.930151392158
101,2_33_1,33,1.0,403.361948588,2_ND,training,03,1_A,102.0,01001,kill,1.0,1600.0,3.07370854179
102,2_33_1,33,1.0,407.143357658,2_ND,training,03,1_A,103.0,01011,kill,1.0,1700.0,1.81129140529
103,2_33_1,33,1.0,410.956057691,2_ND,training,03,1_A,104.0,10110,ignore,1.0,1800.0,1.81672674394
104,2_33_1,33,1.0,414.424940722,2_ND,training,03,1_A,105.0,01111,ignore,0.0,1700.0,1.46056693401
105,2_33_1,33,1.0,417.018850333,2_ND,training,03,1_A,106.0,10010,ignore,1.0,1800.0,0.58283815956
106,2_33_1,33,1.0,420.128391634,2_ND,training,03,1_A,107.0,01100,kill,1.0,1900.0,1.08465394818
107,2_33_1,33,1.0,422.847260152,2_ND,training,03,1_A,108.0,10101,ignore,1.0,2000.0,0.727038684973
108,2_33_1,33,1.0,426.206796563,2_ND,training,03,1_A,109.0,00011,ignore,1.0,2100.0,1.34273840103
109,2_33_1,33,1.0,432.316443062,2_ND,training,03,1_A,110.0,10111,ignore,1.0,2200.0,4.10232240696
110,2_33_1,33,1.0,435.004090536,2_ND,training,03,1_A,111.0,11111,ignore,1.0,2300.0,0.710082558006
111,2_33_1,33,1.0,437.769843059,2_ND,training,03,1_A,112.0,10001,ignore,1.0,2400.0,0.759018887216
112,2_33_1,33,1.0,441.019987947,2_ND,training,03,1_A,113.0,00111,ignore,1.0,2500.0,1.26343030903
113,2_33_1,33,1.0,445.848362487,2_ND,training,03,1_A,114.0,01101,kill,1.0,2600.0,2.80144897462
114,2_33_1,33,1.0,449.195748845,2_ND,training,03,1_A,115.0,11101,ignore,1.0,2700.0,1.36536239279
115,2_33_1,33,1.0,453.211571527,2_ND,training,03,1_A,116.0,10100,ignore,1.0,2800.0,2.04554048537
116,2_33_1,33,1.0,455.2429199,2_ND,training,03,1_A,117.0,00100,ignore,1.0,2900.0,0.00025337331283
117,2_33_1,33,1.0,458.336819408,2_ND,training,03,1_A,118.0,11011,ignore,1.0,3000.0,1.11899180514
118,2_33_1,33,1.0,461.477627297,2_ND,training,03,1_A,119.0,01000,kill,1.0,3100.0,1.16038562777
119,2_33_1,33,1.0,464.321485512,2_ND,training,03,1_A,120.0,10011,ignore,1.0,3200.0,0.814443497591
120,2_33_1,33,1.0,466.915352146,2_ND,training,03,1_A,121.0,11110,ignore,0.0,3100.0,0.637534401842
121,2_33_1,33,1.0,471.821934367,2_ND,training,03,1_A,122.0,00000,kill,0.0,3000.0,2.93049585157
122,2_33_1,33,1.0,474.587614407,2_ND,training,03,1_A,123.0,11001,ignore,1.0,3100.0,0.786579809867
123,2_33_1,33,1.0,477.150218943,2_ND,training,03,1_A,124.0,11100,ignore,0.0,3000.0,0.585516860711
124,2_33_1,33,1.0,479.587883175,2_ND,training,03,1_A,125.0,00110,ignore,1.0,3100.0,0.432200669098
125,2_33_1,33,1.0,482.775520546,2_ND,training,03,1_A,126.0,00101,ignore,1.0,3200.0,1.20544694892
126,2_33_1,33,1.0,485.713172109,2_ND,training,03,1_A,127.0,10000,ignore,1.0,3300.0,0.947687391214
127,2_33_1,33,1.0,491.666545967,2_ND,training,03,1_A,128.0,01010,kill,1.0,3400.0,3.97937765741
128,2_33_1,33,1.0,496.010534877,2_ND,training,03,1_A,129.0,10111,ignore,1.0,3500.0,2.36066344038
129,2_33_1,33,1.0,500.401370589,2_ND,training,03,1_A,130.0,10010,ignore,1.0,3600.0,2.40699804261
130,2_33_1,33,1.0,503.042096853,2_ND,training,03,1_A,131.0,11101,ignore,1.0,3700.0,0.67693106546
131,2_33_1,33,1.0,505.510991431,2_ND,training,03,1_A,132.0,01111,ignore,0.0,3600.0,0.447176314791
132,2_33_1,33,1.0,508.698648686,2_ND,training,03,1_A,133.0,00000,kill,0.0,3500.0,1.195152295
133,2_33_1,33,1.0,512.120679464,2_ND,training,03,1_A,134.0,01100,kill,1.0,3600.0,1.45862526055
134,2_33_1,33,1.0,517.152167673,2_ND,training,03,1_A,135.0,11100,ignore,0.0,3500.0,3.06241899671
135,2_33_1,33,1.0,520.417940562,2_ND,training,03,1_A,136.0,00101,kill,0.0,3400.0,1.30557270547
136,2_33_1,33,1.0,523.236746571,2_ND,training,03,1_A,137.0,11111,ignore,1.0,3500.0,0.819388767352
137,2_33_1,33,1.0,542.284517062,2_ND,training,03,1_A,138.0,01010,ignore,0.0,3400.0,17.0308130814
138,2_33_1,33,1.0,544.706546557,2_ND,training,03,1_A,139.0,11010,ignore,0.0,3300.0,0.456134183941
139,2_33_1,33,1.0,549.112991669,2_ND,training,03,1_A,140.0,00011,kill,0.0,3200.0,2.41155683789
140,2_33_1,33,1.0,552.394389353,2_ND,training,03,1_A,141.0,00001,kill,0.0,3100.0,1.32944432025
141,2_33_1,33,1.0,556.894634547,2_ND,training,03,1_A,142.0,10011,ignore,1.0,3200.0,2.49872880364
142,2_33_1,33,1.0,560.035371877,2_ND,training,03,1_A,143.0,11110,ignore,0.0,3100.0,1.15508306956
143,2_33_1,33,1.0,563.348039356,2_ND,training,03,1_A,144.0,00100,kill,0.0,3000.0,1.3231407771
144,2_33_1,33,1.0,575.864527063,2_ND,training,03,1_A,145.0,01101,kill,1.0,3100.0,10.5481689929
145,2_33_1,33,1.0,579.067809113,2_ND,training,03,1_A,146.0,10000,ignore,1.0,3200.0,1.19663597215
146,2_33_1,33,1.0,591.602804618,2_ND,training,03,1_A,147.0,11001,ignore,1.0,3300.0,10.5710203792
147,2_33_1,33,1.0,600.087577363,2_ND,training,03,1_A,148.0,10100,ignore,1.0,3400.0,6.48215754753
148,2_33_1,33,1.0,606.337900574,2_ND,training,03,1_A,149.0,01000,kill,1.0,3500.0,4.28991808345
149,2_33_1,33,1.0,610.416195815,2_ND,training,03,1_A,150.0,01001,kill,1.0,3600.0,2.06532060223
150,2_33_1,33,1.0,643.964735566,2_ND,training,03,1_A,151.0,10101,,,3500.0,
151,2_33_1,33,1.0,649.996272846,2_ND,training,03,1_A,152.0,01011,ignore,0.0,3400.0,4.05926241425
152,2_33_1,33,1.0,653.402638739,2_ND,training,03,1_A,153.0,00111,kill,0.0,3300.0,1.40435237621
153,2_33_1,33,1.0,656.809073908,2_ND,training,03,1_A,154.0,00010,ignore,1.0,3400.0,1.44300752198
154,2_33_1,33,1.0,690.341945567,2_ND,training,03,1_A,155.0,01110,,,3300.0,
155,2_33_1,33,1.0,705.436424306,2_ND,training,03,1_A,156.0,11011,ignore,1.0,3400.0,13.1105204769
156,2_33_1,33,1.0,707.967786951,2_ND,training,03,1_A,157.0,00110,ignore,1.0,3500.0,0.559566943314
157,2_33_1,33,1.0,710.811683653,2_ND,training,03,1_A,158.0,11000,ignore,0.0,3400.0,0.87225398654
158,2_33_1,33,1.0,744.297660723,2_ND,training,03,1_A,159.0,10110,,,3300.0,
159,2_33_1,33,1.0,749.079164407,2_ND,training,03,1_A,160.0,10001,ignore,1.0,3400.0,2.79748608772
160,2_33_1,33,1.0,752.266834171,2_ND,training,03,1_A,161.0,11000,ignore,0.0,3300.0,1.20273008141
161,2_33_1,33,1.0,785.737213708,2_ND,training,03,1_A,162.0,11001,,,3200.0,
162,2_33_1,33,1.0,798.128443592,2_ND,training,03,1_A,163.0,00101,kill,0.0,3100.0,10.4274805488
163,2_33_1,33,1.0,801.034834661,2_ND,training,03,1_A,164.0,11110,ignore,0.0,3000.0,0.937862921189
164,2_33_1,33,1.0,804.15995329,2_ND,training,03,1_A,165.0,11111,ignore,1.0,3100.0,1.11407700432
165,2_33_1,33,1.0,806.706985631,2_ND,training,03,1_A,166.0,10010,ignore,1.0,3200.0,0.57163841768
166,2_33_1,33,1.0,809.23833256,2_ND,training,03,1_A,167.0,10111,ignore,1.0,3300.0,0.572260946288
167,2_33_1,33,1.0,812.050996671,2_ND,training,03,1_A,168.0,01100,ignore,0.0,3200.0,0.844667405833
168,2_33_1,33,1.0,836.020861925,2_ND,training,03,1_A,169.0,01011,ignore,0.0,3100.0,21.9687545804
169,2_33_1,33,1.0,838.005363175,2_ND,training,03,1_A,170.0,10001,ignore,1.0,3200.0,0.000265560889943
170,2_33_1,33,1.0,840.021094451,2_ND,training,03,1_A,171.0,10100,ignore,1.0,3300.0,0.000262995084199
171,2_33_1,33,1.0,970.405533609,2_ND,test,03,2,0.0,01010,,,0.0,
172,2_33_1,33,1.0,975.343228791,2_ND,test,03,2,1.0,10000,ignore,1.0,100.0,2.91550833903
173,2_33_1,33,1.0,978.046486305,2_ND,test,03,2,2.0,10101,ignore,1.0,200.0,0.706911542886
174,2_33_1,33,1.0,984.203084483,2_ND,test,03,2,3.0,01001,ignore,0.0,100.0,4.189919655
175,2_33_1,33,1.0,987.421955728,2_ND,test,03,2,4.0,00011,ignore,0.0,0.0,1.22581944618
176,2_33_1,33,1.0,999.453786472,2_ND,test,03,2,5.0,11011,ignore,0.0,0.0,10.0884606417
177,2_33_1,33,1.0,1003.79774074,2_ND,test,03,2,6.0,10110,kill,0.0,0.0,2.34685363265
178,2_33_1,33,1.0,1007.18855465,2_ND,test,03,2,7.0,00001,ignore,0.0,0.0,1.38585708655
179,2_33_1,33,1.0,1011.45436474,2_ND,test,03,2,8.0,00110,kill,0.0,0.0,2.31288525172
180,2_33_1,33,1.0,1018.45470182,2_ND,test,03,2,9.0,11101,ignore,1.0,100.0,5.01017566468
181,2_33_1,33,1.0,1023.76749759,2_ND,test,03,2,10.0,00111,ignore,0.0,0.0,3.36610872153
182,2_33_1,33,1.0,1031.09888776,2_ND,test,03,2,11.0,00100,ignore,1.0,100.0,5.33107905921
183,2_33_1,33,1.0,1034.30216115,2_ND,test,03,2,12.0,01000,ignore,1.0,200.0,1.20045998482
184,2_33_1,33,1.0,1037.31792225,2_ND,test,03,2,13.0,11010,kill,0.0,100.0,1.06372435036
185,2_33_1,33,1.0,1040.67745449,2_ND,test,03,2,14.0,00000,ignore,1.0,200.0,1.3952328613
186,2_33_1,33,1.0,1043.59950627,2_ND,test,03,2,15.0,01101,ignore,1.0,300.0,0.945941681161
187,2_33_1,33,1.0,1048.83408666,2_ND,test,03,2,16.0,01111,kill,1.0,400.0,3.26764913505
188,2_33_1,33,1.0,1054.74063425,2_ND,test,03,2,17.0,00010,kill,0.0,300.0,3.92526257012
189,2_33_1,33,1.0,1058.55330894,2_ND,test,03,2,18.0,11100,ignore,1.0,400.0,1.87813641683
190,2_33_1,33,1.0,1068.13194656,2_ND,test,03,2,19.0,10011,kill,1.0,500.0,7.58365023706
191,2_33_1,33,1.0,1072.50710648,2_ND,test,03,2,20.0,01110,ignore,1.0,600.0,2.41046669119
192,2_33_1,33,1.0,1077.38239517,2_ND,test,03,2,21.0,10101,ignore,1.0,700.0,2.88758275124
193,2_33_1,33,1.0,1080.75753136,2_ND,test,03,2,22.0,10000,ignore,1.0,800.0,1.39266641415
194,2_33_1,33,1.0,1087.11720985,2_ND,test,03,2,23.0,01000,ignore,1.0,900.0,4.43254929795
195,2_33_1,33,1.0,1092.57059959,2_ND,test,03,2,24.0,10001,ignore,0.0,800.0,3.45866663417
196,2_33_1,33,1.0,1098.4458979,2_ND,test,03,2,25.0,00100,ignore,1.0,900.0,3.87606741526
197,2_33_1,33,1.0,1111.29338032,2_ND,test,03,2,26.0,01010,ignore,1.0,1000.0,10.9183470823
198,2_33_1,33,1.0,1117.04368765,2_ND,test,03,2,27.0,01110,ignore,1.0,1100.0,3.77710877958
199,2_33_1,33,1.0,1124.92007227,2_ND,test,03,2,28.0,01111,kill,1.0,1200.0,5.94428384995
200,2_33_1,33,1.0,1129.63916818,2_ND,test,03,2,29.0,01101,ignore,1.0,1300.0,2.74998340244
201,2_33_1,33,1.0,1134.34253666,2_ND,test,03,2,30.0,11001,ignore,0.0,1200.0,2.73347244277
202,2_33_1,33,1.0,1139.65529715,2_ND,test,03,2,31.0,11011,kill,1.0,1300.0,3.37504959221
203,2_33_1,33,1.0,1144.04611009,2_ND,test,03,2,32.0,01100,ignore,1.0,1400.0,2.44491583997
204,2_33_1,33,1.0,1154.5020249,2_ND,test,03,2,33.0,00111,kill,1.0,1500.0,8.4566576083
205,2_33_1,33,1.0,1159.89415314,2_ND,test,03,2,34.0,10110,ignore,1.0,1600.0,3.43087895844
206,2_33_1,33,1.0,1162.89432825,2_ND,test,03,2,35.0,00101,ignore,1.0,1700.0,1.02633927841
207,2_33_1,33,1.0,1167.92584308,2_ND,test,03,2,36.0,00110,kill,0.0,1600.0,3.02441652777
208,2_33_1,33,1.0,1171.22285466,2_ND,test,03,2,37.0,11110,ignore,1.0,1700.0,1.3227254373
209,2_33_1,33,1.0,1174.4261351,2_ND,test,03,2,38.0,00010,kill,0.0,1600.0,1.23667440792
210,2_33_1,33,1.0,1178.39507122,2_ND,test,03,2,39.0,10111,ignore,0.0,1500.0,2.02701793402
211,2_33_1,33,1.0,1181.4421313,2_ND,test,03,2,40.0,00001,ignore,0.0,1400.0,1.07154652976
212,2_33_1,33,1.0,1186.97362416,2_ND,test,03,2,41.0,01011,ignore,0.0,1300.0,3.59715278956
213,2_33_1,33,1.0,1196.20841655,2_ND,test,03,2,42.0,01001,ignore,0.0,1200.0,7.2409076666
214,2_33_1,33,1.0,1199.34921097,2_ND,test,03,2,43.0,00000,ignore,1.0,1300.0,1.15266960858
215,2_33_1,33,1.0,1201.91184854,2_ND,test,03,2,44.0,11100,ignore,1.0,1400.0,0.618044541745
216,2_33_1,33,1.0,1204.42761718,2_ND,test,03,2,45.0,10010,ignore,1.0,1500.0,0.560723800959
217,2_33_1,33,1.0,1207.30274423,2_ND,test,03,2,46.0,11101,kill,0.0,1400.0,0.947912540664
218,2_33_1,33,1.0,1210.05284373,2_ND,test,03,2,47.0,11010,ignore,1.0,1500.0,0.814316169483
219,2_33_1,33,1.0,1212.56864765,2_ND,test,03,2,48.0,11000,ignore,1.0,1600.0,0.548646232804
220,2_33_1,33,1.0,1216.3969728,2_ND,test,03,2,49.0,10011,kill,1.0,1700.0,1.88713084871
221,2_33_1,33,1.0,1219.29487073,2_ND,test,03,2,50.0,11111,kill,1.0,1800.0,0.929811422903
222,2_33_1,33,1.0,1222.43567862,2_ND,test,03,2,51.0,00011,kill,1.0,1900.0,1.20472916478
223,2_33_1,33,1.0,1225.10766858,2_ND,test,03,2,52.0,10100,ignore,1.0,2000.0,0.716365574713
224,2_33_1,33,1.0,1228.33765811,2_ND,test,03,2,53.0,01011,kill,1.0,2100.0,1.26185041417
225,2_33_1,33,1.0,1231.04091851,2_ND,test,03,2,54.0,00000,ignore,1.0,2200.0,0.747285457751
226,2_33_1,33,1.0,1235.00983666,2_ND,test,03,2,55.0,00001,ignore,0.0,2100.0,2.0211788017
227,2_33_1,33,1.0,1237.94747988,2_ND,test,03,2,56.0,10001,kill,1.0,2200.0,0.953814535225
228,2_33_1,33,1.0,1241.08830124,2_ND,test,03,2,57.0,10011,kill,1.0,2300.0,1.195320676
229,2_33_1,33,1.0,1243.91653145,2_ND,test,03,2,58.0,10010,ignore,1.0,2400.0,0.866644173103
230,2_33_1,33,1.0,1246.79165369,2_ND,test,03,2,59.0,00111,kill,1.0,2500.0,0.944324902844
231,2_33_1,33,1.0,1249.35426047,2_ND,test,03,2,60.0,01110,ignore,1.0,2600.0,0.593433333472
232,2_33_1,33,1.0,1251.64181994,2_ND,test,03,2,61.0,10110,ignore,1.0,2700.0,0.329332386979
233,2_33_1,33,1.0,1253.9544252,2_ND,test,03,2,62.0,10000,ignore,1.0,2800.0,0.339252433266
234,2_33_1,33,1.0,1256.26705066,2_ND,test,03,2,63.0,11100,ignore,1.0,2900.0,0.3335961146
235,2_33_1,33,1.0,1258.84528577,2_ND,test,03,2,64.0,11101,kill,0.0,2800.0,0.648721635419
236,2_33_1,33,1.0,1263.78301943,2_ND,test,03,2,65.0,01101,kill,0.0,2700.0,2.93279962437
237,2_33_1,33,1.0,1267.53319752,2_ND,test,03,2,66.0,01100,ignore,1.0,2800.0,1.7966214112
238,2_33_1,33,1.0,1271.33024902,2_ND,test,03,2,67.0,00011,kill,1.0,2900.0,1.85278593579
239,2_33_1,33,1.0,1274.43980732,2_ND,test,03,2,68.0,01000,ignore,1.0,3000.0,1.16083977538
240,2_33_1,33,1.0,1281.42447567,2_ND,test,03,2,69.0,11011,kill,1.0,3100.0,5.09224135636
241,2_33_1,33,1.0,1284.33091741,2_ND,test,03,2,70.0,00010,ignore,1.0,3200.0,0.965969398277
242,2_33_1,33,1.0,1286.81542941,2_ND,test,03,2,71.0,10100,ignore,1.0,3300.0,0.526297423707
243,2_33_1,33,1.0,1289.2999212,2_ND,test,03,2,72.0,01010,ignore,1.0,3400.0,0.579580548499
244,2_33_1,33,1.0,1291.62814355,2_ND,test,03,2,73.0,11000,ignore,1.0,3500.0,0.397644397932
245,2_33_1,33,1.0,1296.64402653,2_ND,test,03,2,74.0,00101,kill,0.0,3400.0,3.06090164337
246,2_33_1,33,1.0,1299.69039641,2_ND,test,03,2,75.0,11110,ignore,1.0,3500.0,1.12984612542
247,2_33_1,33,1.0,1303.15932146,2_ND,test,03,2,76.0,00100,ignore,1.0,3600.0,1.49952676921
248,2_33_1,33,1.0,1308.14392598,2_ND,test,03,2,77.0,01111,ignore,0.0,3500.0,3.08064936694
249,2_33_1,33,1.0,1312.51917378,2_ND,test,03,2,78.0,11111,kill,1.0,3600.0,2.38569896877
250,2_33_1,33,1.0,1315.22240789,2_ND,test,03,2,79.0,11010,ignore,1.0,3700.0,0.769297825576
251,2_33_1,33,1.0,1322.16022045,2_ND,test,03,2,80.0,10101,kill,0.0,3600.0,5.01125715178
252,2_33_1,33,1.0,1325.98855747,2_ND,test,03,2,81.0,00110,ignore,1.0,3700.0,1.87946422128
253,2_33_1,33,1.0,1330.34813557,2_ND,test,03,2,82.0,01001,ignore,0.0,3600.0,2.46964635821
254,2_33_1,33,1.0,1334.02019,2_ND,test,03,2,83.0,10111,kill,1.0,3700.0,1.6879319574
255,2_33_1,33,1.0,1338.8954524,2_ND,test,03,2,84.0,11001,kill,1.0,3800.0,2.88367214263
256,2_33_1,33,1.0,1342.12994555,2_ND,test,03,2,85.0,00011,kill,1.0,3900.0,1.32628517198
257,2_33_1,33,1.0,1344.94262089,2_ND,test,03,2,86.0,01100,ignore,1.0,4000.0,0.873029501313
258,2_33_1,33,1.0,1351.48981936,2_ND,test,03,2,87.0,11101,kill,0.0,3900.0,4.65656498272
259,2_33_1,33,1.0,1355.9274929,2_ND,test,03,2,88.0,10001,ignore,0.0,3800.0,2.52445357159
260,2_33_1,33,1.0,1363.16223333,2_ND,test,03,2,89.0,00101,ignore,1.0,3900.0,5.27743447654
261,2_33_1,33,1.0,1367.56868934,2_ND,test,03,3,0.0,11001,kill,1.0,4000.0,2.52995722481
262,2_33_1,33,1.0,1384.56949501,2_ND,test,03,3,1.0,11111,kill,1.0,4100.0,15.1095377733
263,2_33_1,33,1.0,1387.39779674,2_ND,test,03,3,2.0,00010,ignore,1.0,4200.0,0.935525472197
264,2_33_1,33,1.0,1390.24167164,2_ND,test,03,3,3.0,10000,ignore,0.0,4100.0,0.923294276425
265,2_33_1,33,1.0,1394.35123635,2_ND,test,03,3,4.0,10111,ignore,1.0,4200.0,2.16620263002
266,2_33_1,33,1.0,1397.32652411,2_ND,test,03,3,5.0,01111,kill,0.0,4100.0,1.10505434858
267,2_33_1,33,1.0,1400.8583021,2_ND,test,03,3,6.0,00100,ignore,1.0,4200.0,1.59775190519
268,2_33_1,33,1.0,1403.32714023,2_ND,test,03,3,7.0,10100,ignore,0.0,4100.0,0.516883803319
269,2_33_1,33,1.0,1406.56166,2_ND,test,03,3,8.0,00111,ignore,1.0,4200.0,1.31272007797
270,2_33_1,33,1.0,1409.51497549,2_ND,test,03,3,9.0,01011,kill,0.0,4100.0,1.02074806707
271,2_33_1,33,1.0,1412.92134234,2_ND,test,03,3,10.0,01110,ignore,1.0,4200.0,1.54299825301
272,2_33_1,33,1.0,1415.84340888,2_ND,test,03,3,11.0,11010,ignore,0.0,4100.0,0.952066259367
273,2_33_1,33,1.0,1419.89046575,2_ND,test,03,3,12.0,11011,kill,1.0,4200.0,2.10568008444
274,2_33_1,33,1.0,1424.78136673,2_ND,test,03,3,13.0,01000,ignore,1.0,4300.0,2.99036187161
275,2_33_1,33,1.0,1427.68776037,2_ND,test,03,3,14.0,11100,ignore,0.0,4200.0,0.949104357412
276,2_33_1,33,1.0,1431.21917433,2_ND,test,03,3,15.0,10101,ignore,1.0,4300.0,1.64063742311
277,2_33_1,33,1.0,1434.01619569,2_ND,test,03,3,16.0,00000,ignore,1.0,4400.0,0.813008891479
278,2_33_1,33,1.0,1437.79763138,2_ND,test,03,3,17.0,01001,kill,0.0,4300.0,1.84461288246
279,2_33_1,33,1.0,1440.68841048,2_ND,test,03,3,18.0,10110,ignore,0.0,4200.0,0.979374450156
280,2_33_1,33,1.0,1443.62604793,2_ND,test,03,3,19.0,00001,ignore,1.0,4300.0,0.963171387161
281,2_33_1,33,1.0,1450.51702172,2_ND,test,03,3,20.0,01101,kill,0.0,4200.0,5.01468987908
282,2_33_1,33,1.0,1453.82962826,2_ND,test,03,3,21.0,10010,ignore,0.0,4100.0,1.38827503769
283,2_33_1,33,1.0,1456.6266602,2_ND,test,03,3,22.0,11110,ignore,0.0,4000.0,0.876936902669
284,2_33_1,33,1.0,1459.56428161,2_ND,test,03,3,23.0,01010,ignore,1.0,4100.0,1.07734011903
285,2_33_1,33,1.0,1462.25820184,2_ND,test,03,3,24.0,11000,kill,1.0,4200.0,0.787397018983
286,2_33_1,33,1.0,1464.99267366,2_ND,test,03,3,25.0,10011,kill,0.0,4100.0,0.787842186272
287,2_33_1,33,1.0,1468.13349951,2_ND,test,03,3,26.0,00110,ignore,1.0,4200.0,1.22146591536
288,2_33_1,33,1.0,1471.1180075,2_ND,test,03,3,27.0,00110,ignore,1.0,4300.0,1.03615059868
289,2_33_1,33,1.0,1475.13380997,2_ND,test,03,3,28.0,01101,ignore,1.0,4400.0,2.14126973385
290,2_33_1,33,1.0,1478.89965358,2_ND,test,03,3,29.0,10010,kill,1.0,4500.0,1.78974376902
291,2_33_1,33,1.0,1482.11851008,2_ND,test,03,3,30.0,00010,ignore,1.0,4600.0,1.26927168643
292,2_33_1,33,1.0,1488.85325099,2_ND,test,03,3,31.0,00001,ignore,1.0,4700.0,4.81912962098
293,2_33_1,33,1.0,1493.40029808,2_ND,test,03,3,32.0,11110,ignore,0.0,4600.0,2.61568881139
294,2_33_1,33,1.0,1496.58797586,2_ND,test,03,3,33.0,01111,ignore,1.0,4700.0,1.31199523786
295,2_33_1,33,1.0,1500.26301337,2_ND,test,03,3,34.0,01000,kill,0.0,4600.0,1.70665175506
296,2_33_1,33,1.0,1503.27877415,2_ND,test,03,3,35.0,10100,ignore,0.0,4500.0,1.07746359843
297,2_33_1,33,1.0,1507.3570649,2_ND,test,03,3,36.0,01011,ignore,1.0,4600.0,2.16453517704
298,2_33_1,33,1.0,1510.34164088,2_ND,test,03,3,37.0,00011,ignore,1.0,4700.0,1.03644534561
299,2_33_1,33,1.0,1514.73246825,2_ND,test,03,3,38.0,11100,kill,1.0,4800.0,2.51730523691
300,2_33_1,33,1.0,1517.88881434,2_ND,test,03,3,39.0,10101,kill,0.0,4700.0,1.24035024531
301,2_33_1,33,1.0,1521.27961573,2_ND,test,03,3,40.0,11101,ignore,0.0,4600.0,1.43018683235
302,2_33_1,33,1.0,1526.4205131,2_ND,test,03,3,41.0,00111,ignore,1.0,4700.0,3.2546947028
303,2_33_1,33,1.0,1530.34256168,2_ND,test,03,3,42.0,10110,kill,1.0,4800.0,2.02057455446
304,2_33_1,33,1.0,1536.4522502,2_ND,test,03,3,43.0,11010,kill,1.0,4900.0,4.18724768909
305,2_33_1,33,1.0,1544.64015249,2_ND,test,03,3,44.0,00000,ignore,1.0,5000.0,6.27404280213
306,2_33_1,33,1.0,1550.8591982,2_ND,test,03,3,45.0,01110,ignore,1.0,5100.0,4.27523942976
307,2_33_1,33,1.0,1559.06588348,2_ND,test,03,3,46.0,10011,kill,0.0,5000.0,6.34437538507
308,2_33_1,33,1.0,1564.22236555,2_ND,test,03,3,47.0,01001,ignore,1.0,5100.0,3.2726328919
309,2_33_1,33,1.0,1567.37874243,2_ND,test,03,3,48.0,01100,kill,0.0,5000.0,1.22031996239
310,2_33_1,33,1.0,1569.87889557,2_ND,test,03,3,49.0,00101,ignore,1.0,5100.0,0.605525334284
311,2_33_1,33,1.0,1574.89476188,2_ND,test,03,3,50.0,10000,kill,1.0,5200.0,3.07762203694
312,2_33_1,33,1.0,1579.36370456,2_ND,test,03,3,51.0,00100,ignore,1.0,5300.0,2.5710736197
313,2_33_1,33,1.0,1585.20772346,2_ND,test,03,3,52.0,11111,ignore,0.0,5200.0,3.91456797124
314,2_33_1,33,1.0,1591.47367403,2_ND,test,03,3,53.0,01010,ignore,1.0,5300.0,4.34101097235
315,2_33_1,33,1.0,1595.5051199,2_ND,test,03,3,54.0,11011,ignore,0.0,5200.0,2.15931504534
316,2_33_1,33,1.0,1599.34906311,2_ND,test,03,3,55.0,11001,ignore,0.0,5100.0,1.9044115501
317,2_33_1,33,1.0,1603.41173484,2_ND,test,03,3,56.0,11000,kill,1.0,5200.0,2.19868637163
318,2_33_1,33,1.0,1607.33508653,2_ND,test,03,3,57.0,10111,kill,0.0,5100.0,1.95654487322
319,2_33_1,33,1.0,1620.5700906,2_ND,test,03,3,58.0,10001,kill,0.0,5000.0,11.3010549631
320,2_33_1,33,1.0,1627.92983355,2_ND,test,03,3,59.0,10110,ignore,0.0,4900.0,5.46755522656
321,2_33_1,33,1.0,1638.25852898,2_ND,test,03,3,60.0,11111,ignore,0.0,4800.0,8.38974332001
322,2_33_1,33,1.0,1642.03993228,2_ND,test,03,3,61.0,00111,ignore,1.0,4900.0,1.91529858441
323,2_33_1,33,1.0,1644.80744302,2_ND,test,03,3,62.0,00001,ignore,1.0,5000.0,0.862630611537
324,2_33_1,33,1.0,1649.38582918,2_ND,test,03,3,63.0,10000,kill,1.0,5100.0,2.64487773775
325,2_33_1,33,1.0,1653.18285471,2_ND,test,03,3,64.0,11011,kill,1.0,5200.0,1.95782841752
326,2_33_1,33,1.0,1657.74562474,2_ND,test,03,3,65.0,00100,ignore,1.0,5300.0,2.64847275227
327,2_33_1,33,1.0,1660.73007916,2_ND,test,03,3,66.0,11010,kill,1.0,5400.0,1.07001281941
328,2_33_1,33,1.0,1665.511562,2_ND,test,03,3,67.0,10100,kill,1.0,5500.0,2.87618255579
329,2_33_1,33,1.0,1668.5117817,2_ND,test,03,3,68.0,00011,ignore,1.0,5600.0,1.06432057946
330,2_33_1,33,1.0,1671.16815425,2_ND,test,03,3,69.0,00101,ignore,1.0,5700.0,0.792551722634
331,2_33_1,33,1.0,1683.95055404,2_ND,test,03,3,70.0,01010,kill,0.0,5600.0,10.8329073561
332,2_33_1,33,1.0,1688.70079402,2_ND,test,03,3,71.0,01100,ignore,1.0,5700.0,2.79978889834
333,2_33_1,33,1.0,1694.16980117,2_ND,test,03,3,72.0,00010,ignore,1.0,5800.0,3.59262767048
334,2_33_1,33,1.0,1699.84196305,2_ND,test,03,3,73.0,11100,kill,1.0,5900.0,3.7352665824
335,2_33_1,33,1.0,1703.88905584,2_ND,test,03,3,74.0,10101,ignore,1.0,6000.0,2.18652894277
336,2_33_1,33,1.0,1709.39496377,2_ND,test,03,3,75.0,11001,kill,1.0,6100.0,3.57857058323
337,2_33_1,33,1.0,1714.27015657,2_ND,test,03,3,76.0,00000,ignore,1.0,6200.0,2.93789691811
338,2_33_1,33,1.0,1722.25493044,2_ND,test,03,3,77.0,01011,ignore,1.0,6300.0,6.10107638756
339,2_33_1,33,1.0,1725.52069723,2_ND,test,03,3,78.0,10111,ignore,1.0,6400.0,1.33335589104
340,2_33_1,33,1.0,1731.11475791,2_ND,test,03,3,79.0,11000,kill,1.0,6500.0,3.75600149971
341,2_33_1,33,1.0,1735.80249005,2_ND,test,03,3,80.0,00110,ignore,1.0,6600.0,2.7479958652
342,2_33_1,33,1.0,1741.42776952,2_ND,test,03,4,0.0,01001,ignore,1.0,6700.0,3.69254046516
343,2_33_1,33,1.0,1753.97522939,2_ND,test,03,4,1.0,01110,kill,1.0,6800.0,10.6987237362
344,2_33_1,33,1.0,1761.85067396,2_ND,test,03,4,2.0,11101,kill,0.0,6700.0,6.00969842482
345,2_33_1,33,1.0,1765.66332684,2_ND,test,03,4,3.0,11110,kill,0.0,6600.0,1.89454025412
346,2_33_1,33,1.0,1768.58536804,2_ND,test,03,4,4.0,10011,ignore,0.0,6500.0,1.00329481524
347,2_33_1,33,1.0,1778.97649177,2_ND,test,03,4,5.0,10010,ignore,0.0,6400.0,8.46749300577
348,2_33_1,33,1.0,1783.58607749,2_ND,test,03,4,6.0,01000,kill,0.0,6300.0,2.77493714578
349,2_33_1,33,1.0,1786.67998373,2_ND,test,03,4,7.0,01111,kill,1.0,6400.0,1.21780322772
350,2_33_1,33,1.0,1789.41449885,2_ND,test,03,4,8.0,10001,ignore,1.0,6500.0,0.800933568404
351,2_33_1,33,1.0,1792.11772333,2_ND,test,03,4,9.0,01101,ignore,1.0,6600.0,0.827658038397
352,2_33_1,33,1.0,1794.68036604,2_ND,test,03,4,10.0,11100,ignore,1.0,6700.0,0.635544619521
353,2_33_1,33,1.0,1796.90568451,2_ND,test,03,4,11.0,10101,ignore,1.0,6800.0,0.365185031475
354,2_33_1,33,1.0,1799.92144176,2_ND,test,03,4,12.0,10011,kill,1.0,6900.0,1.07930777128
355,2_33_1,33,1.0,1802.68720776,2_ND,test,03,4,13.0,10000,ignore,1.0,7000.0,0.844660029141
356,2_33_1,33,1.0,1805.3748315,2_ND,test,03,4,14.0,01011,kill,1.0,7100.0,0.8224266813
357,2_33_1,33,1.0,1808.31246638,2_ND,test,03,4,15.0,01010,kill,1.0,7200.0,1.01484029944
358,2_33_1,33,1.0,1810.95326096,2_ND,test,03,4,16.0,00101,ignore,1.0,7300.0,0.769203852942
359,2_33_1,33,1.0,1813.26582517,2_ND,test,03,5,0.0,10001,ignore,0.0,7200.0,0.361852370596
360,2_33_1,33,1.0,1816.03159212,2_ND,test,03,5,1.0,10111,kill,1.0,7300.0,0.844386129383
361,2_33_1,33,1.0,1819.40205149,2_ND,test,03,5,2.0,00100,ignore,1.0,7400.0,1.49346344962
362,2_33_1,33,1.0,1822.10533306,2_ND,test,03,5,3.0,11011,kill,1.0,7500.0,0.794487302309
363,2_33_1,33,1.0,1824.80856844,2_ND,test,03,5,4.0,11000,ignore,1.0,7600.0,0.847154633733
364,2_33_1,33,1.0,1827.29304195,2_ND,test,03,5,5.0,00110,kill,0.0,7500.0,0.574006656341
365,2_33_1,33,1.0,1830.43382482,2_ND,test,03,5,6.0,01001,ignore,0.0,7400.0,1.20789440683
366,2_33_1,33,1.0,1834.85593001,2_ND,test,03,5,7.0,10110,kill,0.0,7300.0,2.56282198857
367,2_33_1,33,1.0,1838.09046582,2_ND,test,03,5,8.0,00011,ignore,0.0,7200.0,1.34981585533
368,2_33_1,33,1.0,1841.80938501,2_ND,test,03,5,9.0,11101,kill,0.0,7100.0,1.78361630428
369,2_33_1,33,1.0,1851.12240785,2_ND,test,03,5,10.0,00001,ignore,0.0,7000.0,7.38466013819
370,2_33_1,33,1.0,1854.7319522,2_ND,test,03,5,11.0,11001,ignore,0.0,6900.0,1.68434688538
371,2_33_1,33,1.0,1858.62276594,2_ND,test,03,5,12.0,01000,ignore,1.0,7000.0,2.04385346812
372,2_33_1,33,1.0,1861.56040949,2_ND,test,03,5,13.0,10100,ignore,1.0,7100.0,0.985222883523
373,2_33_1,33,1.0,1863.98242904,2_ND,test,03,5,14.0,10010,ignore,1.0,7200.0,0.490283133452
374,2_33_1,33,1.0,1866.45125498,2_ND,test,03,5,15.0,11110,ignore,1.0,7300.0,0.602353356988
375,2_33_1,33,1.0,1869.46705137,2_ND,test,03,5,16.0,00111,kill,1.0,7400.0,1.06624493374
376,2_33_1,33,1.0,1871.74838843,2_ND,test,03,5,17.0,11111,kill,1.0,7500.0,0.442998220934
377,2_33_1,33,1.0,1874.45166391,2_ND,test,03,5,18.0,01110,ignore,1.0,7600.0,0.770357182604
378,2_33_1,33,1.0,1877.10801304,2_ND,test,03,5,19.0,00000,ignore,1.0,7700.0,0.724281726749
379,2_33_1,33,1.0,1879.51441582,2_ND,test,03,5,20.0,01100,ignore,1.0,7800.0,0.537958048435
380,2_33_1,33,1.0,1881.79576443,2_ND,test,03,5,21.0,11010,ignore,1.0,7900.0,0.357998209709
381,2_33_1,33,1.0,1884.25213275,2_ND,test,03,6,0.0,00010,ignore,1.0,8000.0,0.603507007376
382,2_33_1,33,1.0,1886.86162931,2_ND,test,03,6,1.0,01111,kill,0.0,7900.0,0.701483901654
383,2_33_1,33,1.0,1890.26806255,2_ND,test,03,6,2.0,01101,ignore,1.0,8000.0,1.45727436385
384,2_33_1,33,1.0,1892.54939192,2_ND,test,03,6,3.0,01001,ignore,1.0,8100.0,0.417720865356
385,2_33_1,33,1.0,1894.81511895,2_ND,test,03,6,4.0,11101,ignore,0.0,8000.0,0.387887280307
386,2_33_1,33,1.0,1899.25288838,2_ND,test,03,6,5.0,11001,ignore,0.0,7900.0,2.50933263714
387,2_33_1,33,1.0,1902.73737984,2_ND,test,03,6,6.0,11010,kill,1.0,8000.0,1.57710999834
388,2_33_1,33,1.0,1905.64380074,2_ND,test,03,6,7.0,11011,kill,1.0,8100.0,0.994836316029
389,2_33_1,33,1.0,1908.47208035,2_ND,test,03,6,8.0,00101,ignore,1.0,8200.0,0.966369022515
390,2_33_1,33,1.0,1911.06594762,2_ND,test,03,6,9.0,10001,kill,0.0,8100.0,0.698017177428
391,2_33_1,33,1.0,1914.78486297,2_ND,test,03,6,10.0,01111,ignore,1.0,8200.0,1.78265925876
392,2_33_1,33,1.0,1917.31623748,2_ND,test,03,6,11.0,01100,ignore,1.0,8300.0,0.648712655099
393,2_33_1,33,1.0,1921.89457938,2_ND,test,03,6,12.0,00010,ignore,1.0,8400.0,2.63139539098
394,2_33_1,33,1.0,1926.27293437,2_ND,test,03,6,13.0,11000,kill,1.0,8500.0,2.5522473411
395,2_33_1,33,1.0,1929.72624008,2_ND,test,03,6,14.0,10000,kill,1.0,8600.0,1.50503555405
396,2_33_1,33,1.0,1932.96077172,2_ND,test,03,6,15.0,00000,ignore,1.0,8700.0,1.30878637711
397,2_33_1,33,1.0,1936.30464004,2_ND,test,03,6,16.0,11100,kill,1.0,8800.0,1.46781309004
398,2_33_1,33,1.0,1939.74232576,2_ND,test,03,6,17.0,10011,kill,0.0,8700.0,1.512800965
399,2_33_1,33,1.0,1942.69557806,2_ND,test,03,6,18.0,01010,ignore,1.0,8800.0,1.11191948245
400,2_33_1,33,1.0,1945.54591974,2_ND,test,03,6,19.0,00110,ignore,1.0,8900.0,0.923767667577
401,2_33_1,33,1.0,1948.26479724,2_ND,test,03,6,20.0,11111,ignore,0.0,8800.0,0.791748304724
402,2_33_1,33,1.0,1951.60869539,2_ND,test,03,6,21.0,10100,kill,1.0,8900.0,1.46693141505
403,2_33_1,33,1.0,1954.81196782,2_ND,test,03,6,22.0,01000,ignore,1.0,9000.0,1.28867495058
404,2_33_1,33,1.0,1957.73400934,2_ND,test,03,6,23.0,10010,kill,1.0,9100.0,1.06473527781
405,2_33_1,33,1.0,1960.48619356,2_ND,test,03,6,24.0,00100,ignore,1.0,9200.0,0.830922705424
406,2_33_1,33,1.0,1963.51758715,2_ND,test,03,6,25.0,01101,ignore,1.0,9300.0,1.10996273488
407,2_33_1,33,1.0,1965.86147311,2_ND,test,03,6,26.0,01011,ignore,1.0,9400.0,0.485583860313
408,2_33_1,33,1.0,1968.36157911,2_ND,test,03,6,27.0,00001,ignore,1.0,9500.0,0.613109535208
409,2_33_1,33,1.0,1971.84614627,2_ND,test,03,6,28.0,11110,kill,1.0,9600.0,1.56549235085
410,2_33_1,33,1.0,1974.45566464,2_ND,test,03,6,29.0,00011,ignore,1.0,9700.0,0.679361845635
411,2_33_1,33,1.0,1977.65890692,2_ND,test,03,6,30.0,10111,kill,0.0,9600.0,1.26837782387
412,2_33_1,33,1.0,1980.6903095,2_ND,test,03,6,31.0,10110,kill,1.0,9700.0,1.17245132907
413,2_33_1,33,1.0,1985.14363926,2_ND,test,03,6,32.0,10101,kill,0.0,9600.0,2.49264720268
414,2_33_1,33,1.0,1987.81571485,2_ND,test,03,6,33.0,00111,ignore,1.0,9700.0,0.744171852534
415,2_33_1,33,1.0,1990.3783319,2_ND,test,03,6,34.0,01110,ignore,1.0,9800.0,0.702215156278
416,2_33_1,33,1.0,1992.6440586,2_ND,test,03,6,35.0,00001,ignore,1.0,9900.0,0.338647223847
417,2_33_1,33,1.0,1995.17544242,2_ND,test,03,6,36.0,01010,ignore,1.0,10000.0,0.698060796125
418,2_33_1,33,1.0,1998.56680925,2_ND,test,03,6,37.0,11110,kill,1.0,10100.0,1.44648066072
419,2_33_1,33,1.0,2002.08263273,2_ND,test,03,6,38.0,11001,ignore,0.0,10000.0,1.59714862013
420,2_33_1,33,1.0,2005.11400741,2_ND,test,03,6,39.0,00000,ignore,1.0,10100.0,1.13495592748
421,2_33_1,33,1.0,2007.87975352,2_ND,test,03,6,40.0,00100,ignore,1.0,10200.0,0.817037847879
422,2_33_1,33,1.0,2010.36425685,2_ND,test,03,6,41.0,01000,ignore,1.0,10300.0,0.628197755625
423,2_33_1,33,1.0,2013.75416246,2_ND,test,03,6,42.0,00111,ignore,1.0,10400.0,1.45139065065
424,2_33_1,33,1.0,2017.21062122,2_ND,test,03,6,43.0,01001,ignore,1.0,10500.0,1.52056060289
425,2_33_1,33,1.0,2020.36701958,2_ND,test,03,6,44.0,11010,kill,1.0,10600.0,1.31116295464
426,2_33_1,33,1.0,2025.9297925,2_ND,test,03,6,45.0,01101,ignore,1.0,10700.0,3.66893825998
427,2_33_1,33,1.0,2033.52388492,2_ND,test,03,6,46.0,01100,ignore,1.0,10800.0,5.68031792898
428,2_33_1,33,1.0,2038.1178574,2_ND,test,03,6,47.0,10110,kill,1.0,10900.0,2.68328784908
429,2_33_1,33,1.0,2041.58680874,2_ND,test,03,6,48.0,00110,ignore,1.0,11000.0,1.51826869695
430,2_33_1,33,1.0,2045.49321842,2_ND,test,03,7,0.0,11101,kill,0.0,10900.0,2.05272730713
431,2_33_1,33,1.0,2048.75900221,2_ND,test,03,7,1.0,10100,kill,0.0,10800.0,1.3634203986
432,2_33_1,33,1.0,2052.79047567,2_ND,test,03,7,2.0,00011,ignore,0.0,10700.0,2.09203577118
433,2_33_1,33,1.0,2056.86883826,2_ND,test,03,7,3.0,10010,ignore,0.0,10600.0,2.20298345472
434,2_33_1,33,1.0,2062.77531817,2_ND,test,03,7,4.0,00101,ignore,1.0,10700.0,3.96149527459
435,2_33_1,33,1.0,2065.24419799,2_ND,test,03,7,5.0,10101,ignore,1.0,10800.0,0.604217414829
436,2_33_1,33,1.0,2068.05682971,2_ND,test,03,7,6.0,11011,kill,1.0,10900.0,0.867833744771
437,2_33_1,33,1.0,2070.58821673,2_ND,test,03,7,7.0,01011,kill,1.0,11000.0,0.609620039455
438,2_33_1,33,1.0,2072.90201092,2_ND,test,03,7,8.0,10011,kill,1.0,11100.0,0.429063009453
439,2_33_1,33,1.0,2075.74590538,2_ND,test,03,7,9.0,01110,ignore,0.0,11000.0,0.924189101163
440,2_33_1,33,1.0,2079.21480669,2_ND,test,03,7,10.0,01111,ignore,0.0,10900.0,1.61914014078
441,2_33_1,33,1.0,2085.1995023,2_ND,test,03,7,11.0,11000,kill,0.0,10800.0,4.05844520513
442,2_33_1,33,1.0,2092.68421154,2_ND,test,03,7,12.0,10111,ignore,1.0,10900.0,5.53385692875
443,2_33_1,33,1.0,2096.9823944,2_ND,test,03,7,13.0,10000,kill,0.0,10800.0,2.42321425536
444,2_33_1,33,1.0,2101.13881554,2_ND,test,03,7,14.0,11111,kill,0.0,10700.0,2.22153038122
445,2_33_1,33,1.0,2105.9671702,2_ND,test,03,7,15.0,00010,ignore,0.0,10600.0,2.99144464162
446,2_33_1,33,1.0,2110.17052281,2_ND,test,03,7,16.0,10001,ignore,1.0,10700.0,2.29522865979
447,2_33_1,33,1.0,2113.12379724,2_ND,test,03,7,17.0,11100,ignore,1.0,10800.0,1.03604219339
448,2_33_1,33,1.0,2115.96766924,2_ND,test,03,7,18.0,10100,ignore,1.0,10900.0,0.982240775848
449,2_33_1,33,1.0,2119.21897484,2_ND,test,03,7,19.0,00111,kill,1.0,11000.0,1.36931854446
450,2_33_1,33,1.0,2122.4222601,2_ND,test,03,7,20.0,10000,ignore,1.0,11100.0,1.26642620791
451,2_33_1,33,1.0,2125.25054772,2_ND,test,03,7,21.0,10001,ignore,1.0,11200.0,0.91230140263
452,2_33_1,33,1.0,2128.3444421,2_ND,test,03,7,22.0,01010,kill,1.0,11300.0,1.17283491702
453,2_33_1,33,1.0,2131.03204627,2_ND,test,03,7,23.0,00000,ignore,1.0,11400.0,0.841514030627
454,2_33_1,33,1.0,2133.90719224,2_ND,test,03,7,24.0,10111,kill,0.0,11300.0,0.943932655298
455,2_33_1,33,1.0,2148.92356208,2_ND,test,03,7,25.0,11001,kill,0.0,11200.0,13.0916528247
456,2_33_1,33,1.0,2152.64248609,2_ND,test,03,7,26.0,01111,kill,1.0,11300.0,1.83248367747
457,2_33_1,33,1.0,2155.64711865,2_ND,test,03,7,27.0,01110,kill,1.0,11400.0,1.1115484028
458,2_33_1,33,1.0,2162.99123136,2_ND,test,03,7,28.0,10110,ignore,1.0,11500.0,5.47130290651
459,2_33_1,33,1.0,2167.72581191,2_ND,test,03,7,29.0,01001,kill,0.0,11400.0,2.7587167636
460,2_33_1,33,1.0,2171.14785552,2_ND,test,03,7,30.0,10011,ignore,0.0,11300.0,1.43729924575
461,2_33_1,33,1.0,2175.47961676,2_ND,test,03,7,31.0,00100,ignore,1.0,11400.0,2.41991206342
462,2_33_1,33,1.0,2178.83912206,2_ND,test,03,7,32.0,10010,kill,1.0,11500.0,1.41886553542
463,2_33_1,33,1.0,2181.32365009,2_ND,test,03,7,33.0,11010,kill,1.0,11600.0,0.637653711807
464,2_33_1,33,1.0,2184.54255437,2_ND,test,03,7,34.0,11011,kill,1.0,11700.0,1.30954553487
465,2_33_1,33,1.0,2188.98024298,2_ND,test,03,7,35.0,01100,ignore,1.0,11800.0,2.47214160425
